#time,accel_x,accel_y,accel_z
598.026900,4959.379811,7920.203579,0.000000
598.027220,5107.421000,7994.224174,-306.438199
598.027540,5403.503377,7772.162391,-459.657299
598.027861,4885.359217,8216.285956,-306.438199
598.028181,4885.359217,7994.224174,-153.219100
598.028502,5181.441594,7920.203579,0.000000
598.028822,4885.359217,8068.244768,-229.828649
598.029142,4811.338623,8142.265362,-229.828649
598.029463,4959.379811,8142.265362,0.000000
598.029783,5255.462188,8290.306550,0.000000
598.030103,4959.379811,8512.368333,229.828649
598.030424,4885.359217,7846.182985,0.000000
598.030744,5107.421000,8142.265362,-229.828649
598.031065,4959.379811,8142.265362,0.000000
598.031385,4959.379811,8068.244768,0.000000
598.031705,5033.400406,8216.285956,0.000000
598.032026,4885.359217,8216.285956,-383.047749
598.032346,4959.379811,8216.285956,-76.609550
598.032666,4959.379811,7994.224174,-153.219100
598.032987,4737.318029,8142.265362,0.000000
598.033307,4885.359217,8364.327145,0.000000
598.033628,4959.379811,8068.244768,-76.609550
598.033948,4885.359217,7994.224174,-383.047749
598.034268,5181.441594,8216.285956,0.000000
598.034589,4959.379811,8142.265362,-229.828649
598.034909,4885.359217,8142.265362,-153.219100
598.035229,4737.318029,8216.285956,-383.047749
598.035550,4959.379811,7994.224174,0.000000
598.035870,4959.379811,7994.224174,0.000000
598.036191,5181.441594,7994.224174,-153.219100
598.036511,5181.441594,8216.285956,-459.657299
598.036831,4663.297435,7550.100608,-536.266849
598.037152,3997.112087,7328.038826,-153.219100
598.037472,4219.173869,8290.306550,-383.047749
598.037792,4441.235652,9326.594869,-153.219100
598.038113,4515.256246,10288.862594,-1455.581446
598.038433,4515.256246,10288.862594,-1149.143247
598.038754,4219.173869,9548.656652,-536.266849
598.039074,3330.926739,8734.430116,76.609550
598.039394,2738.761985,8808.450710,689.485948
598.039715,2886.803174,9326.594869,842.705048
598.040035,2294.638420,9400.615463,459.657299
598.040355,2442.679609,8882.471304,-229.828649
598.040676,2738.761985,8586.388927,-536.266849
598.040996,3108.864956,9104.533087,-153.219100
598.041317,2738.761985,9326.594869,459.657299
598.041637,2590.720797,8660.409521,536.266849
598.041957,2442.679609,8660.409521,0.000000
598.042278,2294.638420,9622.677246,-766.095498
598.042598,1850.514855,10807.006753,-919.314598
598.042918,2368.659014,11473.192101,-842.705048
598.043239,2072.576638,11769.274478,-919.314598
598.043559,1480.411884,11843.295072,-919.314598
598.043880,148.041188,10584.944971,-1378.971896
598.044200,-370.102971,10955.047942,-1991.848295
598.044520,-888.247130,11029.068536,-1225.752797
598.044841,-814.226536,11991.336260,459.657299
598.045161,-888.247130,11917.315666,995.924147
598.045481,-518.144159,11695.253884,1072.533697
598.045802,-740.205942,12361.439231,1378.971896
598.046122,-1702.473667,12435.459826,1685.410096
598.046443,-1998.556043,11547.212695,1378.971896
598.046763,-1702.473667,10140.821405,-153.219100
598.047083,-888.247130,9178.553681,-76.609550
598.047404,-1110.308913,9548.656652,306.438199
598.047724,-518.144159,9770.718434,995.924147
598.048044,-222.061783,10658.965565,306.438199
598.048365,740.205942,11399.171507,-1378.971896
598.048685,1110.308913,11399.171507,-2068.457845
598.049006,1480.411884,11103.089130,-1455.581446
598.049326,2516.700203,11029.068536,153.219100
598.049646,3108.864956,10881.027347,459.657299
598.049967,2294.638420,9918.759623,-995.924147
598.050287,1702.473667,9474.636058,-2145.067394
598.050607,1258.350101,9474.636058,-2221.676944
598.050928,1554.432478,9844.739029,-919.314598
598.051248,1702.473667,9992.780217,-536.266849
598.051569,1628.453072,10584.944971,-306.438199
598.051889,1332.370696,11177.109724,-306.438199
598.052209,518.144159,11325.150913,536.266849
598.052530,-222.061783,10807.006753,1149.143247
598.052850,-444.123565,9770.718434,919.314598
598.053171,-222.061783,9844.739029,1225.752797
598.053491,-222.061783,10362.883188,1072.533697
598.053811,-666.185348,11103.089130,689.485948
598.054132,-222.061783,11547.212695,536.266849
598.054452,740.205942,11917.315666,689.485948
598.054772,1036.288319,11769.274478,459.657299
598.055093,740.205942,11621.233289,229.828649
598.055413,962.267725,10955.047942,-383.047749
598.055734,1258.350101,10436.903782,-153.219100
598.056054,1628.453072,9326.594869,689.485948
598.056374,1554.432478,8586.388927,536.266849
598.056695,1554.432478,8512.368333,0.000000
598.057015,2146.597232,9326.594869,-383.047749
598.057335,2812.782580,10288.862594,-383.047749
598.057656,2960.823768,10362.883188,-536.266849
598.057976,3478.967927,10288.862594,-536.266849
598.058297,3478.967927,10066.800811,-612.876398
598.058617,2812.782580,9548.656652,-459.657299
598.058937,3182.885551,9326.594869,-842.705048
598.059258,2368.659014,9918.759623,-689.485948
598.059578,1628.453072,10510.924376,-919.314598
598.059898,1628.453072,11251.130318,-842.705048
598.060219,1332.370696,11769.274478,-1225.752797
598.060539,296.082377,11177.109724,-1915.238745
598.060860,-518.144159,9770.718434,-1225.752797
598.061180,-1184.329507,8882.471304,-536.266849
598.061500,-1480.411884,8216.285956,612.876398
598.061821,-1406.391290,9474.636058,1685.410096
598.062141,-444.123565,11695.253884,1838.629195
598.062461,814.226536,13767.830521,1378.971896
598.062782,296.082377,14508.036463,1225.752797
598.063102,666.185348,13767.830521,383.047749
598.063423,1258.350101,11547.212695,-306.438199
598.063743,1036.288319,9770.718434,-153.219100
598.064063,222.061783,9252.574275,306.438199
598.064384,-370.102971,9030.512492,-536.266849
598.064704,-1480.411884,9474.636058,-1762.019645
598.065024,-1924.535449,10214.842000,-2068.457845
598.065345,-888.247130,11473.192101,-1378.971896
598.065665,0.000000,12583.501014,-459.657299
598.065986,666.185348,13471.748144,-536.266849
598.066306,1110.308913,13545.768739,-612.876398
598.066626,666.185348,13693.809927,-383.047749
598.066947,1036.288319,13471.748144,0.000000
598.067267,1480.411884,11991.336260,0.000000
598.067587,1406.391290,9622.677246,-612.876398
598.067908,1480.411884,7846.182985,-536.266849
598.068228,1480.411884,7920.203579,459.657299
598.068549,296.082377,9326.594869,1455.581446
598.068869,-74.020594,10140.821405,1149.143247
598.069189,222.061783,10214.842000,306.438199
598.069510,592.164754,8882.471304,-459.657299
598.069830,888.247130,8956.491898,-536.266849
598.070150,1332.370696,10214.842000,229.828649
598.070471,740.205942,12805.562797,0.000000
598.070791,518.144159,13397.727550,-1149.143247
598.071112,1110.308913,13249.686362,-1991.848295
598.071432,1110.308913,12731.542202,-2451.505594
598.071752,0.000000,12657.521608,-1915.238745
598.072073,-148.041188,12287.418637,76.609550
598.072393,0.000000,11695.253884,459.657299
598.072713,74.020594,11473.192101,1838.629195
598.073034,-1480.411884,9474.636058,2374.896044
598.073354,-1332.370696,7920.203579,2145.067394
598.073675,-2220.617826,7698.141797,2221.676944
598.073995,-2442.679609,8216.285956,919.314598
598.074315,-148.041188,9030.512492,-612.876398
598.074636,2368.659014,11251.130318,-1455.581446
598.074956,3182.885551,13397.727550,-1302.362347
598.075277,3182.885551,13989.892304,-612.876398
598.075597,1776.494261,11843.295072,-842.705048
598.075917,592.164754,9178.553681,-1838.629195
598.076238,1332.370696,6291.750507,-229.828649
598.076558,3701.029710,7994.224174,2221.676944
598.076878,2072.576638,11547.212695,1302.362347
598.077199,1480.411884,13545.768739,-1762.019645
598.077519,2146.597232,12953.603985,-4749.792088
598.077840,1184.329507,9992.780217,-3447.429741
598.078160,-518.144159,7254.018232,-1072.533697
598.078480,-518.144159,6883.915261,459.657299
598.078801,-444.123565,9104.533087,-76.609550
598.079121,74.020594,12435.459826,1225.752797
598.079441,-962.267725,14730.098246,1225.752797
598.079762,-1036.288319,15914.427753,-536.266849
598.080082,-370.102971,14804.118840,-842.705048
598.080403,-1036.288319,13323.706956,383.047749
598.080723,-888.247130,10584.944971,1608.800546
598.081043,-518.144159,8068.244768,1378.971896
598.081364,-222.061783,8586.388927,536.266849
598.081684,-1406.391290,9918.759623,-306.438199
598.082004,-1332.370696,11029.068536,306.438199
598.082325,0.000000,10584.944971,459.657299
598.082645,2590.720797,9992.780217,1378.971896
598.082966,4589.276840,10436.903782,1838.629195
598.083286,3552.988522,12361.439231,0.000000
598.083606,2738.761985,11991.336260,-2068.457845
598.083927,3701.029710,11547.212695,-2987.772442
598.084247,2886.803174,9474.636058,-3447.429741
598.084567,2072.576638,6069.688724,-2298.286494
598.084888,2960.823768,6587.832884,-766.095498
598.085208,3108.864956,11843.295072,536.266849
598.085529,370.102971,14952.160028,383.047749
598.085849,1110.308913,13989.892304,-1455.581446
598.086168,1332.370696,10066.800811,-2374.896044
598.086488,-814.226536,8438.347739,0.000000
598.086809,-2146.597232,9622.677246,2374.896044
598.087129,-2220.617826,10881.027347,689.485948
598.087450,-1110.308913,12805.562797,-1762.019645
598.087770,-592.164754,13989.892304,-1378.971896
598.088091,-1406.391290,13249.686362,-459.657299
598.088411,-2368.659014,11843.295072,689.485948
598.088731,-2294.638420,11621.233289,3294.210641
598.089052,-1406.391290,11843.295072,3370.820191
598.089372,-370.102971,10510.924376,2757.943793
598.089693,-370.102971,9474.636058,1072.533697
598.090013,444.123565,9844.739029,0.000000
598.090334,592.164754,9696.697840,459.657299
598.090654,1110.308913,8438.347739,306.438199
598.090975,2368.659014,7772.162391,-689.485948
598.091295,3849.070898,8660.409521,0.000000
598.091616,3701.029710,10955.047942,-76.609550
598.091936,3701.029710,11843.295072,-459.657299
598.092256,3923.091493,11325.150913,-1302.362347
598.092577,4219.173869,10140.821405,-2298.286494
598.092897,2442.679609,7476.080014,-2834.553343
598.093218,1702.473667,5995.668130,-2221.676944
598.093538,2442.679609,8586.388927,-383.047749
598.093859,1184.329507,12065.356855,-459.657299
598.094179,-666.185348,12065.356855,-2528.115143
598.094500,666.185348,10658.965565,-3907.087040
598.094820,444.123565,9844.739029,-995.924147
598.095141,-148.041188,11547.212695,3140.991542
598.095461,-1036.288319,12879.583391,4596.572988
598.095782,-2072.576638,13027.624579,1608.800546
598.096102,-3997.112087,12213.398043,-229.828649
598.096422,-2960.823768,11103.089130,0.000000
598.096743,-148.041188,9696.697840,842.705048
598.097063,-444.123565,10140.821405,1915.238745
598.097384,-1776.494261,11547.212695,2145.067394
598.097704,-1480.411884,13841.851115,-153.219100
598.098025,-1036.288319,13249.686362,-612.876398
598.098345,74.020594,11325.150913,536.266849
598.098666,3478.967927,9622.677246,1838.629195
598.098986,1702.473667,7624.121203,612.876398
598.099307,1924.535449,7772.162391,-1072.533697
598.099627,2812.782580,9400.615463,-1838.629195
598.099947,3404.947333,10436.903782,-2451.505594
598.100268,5033.400406,10955.047942,-1608.800546
598.100588,5255.462188,10732.986159,-995.924147
598.100909,2664.741391,8660.409521,-3524.039291
598.101229,3256.906145,8808.450710,-2834.553343
598.101550,4737.318029,11991.336260,-689.485948
598.101870,1776.494261,12139.377449,-459.657299
598.102191,888.247130,11843.295072,76.609550
598.102511,1184.329507,11843.295072,-2374.896044
598.102832,-2368.659014,12953.603985,-3217.601092
598.103152,-3775.050304,11251.130318,-153.219100
598.103473,-1332.370696,10658.965565,1838.629195
598.103793,-2368.659014,11251.130318,2221.676944
598.104113,-3997.112087,11991.336260,2298.286494
598.104434,-3849.070898,13915.871710,1378.971896
598.104754,-4145.153275,15248.242405,459.657299
598.105075,-2738.761985,13989.892304,3370.820191
598.105395,-814.226536,11769.274478,4903.011187
598.105716,-1998.556043,8142.265362,2298.286494
598.106036,-1110.308913,10362.883188,1762.019645
598.106357,-814.226536,12065.356855,1915.238745
598.106677,-1184.329507,11325.150913,-1762.019645
598.106998,3404.947333,8734.430116,-2298.286494
598.107318,4071.132681,7772.162391,-1532.190996
598.107639,4589.276840,9104.533087,536.266849
598.107959,4441.235652,10658.965565,2221.676944
598.108279,4071.132681,11103.089130,0.000000
598.108600,5033.400406,8882.471304,-2911.162892
598.108920,7328.038826,7846.182985,-2451.505594
598.109241,4959.379811,5995.668130,-2068.457845
598.109561,4219.173869,7105.977043,-1915.238745
598.109882,4071.132681,8808.450710,-1225.752797
598.110202,3256.906145,9400.615463,-2145.067394
598.110523,2664.741391,8512.368333,-2604.724693
598.110843,2812.782580,9400.615463,-2298.286494
598.111164,1998.556043,11843.295072,-383.047749
598.111484,-592.164754,11769.274478,1072.533697
598.111804,-296.082377,9622.677246,2145.067394
598.112125,-296.082377,7328.038826,1915.238745
598.112445,0.000000,8068.244768,2757.943793
598.112766,-1406.391290,10658.965565,1915.238745
598.113086,-2368.659014,13101.645173,459.657299
598.113407,-1110.308913,14730.098246,0.000000
598.113727,518.144159,14285.974681,536.266849
598.114048,-1554.432478,11325.150913,919.314598
598.114368,-222.061783,9030.512492,0.000000
598.114689,-666.185348,7698.141797,0.000000
598.115009,-2368.659014,10362.883188,0.000000
598.115330,296.082377,10288.862594,0.000000
598.115650,444.123565,9400.615463,0.000000
598.115970,1554.432478,9474.636058,-995.924147
598.116291,4071.132681,11843.295072,-306.438199
598.116611,2812.782580,12509.480420,-2145.067394
598.116932,1406.391290,10214.842000,-5209.449386
598.117252,4515.256246,9844.739029,-4213.525239
598.117573,2886.803174,8808.450710,-2221.676944
598.117893,1702.473667,9326.594869,0.000000
598.118214,3478.967927,11473.192101,919.314598
598.118534,1776.494261,12879.583391,-2528.115143
598.118855,370.102971,14063.912898,-4443.353888
598.119175,3182.885551,14656.077652,-3064.381992
598.119495,-222.061783,13841.851115,-1762.019645
598.119816,-296.082377,11695.253884,612.876398
598.120136,-1184.329507,9474.636058,1991.848295
598.120457,-3701.029710,9030.512492,1455.581446
598.120777,-3330.926739,11177.109724,1302.362347
598.121098,-2442.679609,13471.748144,842.705048
598.121418,-3034.844362,12731.542202,153.219100
598.121739,0.000000,13027.624579,1838.629195
598.122059,740.205942,14137.933492,3677.258390
598.122380,-814.226536,11547.212695,2298.286494
598.122700,-222.061783,8808.450710,536.266849
598.123021,1036.288319,9178.553681,306.438199
598.123341,2220.617826,12657.521608,0.000000
598.123661,2442.679609,11103.089130,-536.266849
598.123982,5551.544565,10881.027347,-3217.601092
598.124302,6513.812290,7920.203579,-2451.505594
598.124623,2590.720797,7476.080014,536.266849
598.124943,5329.482782,8882.471304,459.657299
598.125264,2294.638420,8290.306550,-1838.629195
598.125584,1998.556043,7994.224174,-2298.286494
598.125905,4959.379811,7994.224174,-229.828649
598.126225,3330.926739,7920.203579,459.657299
598.126546,1998.556043,8660.409521,-842.705048
598.126866,3552.988522,11991.336260,-689.485948
598.127186,518.144159,11991.336260,-1072.533697
598.127507,444.123565,11251.130318,-1225.752797
598.127827,2516.700203,8512.368333,689.485948
598.128148,1406.391290,6809.894666,-306.438199
598.128468,-1406.391290,9030.512492,995.924147
598.128789,-2738.761985,10732.986159,1149.143247
598.129109,-3997.112087,10362.883188,-689.485948
598.129430,-1628.453072,10955.047942,766.095498
598.129750,-148.041188,9770.718434,2298.286494
598.130071,-3701.029710,10584.944971,1302.362347
598.130391,-2960.823768,11991.336260,0.000000
598.130712,-666.185348,14211.954086,76.609550
598.131032,-148.041188,14137.933492,-919.314598
598.131352,2368.659014,11695.253884,0.000000
598.131673,2738.761985,10732.986159,1685.410096
598.131993,0.000000,9474.636058,766.095498
598.132314,-1332.370696,8660.409521,-229.828649
598.132634,1702.473667,9178.553681,383.047749
598.132955,3182.885551,10658.965565,766.095498
598.133275,2368.659014,12287.418637,306.438199
598.133596,2960.823768,10881.027347,-1532.190996
598.133916,1702.473667,9622.677246,-1915.238745
598.134237,296.082377,7476.080014,-689.485948
598.134557,666.185348,7994.224174,842.705048
598.134877,3182.885551,9178.553681,76.609550
598.135198,2294.638420,10584.944971,-2221.676944
598.135518,1554.432478,11769.274478,-2451.505594
598.135839,2960.823768,12583.501014,-2451.505594
598.136159,2664.741391,12287.418637,-1532.190996
598.136480,2294.638420,11103.089130,306.438199
598.136800,2368.659014,11991.336260,842.705048
598.137121,3108.864956,11177.109724,919.314598
598.137441,962.267725,9474.636058,0.000000
598.137762,2072.576638,9178.553681,-842.705048
598.138082,3627.009116,8216.285956,-306.438199
598.138403,666.185348,6513.812290,612.876398
598.138723,1258.350101,5847.626942,1915.238745
598.139043,4145.153275,8882.471304,2528.115143
598.139364,2146.597232,13101.645173,2374.896044
598.139684,1702.473667,11991.336260,-229.828649
598.140005,5699.585753,10510.924376,-2221.676944
598.140325,6291.750507,10362.883188,-1991.848295
598.140646,4663.297435,9770.718434,-229.828649
598.140966,5625.565159,10066.800811,0.000000
598.141287,4663.297435,8956.491898,-1608.800546
598.141607,3256.906145,8290.306550,-2604.724693
598.141928,5995.668130,7550.100608,-1072.533697
598.142248,4589.276840,7994.224174,-1072.533697
598.142568,4737.318029,6735.874072,536.266849
598.142889,7476.080014,6513.812290,3600.648841
598.143209,7920.203579,4663.297435,3600.648841
598.143530,5921.647536,1110.308913,2068.457845
598.143850,5181.441594,74.020594,-1455.581446
598.144171,6217.729913,4367.215058,-3830.477490
598.144491,7105.977043,8364.327145,-3447.429741
598.144812,9474.636058,10732.986159,-2298.286494
598.145132,11917.315666,8734.430116,-3140.991542
598.145453,9400.615463,7179.997637,-3294.210641
598.145773,6883.915261,9178.553681,-1685.410096
598.146094,4145.153275,10214.842000,-1685.410096
598.146414,4589.276840,10436.903782,-2298.286494
598.146734,6735.874072,8808.450710,-1532.190996
598.147055,5477.523971,7105.977043,153.219100
598.147375,3256.906145,8660.409521,2451.505594
598.147696,1332.370696,10436.903782,3677.258390
598.148016,74.020594,9622.677246,2374.896044
598.148337,1554.432478,5847.626942,-306.438199
598.148657,1702.473667,2368.659014,689.485948
598.148978,3552.988522,5033.400406,2604.724693
598.149298,3256.906145,9178.553681,5286.058936
598.149619,1258.350101,13027.624579,2298.286494
598.149939,6439.791695,12953.603985,-1455.581446
598.150260,4811.338623,10510.924376,-2528.115143
598.150580,5773.606348,7402.059420,-1915.238745
598.150900,8586.388927,8808.450710,-306.438199
598.151221,5921.647536,10140.821405,-842.705048
598.151541,4663.297435,8882.471304,-3064.381992
598.151862,7179.997637,6883.915261,-3370.820191
598.152182,6587.832884,5847.626942,-2451.505594
598.152503,6143.709319,8882.471304,0.000000
598.152823,4737.318029,10140.821405,2068.457845
598.153144,4515.256246,9326.594869,689.485948
598.153464,6587.832884,7402.059420,1762.019645
598.153785,6069.688724,5847.626942,1762.019645
598.154105,3552.988522,7402.059420,459.657299
598.154425,2368.659014,8586.388927,-995.924147
598.154746,2516.700203,9326.594869,-1302.362347
598.155066,2220.617826,7920.203579,-1532.190996
598.155387,4071.132681,6143.709319,-153.219100
598.155707,4811.338623,8660.409521,2145.067394
598.156028,4441.235652,13027.624579,2451.505594
598.156348,2886.803174,14285.974681,-76.609550
598.156669,2590.720797,10658.965565,-2604.724693
598.156989,3701.029710,5477.523971,-3753.867940
598.157310,6513.812290,4441.235652,1225.752797
598.157630,5255.462188,5403.503377,4596.572988
598.157951,2368.659014,6809.894666,1455.581446
598.158271,3552.988522,8142.265362,-1302.362347
598.158591,4515.256246,9696.697840,-1225.752797
598.158912,3923.091493,8438.347739,459.657299
598.159232,6217.729913,7105.977043,2068.457845
598.159553,8438.347739,6513.812290,2221.676944
598.159873,4885.359217,4737.318029,919.314598
598.160194,5107.421000,3552.988522,-1225.752797
598.160514,7105.977043,5477.523971,-2681.334243
598.160835,5773.606348,6069.688724,-3294.210641
598.161155,7328.038826,9400.615463,-2374.896044
598.161476,9918.759623,10140.821405,-1762.019645
598.161796,6957.935855,10510.924376,-2987.772442
598.162116,6735.874072,10807.006753,-1532.190996
598.162437,6439.791695,10214.842000,459.657299
598.162757,4293.194464,7772.162391,383.047749
598.163078,2368.659014,5329.482782,536.266849
598.163398,3923.091493,7550.100608,-995.924147
598.163719,3034.844362,8512.368333,-919.314598
598.164039,1702.473667,8512.368333,2528.115143
598.164360,2886.803174,7254.018232,3600.648841
598.164680,3997.112087,6513.812290,2145.067394
598.165001,3182.885551,5847.626942,1838.629195
598.165321,4071.132681,7624.121203,306.438199
598.165642,4515.256246,10881.027347,-766.095498
598.165962,4737.318029,12731.542202,-689.485948
598.166282,5995.668130,11843.295072,-1149.143247
598.166603,7105.977043,10436.903782,-1455.581446
598.166923,7402.059420,9696.697840,-612.876398
598.167244,2220.617826,8586.388927,-995.924147
598.167564,1702.473667,6439.791695,-1838.629195
598.167885,5403.503377,8586.388927,0.000000
598.168205,4441.235652,8068.244768,2604.724693
598.168526,3775.050304,7031.956449,1608.800546
598.168846,9104.533087,7402.059420,-536.266849
598.169167,4885.359217,6143.709319,-2221.676944
598.169487,3923.091493,5181.441594,-1302.362347
598.169807,8586.388927,6439.791695,612.876398
598.170128,7772.162391,7550.100608,76.609550
598.170448,6809.894666,9104.533087,-459.657299
598.170769,9030.512492,9696.697840,-612.876398
598.171089,4737.318029,8142.265362,-3140.991542
598.171410,4589.276840,8512.368333,-1532.190996
598.171730,5773.606348,7698.141797,919.314598
598.172051,3404.947333,7994.224174,-1072.533697
598.172371,3404.947333,6439.791695,-766.095498
598.172692,5181.441594,7476.080014,1302.362347
598.173012,3552.988522,9400.615463,995.924147
598.173333,2442.679609,10140.821405,1762.019645
598.173653,3552.988522,9696.697840,995.924147
598.173973,3256.906145,7994.224174,-689.485948
598.174294,3923.091493,6809.894666,919.314598
598.174614,3627.009116,6883.915261,1915.238745
598.174935,3775.050304,7698.141797,153.219100
598.175255,4293.194464,9178.553681,76.609550
598.175576,4959.379811,10584.944971,76.609550
598.175896,5551.544565,9178.553681,-1685.410096
598.176217,8586.388927,6883.915261,-229.828649
598.176537,7772.162391,4737.318029,1302.362347
598.176858,5773.606348,4737.318029,1378.971896
598.177178,7476.080014,6587.832884,459.657299
598.177498,6957.935855,7772.162391,-229.828649
598.177819,5403.503377,8438.347739,-1302.362347
598.178139,9696.697840,8660.409521,-383.047749
598.178460,9548.656652,7994.224174,-995.924147
598.178780,4071.132681,5181.441594,-4673.182538
598.179101,4737.318029,5033.400406,-3753.867940
598.179421,6069.688724,8808.450710,229.828649
598.179742,3923.091493,8290.306550,1915.238745
598.180062,5329.482782,9548.656652,1838.629195
598.180383,5995.668130,10288.862594,0.000000
598.180703,2590.720797,10732.986159,-306.438199
598.181024,3849.070898,10066.800811,2987.772442
598.181344,5699.585753,7328.038826,2681.334243
598.181664,5847.626942,3701.029710,2604.724693
598.181985,4811.338623,3404.947333,3140.991542
598.182305,3775.050304,6069.688724,-689.485948
598.182626,1406.391290,8068.244768,-3447.429741
598.182946,3849.070898,9548.656652,-2681.334243
598.183267,7105.977043,7920.203579,-995.924147
598.183587,5773.606348,6143.709319,383.047749
598.183908,5033.400406,7402.059420,1532.190996
598.184228,3404.947333,12065.356855,-1532.190996
598.184549,2368.659014,13693.809927,-3064.381992
598.184869,4219.173869,11843.295072,-2451.505594
598.185189,6513.812290,9326.594869,-1455.581446
598.185510,6735.874072,9474.636058,689.485948
598.185830,7772.162391,9770.718434,2374.896044
598.186151,2516.700203,6957.935855,153.219100
598.186471,1702.473667,4293.194464,-536.266849
598.186792,4811.338623,4663.297435,1608.800546
598.187112,2146.597232,4663.297435,2757.943793
598.187433,3627.009116,5625.565159,1685.410096
598.187753,7698.141797,7698.141797,229.828649
598.188074,4367.215058,9030.512492,-2757.943793
598.188394,2664.741391,7031.956449,-4443.353888
598.188715,7179.997637,8512.368333,-3370.820191
598.189035,7550.100608,10510.924376,-2145.067394
598.189356,4367.215058,11769.274478,-1608.800546
598.189676,6883.915261,11251.130318,-1608.800546
598.189997,7772.162391,11177.109724,-2834.553343
598.190317,6883.915261,11177.109724,0.000000
598.190638,6513.812290,9992.780217,2681.334243
598.190958,5921.647536,7402.059420,612.876398
598.191279,5181.441594,5107.421000,1455.581446
598.191599,2812.782580,3627.009116,3600.648841
598.191919,1998.556043,3330.926739,2374.896044
598.192240,4737.318029,5625.565159,1991.848295
598.192560,4959.379811,8808.450710,1762.019645
598.192881,4219.173869,8438.347739,-459.657299
598.193201,6809.894666,6957.935855,-1762.019645
598.193522,5477.523971,8068.244768,-1685.410096
598.193842,3701.029710,10066.800811,-306.438199
598.194163,4737.318029,12065.356855,689.485948
598.194483,6883.915261,12509.480420,-1915.238745
598.194804,6661.853478,11399.171507,-4213.525239
598.195124,6661.853478,9474.636058,-2451.505594
598.195445,6809.894666,9178.553681,-919.314598
598.195765,4737.318029,7402.059420,612.876398
598.196086,5033.400406,4737.318029,2987.772442
598.196406,5773.606348,4367.215058,3983.696590
598.196727,5403.503377,4737.318029,4060.306139
598.197047,3108.864956,4811.338623,3753.867940
598.197368,4071.132681,4663.297435,1149.143247
598.197688,5773.606348,3552.988522,-459.657299
598.198008,5773.606348,4515.256246,-1762.019645
598.198329,5921.647536,6513.812290,-2451.505594
598.198649,6513.812290,9696.697840,-3294.210641
598.198970,4959.379811,11991.336260,-3370.820191
598.199290,4219.173869,10807.006753,-2604.724693
598.199611,8290.306550,11621.233289,-1378.971896
598.199931,6513.812290,10732.986159,-1225.752797
598.200252,4293.194464,11991.336260,-919.314598
598.200572,4737.318029,9918.759623,1225.752797
598.200893,3923.091493,6809.894666,1225.752797
598.201213,2664.741391,2812.782580,2451.505594
598.201534,1850.514855,518.144159,2145.067394
598.201854,3256.906145,3034.844362,689.485948
598.202175,3404.947333,6735.874072,1225.752797
598.202495,3478.967927,8586.388927,2298.286494
598.202816,4441.235652,6957.935855,306.438199
598.203136,5625.565159,7179.997637,-842.705048
598.203457,4589.276840,8586.388927,-766.095498
598.203777,4811.338623,12509.480420,-1608.800546
598.204097,5033.400406,13397.727550,-3907.087040
598.204418,6217.729913,12731.542202,-4673.182538
598.204738,6439.791695,11843.295072,-3294.210641
598.205059,7698.141797,10510.924376,536.266849
598.205379,4663.297435,8956.491898,766.095498
598.205700,2220.617826,5773.606348,229.828649
598.206020,3775.050304,4811.338623,383.047749
598.206341,3923.091493,4885.359217,0.000000
598.206661,2886.803174,3552.988522,0.000000
598.206982,7254.018232,6365.771101,-306.438199
598.207302,6735.874072,9178.553681,-1378.971896
598.207623,2516.700203,9178.553681,-2528.115143
598.207943,5995.668130,9178.553681,-919.314598
598.208264,5699.585753,9844.739029,0.000000
598.208584,3552.988522,10214.842000,-459.657299
598.208905,5403.503377,11917.315666,689.485948
598.209225,6439.791695,10881.027347,-2221.676944
598.209546,3997.112087,7328.038826,-4749.792088
598.209866,7179.997637,6957.935855,-2145.067394
598.210186,7994.224174,8734.430116,-919.314598
598.210507,4515.256246,8660.409521,-612.876398
598.210827,4367.215058,7179.997637,306.438199
598.211148,6365.771101,6439.791695,-1532.190996
598.211468,5551.544565,5847.626942,0.000000
598.211789,4811.338623,6217.729913,2374.896044
598.212109,4737.318029,6661.853478,766.095498
598.212430,4589.276840,7994.224174,-1072.533697
598.212750,5107.421000,9918.759623,383.047749
598.213071,5551.544565,9252.574275,-536.266849
598.213391,4959.379811,7105.977043,-1225.752797
598.213712,4885.359217,8290.306550,-919.314598
598.214032,4515.256246,8660.409521,-1608.800546
598.214353,4737.318029,8364.327145,-1762.019645
598.214673,7698.141797,7994.224174,0.000000
598.214994,4885.359217,6661.853478,842.705048
598.215314,3775.050304,6883.915261,-306.438199
598.215635,4959.379811,9918.759623,-612.876398
598.215955,2146.597232,10362.883188,-1915.238745
598.216276,2516.700203,8142.265362,-2068.457845
598.216596,8882.471304,7179.997637,229.828649
598.216916,4959.379811,7105.977043,-76.609550
598.217237,888.247130,7105.977043,-612.876398
598.217557,4441.235652,10732.986159,766.095498
598.217878,1924.535449,9844.739029,459.657299
598.218198,2960.823768,8290.306550,1532.190996
598.218519,8364.327145,8438.347739,3600.648841
598.218839,6513.812290,7772.162391,1608.800546
598.219160,2590.720797,8216.285956,1149.143247
598.219480,4589.276840,6957.935855,2757.943793
598.219801,4145.153275,6513.812290,0.000000
598.220121,6365.771101,6439.791695,76.609550
598.220442,6217.729913,6809.894666,0.000000
598.220762,5033.400406,8142.265362,-3294.210641
598.221083,5181.441594,8808.450710,-3983.696590
598.221403,3997.112087,7624.121203,-1532.190996
598.221724,5847.626942,6957.935855,-919.314598
598.222044,6957.935855,7476.080014,0.000000
598.222365,4145.153275,9918.759623,919.314598
598.222685,3478.967927,10807.006753,612.876398
598.223005,5773.606348,11251.130318,1225.752797
598.223326,4589.276840,8068.244768,1149.143247
598.223646,4441.235652,4885.359217,919.314598
598.223967,5403.503377,5181.441594,1915.238745
598.224287,5033.400406,5477.523971,536.266849
598.224608,2886.803174,4737.318029,-1532.190996
598.224928,3404.947333,5329.482782,-3140.991542
598.225249,4737.318029,9992.780217,-2451.505594
598.225569,3997.112087,11473.192101,536.266849
598.225890,3552.988522,10807.006753,1302.362347
598.226210,8734.430116,9844.739029,229.828649
598.226531,3997.112087,8512.368333,-842.705048
598.226851,148.041188,8438.347739,-1532.190996
598.227172,4737.318029,10066.800811,-1149.143247
598.227492,5847.626942,9622.677246,-383.047749
598.227813,6365.771101,8290.306550,76.609550
598.228133,8290.306550,7550.100608,306.438199
598.228454,5181.441594,6661.853478,-995.924147
598.228774,2368.659014,7994.224174,306.438199
598.229094,3701.029710,8512.368333,4290.134789
598.229415,5699.585753,6809.894666,2911.162892
598.229735,7550.100608,6291.750507,1072.533697
598.230056,7624.121203,7920.203579,-1455.581446
598.230376,3478.967927,10658.965565,-5515.887586
598.230697,4145.153275,9992.780217,-5439.278036
598.231017,6957.935855,8290.306550,-1838.629195
598.231338,7772.162391,6291.750507,153.219100
598.231658,6957.935855,8956.491898,995.924147
598.231979,4071.132681,12509.480420,-383.047749
598.232299,1776.494261,13175.665768,-1072.533697
598.232620,3849.070898,11177.109724,0.000000
598.232940,5107.421000,5995.668130,1915.238745
598.233261,7328.038826,4515.256246,1532.190996
598.233581,5699.585753,5699.585753,536.266849
598.233902,2664.741391,7031.956449,-612.876398
598.234222,1702.473667,5181.441594,-1149.143247
598.234543,5403.503377,6439.791695,-995.924147
598.234863,7550.100608,9400.615463,383.047749
598.235183,6143.709319,10362.883188,1072.533697
598.235504,7105.977043,12213.398043,842.705048
598.235824,7846.182985,11251.130318,-306.438199
598.236145,3478.967927,7328.038826,-2068.457845
598.236465,4367.215058,4293.194464,-1838.629195
598.236786,6143.709319,6217.729913,-689.485948
598.237106,3552.988522,7476.080014,-306.438199
598.237427,4959.379811,8586.388927,842.705048
598.237747,6957.935855,10362.883188,766.095498
598.238068,4515.256246,8068.244768,-306.438199
598.238388,2516.700203,6069.688724,536.266849
598.238709,4293.194464,5033.400406,1762.019645
598.239029,4959.379811,6883.915261,2604.724693
598.239350,5255.462188,6809.894666,2834.553343
598.239670,3478.967927,6365.771101,-2374.896044
598.239991,4589.276840,8068.244768,-4596.572988
598.240311,4885.359217,10881.027347,-1915.238745
598.240632,4737.318029,10732.986159,459.657299
598.240952,6587.832884,7772.162391,536.266849
598.241273,6513.812290,6365.771101,995.924147
598.241593,4959.379811,7624.121203,1378.971896
598.241913,4441.235652,9548.656652,1991.848295
598.242234,4515.256246,9992.780217,995.924147
598.242554,5181.441594,8586.388927,-995.924147
598.242875,7105.977043,8956.491898,-536.266849
598.243195,6513.812290,7994.224174,459.657299
598.243516,2664.741391,7476.080014,459.657299
598.243836,3923.091493,8438.347739,612.876398
598.244157,3108.864956,9252.574275,76.609550
598.244477,2886.803174,8216.285956,1532.190996
598.244798,4589.276840,8512.368333,3217.601092
598.245118,5773.606348,9548.656652,2068.457845
598.245439,2220.617826,8956.491898,1302.362347
598.245759,4885.359217,7994.224174,1149.143247
598.246080,5625.565159,7105.977043,-766.095498
598.246400,3330.926739,5773.606348,-1838.629195
598.246721,6587.832884,5625.565159,-536.266849
598.247041,7328.038826,8438.347739,229.828649
598.247362,5773.606348,10214.842000,-766.095498
598.247682,6365.771101,11325.150913,-1149.143247
598.248002,5551.544565,9178.553681,-2068.457845
598.248323,5181.441594,8586.388927,-3447.429741
598.248643,6069.688724,8290.306550,995.924147
598.248964,4441.235652,7031.956449,1762.019645
598.249284,4811.338623,7254.018232,0.000000
598.249605,2368.659014,5329.482782,-1838.629195
598.249925,3330.926739,5551.544565,-2298.286494
598.250246,6957.935855,7772.162391,2068.457845
598.250566,5625.565159,8290.306550,3753.867940
598.250887,5033.400406,6883.915261,1225.752797
598.251207,7328.038826,4885.359217,-1915.238745
598.251528,4959.379811,7994.224174,-2911.162892
598.251848,4885.359217,9548.656652,-1532.190996
598.252169,5847.626942,8808.450710,-1762.019645
598.252489,8438.347739,7550.100608,-3217.601092
598.252810,7105.977043,7476.080014,-3217.601092
598.253130,8364.327145,9548.656652,76.609550
598.253451,4293.194464,10362.883188,0.000000
598.253771,2368.659014,7550.100608,76.609550
598.254091,6365.771101,7846.182985,2834.553343
598.254412,7624.121203,7402.059420,2757.943793
598.254732,3478.967927,4811.338623,1149.143247
598.255053,6587.832884,4441.235652,-383.047749
598.255373,4145.153275,6217.729913,-3140.991542
598.255694,3256.906145,8956.491898,-3524.039291
598.256014,6735.874072,9474.636058,-919.314598
598.256335,8142.265362,9770.718434,-536.266849
598.256655,8290.306550,10584.944971,-459.657299
598.256976,6661.853478,12361.439231,612.876398
598.257296,3256.906145,10658.965565,-1302.362347
598.257617,3775.050304,7624.121203,-1685.410096
598.257937,5329.482782,10140.821405,2604.724693
598.258258,4367.215058,10510.924376,1302.362347
598.258578,4219.173869,7994.224174,153.219100
598.258899,5625.565159,5477.523971,76.609550
598.259219,4219.173869,6883.915261,153.219100
598.259540,2516.700203,8142.265362,1991.848295
598.259860,3775.050304,6957.935855,612.876398
598.260180,6513.812290,8142.265362,306.438199
598.260501,5847.626942,8142.265362,2834.553343
598.260821,4441.235652,9178.553681,2757.943793
598.261142,4441.235652,8586.388927,-1225.752797
598.261462,3552.988522,8808.450710,-3447.429741
598.261783,3256.906145,9844.739029,-1608.800546
598.262103,6069.688724,8290.306550,689.485948
598.262424,6957.935855,7031.956449,1838.629195
598.262744,3997.112087,6143.709319,459.657299
598.263065,2368.659014,7105.977043,-1685.410096
598.263385,3552.988522,8216.285956,-1225.752797
598.263706,4367.215058,7698.141797,-306.438199
598.264026,6143.709319,7105.977043,153.219100
598.264347,6513.812290,5921.647536,1302.362347
598.264667,5033.400406,6217.729913,76.609550
598.264988,2886.803174,7179.997637,153.219100
598.265308,2590.720797,8734.430116,-995.924147
598.265629,4589.276840,8586.388927,-1302.362347
598.265949,7105.977043,8068.244768,-153.219100
598.266270,6957.935855,7105.977043,689.485948
598.266590,5699.585753,7179.997637,919.314598
598.266910,5107.421000,5995.668130,229.828649
598.267231,4145.153275,5551.544565,-229.828649
598.267551,5921.647536,7920.203579,-306.438199
598.267872,4959.379811,8512.368333,766.095498
598.268192,6291.750507,7179.997637,153.219100
598.268513,8512.368333,6587.832884,-229.828649
598.268833,4885.359217,8142.265362,-689.485948
598.269154,1924.535449,7402.059420,-1915.238745
598.269474,4589.276840,7994.224174,-1532.190996
598.269795,5921.647536,9770.718434,-229.828649
598.270115,5255.462188,11325.150913,612.876398
598.270436,5255.462188,12435.459826,-306.438199
598.270756,5107.421000,12805.562797,-2145.067394
598.271077,2072.576638,9696.697840,-612.876398
598.271397,4589.276840,8364.327145,3370.820191
598.271718,5403.503377,7105.977043,3677.258390
598.272038,2960.823768,7698.141797,1302.362347
598.272359,1702.473667,7698.141797,76.609550
598.272679,3627.009116,9104.533087,-1608.800546
598.272999,4219.173869,10807.006753,-919.314598
598.273320,5477.523971,9178.553681,536.266849
598.273640,6365.771101,7031.956449,306.438199
598.273961,5699.585753,6069.688724,229.828649
598.274281,4441.235652,7772.162391,0.000000
598.274602,4811.338623,10510.924376,0.000000
598.274922,6809.894666,10214.842000,-1532.190996
598.275243,8586.388927,9696.697840,-1302.362347
598.275563,8734.430116,8512.368333,0.000000
598.275884,7550.100608,7772.162391,536.266849
598.276204,7105.977043,5773.606348,536.266849
598.276525,4737.318029,3627.009116,-1532.190996
598.276845,4071.132681,2886.803174,-2987.772442
598.277166,5107.421000,5921.647536,-2451.505594
598.277486,6291.750507,8364.327145,-995.924147
598.277807,5551.544565,8882.471304,-766.095498
598.278127,7994.224174,10140.821405,-1991.848295
598.278448,3701.029710,8142.265362,-2987.772442
598.278768,814.226536,6809.894666,-2374.896044
598.279088,4515.256246,7254.018232,919.314598
598.279409,5477.523971,8734.430116,2451.505594
598.279729,3849.070898,9400.615463,459.657299
598.280050,6217.729913,9992.780217,-1685.410096
598.280370,3256.906145,9104.533087,-2681.334243
598.280691,1258.350101,8808.450710,-1838.629195
598.281011,3256.906145,6143.709319,1685.410096
598.281332,4959.379811,6291.750507,1072.533697
598.281652,4515.256246,7254.018232,536.266849
598.281973,2368.659014,7698.141797,-306.438199
598.282293,2368.659014,9992.780217,-2528.115143
598.282614,5551.544565,10955.047942,-1225.752797
598.282934,7179.997637,10288.862594,2068.457845
598.283255,7328.038826,8586.388927,1608.800546
598.283575,6069.688724,6883.915261,-919.314598
598.283896,3923.091493,5995.668130,-1149.143247
598.284216,4885.359217,8882.471304,-306.438199
598.284537,7476.080014,9992.780217,1532.190996
598.284857,6661.853478,8660.409521,-383.047749
598.285177,7254.018232,8216.285956,-1991.848295
598.285498,7920.203579,9178.553681,153.219100
598.285818,4589.276840,8216.285956,1455.581446
598.286139,3627.009116,4737.318029,383.047749
598.286459,5329.482782,4737.318029,-919.314598
598.286780,5033.400406,7920.203579,-2681.334243
598.287100,3034.844362,8216.285956,-1991.848295
598.287421,6809.894666,9770.718434,-229.828649
598.287741,8586.388927,11991.336260,842.705048
598.288062,3256.906145,11917.315666,-689.485948
598.288382,3256.906145,7920.203579,-2068.457845
598.288703,4737.318029,5773.606348,-995.924147
598.289023,4367.215058,6069.688724,2374.896044
598.289344,4663.297435,8364.327145,4213.525239
598.289664,2294.638420,7994.224174,919.314598
598.289985,4219.173869,8808.450710,-3140.991542
598.290305,4589.276840,10066.800811,-612.876398
598.290626,3923.091493,7624.121203,-229.828649
598.290946,5995.668130,4293.194464,153.219100
598.291267,4145.153275,4811.338623,689.485948
598.291587,2664.741391,7624.121203,-306.438199
598.291908,3701.029710,9844.739029,0.000000
598.292228,4811.338623,9844.739029,612.876398
598.292549,6365.771101,10140.821405,-689.485948
598.292869,4145.153275,9400.615463,-612.876398
598.293190,3923.091493,6883.915261,-995.924147
598.293510,4811.338623,6365.771101,-2068.457845
598.293831,4737.318029,6957.935855,-995.924147
598.294151,4885.359217,7772.162391,-76.609550
598.294472,5033.400406,8216.285956,0.000000
598.294792,4663.297435,10288.862594,919.314598
598.295113,5551.544565,10066.800811,1762.019645
598.295433,4145.153275,5847.626942,1225.752797
598.295754,5995.668130,5625.565159,-306.438199
598.296074,5921.647536,7105.977043,0.000000
598.296395,2442.679609,7698.141797,-612.876398
598.296715,5625.565159,8142.265362,-1685.410096
598.297036,8364.327145,8882.471304,-612.876398
598.297357,4441.235652,9992.780217,536.266849
598.297677,5255.462188,9474.636058,1532.190996
598.297998,5181.441594,8956.491898,995.924147
598.298318,4959.379811,7624.121203,-919.314598
598.298639,5403.503377,5625.565159,612.876398
598.298959,7105.977043,6587.832884,612.876398
598.299280,4589.276840,7254.018232,-1838.629195
598.299600,3701.029710,8734.430116,-383.047749
598.299921,5995.668130,9844.739029,689.485948
598.300241,6883.915261,10584.944971,-689.485948
598.300562,4959.379811,7402.059420,-153.219100
598.300882,4811.338623,6143.709319,-1072.533697
598.301203,4145.153275,7254.018232,-766.095498
598.301523,2664.741391,8216.285956,612.876398
598.301844,3627.009116,9326.594869,1072.533697
598.302164,6069.688724,8882.471304,-1072.533697
598.302485,3923.091493,9770.718434,-1302.362347
598.302805,2886.803174,9622.677246,-766.095498
598.303126,3997.112087,7476.080014,-1991.848295
598.303446,5329.482782,7254.018232,-1378.971896
598.303767,4737.318029,8364.327145,229.828649
598.304087,4885.359217,8956.491898,-229.828649
598.304408,6217.729913,8438.347739,-153.219100
598.304728,4589.276840,8290.306550,383.047749
598.305049,3997.112087,7550.100608,0.000000
598.305369,6735.874072,8438.347739,-995.924147
598.305690,4293.194464,6957.935855,-1532.190996
598.306010,4515.256246,6735.874072,-1608.800546
598.306331,9030.512492,7105.977043,-536.266849
598.306651,4663.297435,7105.977043,-1072.533697
598.306972,3552.988522,8882.471304,-1302.362347
598.307292,6365.771101,11251.130318,229.828649
598.307613,5033.400406,10881.027347,-306.438199
598.307933,5921.647536,8956.491898,-995.924147
598.308254,8216.285956,6587.832884,229.828649
598.308574,3775.050304,5921.647536,-1225.752797
598.308895,1628.453072,7624.121203,-1302.362347
598.309215,3552.988522,8216.285956,842.705048
598.309536,5773.606348,9548.656652,153.219100
598.309856,5699.585753,10066.800811,459.657299
598.310177,4367.215058,8290.306550,0.000000
598.310497,4589.276840,8734.430116,-2068.457845
598.310818,4219.173869,9548.656652,536.266849
598.311138,3034.844362,8734.430116,1915.238745
598.311459,5403.503377,6809.894666,1302.362347
598.311779,5921.647536,7698.141797,995.924147
598.312100,4219.173869,11029.068536,1149.143247
598.312420,2960.823768,9992.780217,229.828649
598.312741,5181.441594,7550.100608,-1455.581446
598.313061,6883.915261,8216.285956,-612.876398
598.313382,5773.606348,7328.038826,1072.533697
598.313702,5255.462188,7254.018232,842.705048
598.314023,6957.935855,8512.368333,0.000000
598.314343,3997.112087,8216.285956,0.000000
598.314664,3330.926739,6291.750507,0.000000
598.314984,7179.997637,6587.832884,-306.438199
598.315305,6439.791695,8216.285956,-612.876398
598.315625,4737.318029,7698.141797,-306.438199
598.315946,8512.368333,6809.894666,-689.485948
598.316266,5551.544565,6735.874072,-1991.848295
598.316587,3108.864956,6365.771101,-842.705048
598.316907,5551.544565,7846.182985,1149.143247
598.317228,7105.977043,9104.533087,153.219100
598.317548,4589.276840,7920.203579,-1762.019645
598.317869,6291.750507,7105.977043,-1378.971896
598.318189,6069.688724,6587.832884,-2374.896044
598.318510,2220.617826,7179.997637,-2145.067394
598.318830,3108.864956,8142.265362,1838.629195
598.319151,5921.647536,10362.883188,2374.896044
598.319472,4515.256246,9400.615463,1455.581446
598.319792,2516.700203,7698.141797,229.828649
598.320113,4885.359217,7105.977043,-1838.629195
598.320433,4441.235652,7624.121203,-1762.019645
598.320754,3627.009116,7994.224174,766.095498
598.321074,6439.791695,7105.977043,1225.752797
598.321395,6365.771101,7328.038826,153.219100
598.321715,4293.194464,10436.903782,1225.752797
598.322036,3256.906145,11103.089130,689.485948
598.322356,5699.585753,8734.430116,-995.924147
598.322677,6513.812290,7994.224174,-1072.533697
598.322997,6143.709319,7772.162391,-383.047749
598.323318,5625.565159,7994.224174,229.828649
598.323638,7179.997637,8068.244768,1762.019645
598.323959,4959.379811,8068.244768,1991.848295
598.324279,4515.256246,7179.997637,919.314598
598.324600,5995.668130,8956.491898,-842.705048
598.324920,5995.668130,8734.430116,-919.314598
598.325241,4885.359217,6587.832884,-306.438199
598.325561,10510.924376,6661.853478,612.876398
598.325882,6587.832884,7772.162391,-1149.143247
598.326202,1776.494261,7550.100608,-3064.381992
598.326523,4589.276840,8734.430116,-1915.238745
598.326843,6883.915261,10436.903782,536.266849
598.327164,4367.215058,9030.512492,76.609550
598.327484,6809.894666,9104.533087,1225.752797
598.327805,4441.235652,8142.265362,-1072.533697
598.328125,1480.411884,8290.306550,-1838.629195
598.328446,2368.659014,7772.162391,1915.238745
598.328766,4811.338623,8734.430116,2145.067394
598.329087,4145.153275,9400.615463,1685.410096
598.329407,2368.659014,9030.512492,1378.971896
598.329728,1554.432478,8068.244768,-1532.190996
598.330048,3182.885551,6883.915261,-2221.676944
598.330369,4441.235652,5551.544565,383.047749
598.330689,4737.318029,6217.729913,1378.971896
598.331010,4663.297435,7476.080014,0.000000
598.331330,4885.359217,10362.883188,0.000000
598.331651,5551.544565,10214.842000,-153.219100
598.331971,6957.935855,8290.306550,612.876398
598.332292,7402.059420,7105.977043,0.000000
598.332612,5773.606348,7328.038826,-1378.971896
598.332933,4959.379811,7402.059420,-1915.238745
598.333253,7624.121203,8660.409521,-76.609550
598.333574,6957.935855,7254.018232,1072.533697
598.333894,5329.482782,5033.400406,689.485948
598.334215,5625.565159,6957.935855,766.095498
598.334535,6069.688724,10584.944971,0.000000
598.334856,3849.070898,8364.327145,306.438199
598.335176,4663.297435,5403.503377,-689.485948
598.335497,9474.636058,5477.523971,459.657299
598.335817,3627.009116,7105.977043,459.657299
598.336138,2294.638420,7254.018232,0.000000
598.336458,6069.688724,8586.388927,-76.609550
598.336779,6735.874072,10807.006753,-459.657299
598.337099,6217.729913,9326.594869,995.924147
598.337420,5181.441594,8734.430116,-229.828649
598.337740,2664.741391,7105.977043,-2068.457845
598.338061,2072.576638,8142.265362,229.828649
598.338381,3849.070898,6587.832884,2451.505594
598.338702,6439.791695,7476.080014,766.095498
598.339022,5551.544565,8586.388927,76.609550
598.339343,2368.659014,9622.677246,-2221.676944
598.339663,4737.318029,9178.553681,-1762.019645
598.339984,7179.997637,7476.080014,995.924147
598.340304,7328.038826,7254.018232,2681.334243
598.340625,6883.915261,6143.709319,1762.019645
598.340945,4145.153275,5551.544565,-459.657299
598.341266,3849.070898,8808.450710,76.609550
598.341586,5477.523971,10955.047942,995.924147
598.341907,5699.585753,7772.162391,-536.266849
598.342228,6513.812290,6661.853478,-4826.401637
598.342548,4219.173869,6809.894666,-5286.058936
598.342869,4885.359217,7994.224174,-1149.143247
598.343189,5403.503377,7772.162391,1991.848295
598.343510,5625.565159,6957.935855,1838.629195
598.343830,4663.297435,9474.636058,306.438199
598.344151,5033.400406,10732.986159,0.000000
598.344471,1628.453072,9992.780217,536.266849
598.344792,6291.750507,7994.224174,1378.971896
598.345112,7328.038826,5033.400406,1225.752797
598.345433,3478.967927,3404.947333,-2145.067394
598.345753,4811.338623,4441.235652,-1838.629195
598.346074,5329.482782,7846.182985,1608.800546
598.346394,4959.379811,7994.224174,1838.629195
598.346715,10288.862594,9474.636058,1608.800546
598.347035,10066.800811,8882.471304,-536.266849
598.347356,5625.565159,6883.915261,-3447.429741
598.347676,6883.915261,5181.441594,-229.828649
598.347997,8438.347739,4219.173869,153.219100
598.348317,8142.265362,5181.441594,536.266849
598.348638,8882.471304,5403.503377,0.000000
598.348958,11029.068536,7476.080014,-3217.601092
598.349279,7994.224174,9030.512492,-3830.477490
598.349599,7994.224174,6809.894666,-536.266849
598.349920,11547.212695,3182.885551,2451.505594
598.350240,11473.192101,1702.473667,3370.820191
598.350561,9548.656652,3404.947333,2757.943793
598.350881,7105.977043,3997.112087,153.219100
598.351202,8586.388927,3775.050304,-2987.772442
598.351522,12879.583391,6439.791695,-1302.362347
598.351843,12435.459826,5699.585753,229.828649
598.352163,13101.645173,3552.988522,-1378.971896
598.352484,13249.686362,3182.885551,-1915.238745
598.352804,10362.883188,3330.926739,0.000000
598.353125,8734.430116,3404.947333,1762.019645
598.353445,9992.780217,3478.967927,1532.190996
598.353766,10732.986159,6143.709319,-842.705048
598.354086,9992.780217,6809.894666,-383.047749
598.354407,10732.986159,5403.503377,-1072.533697
598.354727,13323.706956,4959.379811,-1302.362347
598.355048,7698.141797,4515.256246,-1072.533697
598.355368,5477.523971,3034.844362,-1838.629195
598.355689,7846.182985,4515.256246,-919.314598
598.356009,9104.533087,7254.018232,919.314598
598.356330,7846.182985,9918.759623,2911.162892
598.356650,7920.203579,9548.656652,1608.800546
598.356971,6883.915261,7772.162391,-1915.238745
598.357291,4737.318029,5625.565159,-229.828649
598.357612,6291.750507,5255.462188,1838.629195
598.357932,7994.224174,4737.318029,1455.581446
598.358253,6439.791695,5403.503377,0.000000
598.358573,9104.533087,6439.791695,-1608.800546
598.358894,6513.812290,5329.482782,-2068.457845
598.359214,8290.306550,4959.379811,-1838.629195
598.359535,14063.912898,7624.121203,1762.019645
598.359855,11103.089130,7179.997637,2298.286494
598.360176,9992.780217,5921.647536,-229.828649
598.360496,12435.459826,6513.812290,-383.047749
598.360817,9548.656652,4737.318029,-1915.238745
598.361137,9992.780217,3849.070898,-1608.800546
598.361458,10955.047942,1998.556043,-1225.752797
598.361778,10362.883188,2146.597232,-3524.039291
598.362099,10881.027347,5551.544565,-2068.457845
598.362419,8512.368333,5995.668130,306.438199
598.362740,7254.018232,7994.224174,-1072.533697
598.363060,8956.491898,9844.739029,153.219100
598.363381,10066.800811,10066.800811,1532.190996
598.363701,9548.656652,7328.038826,383.047749
598.364022,7328.038826,3256.906145,383.047749
598.364343,5625.565159,3478.967927,766.095498
598.364663,4811.338623,5033.400406,0.000000
598.364984,4219.173869,4885.359217,76.609550
598.365304,8142.265362,5107.421000,-1608.800546
598.365625,10658.965565,4737.318029,-919.314598
598.365945,9474.636058,5403.503377,1455.581446
598.366266,9178.553681,6883.915261,2451.505594
598.366586,9474.636058,6439.791695,842.705048
598.366907,9400.615463,5107.421000,0.000000
598.367227,13027.624579,5625.565159,-383.047749
598.367548,12065.356855,3701.029710,-1302.362347
598.367868,10288.862594,4293.194464,-2374.896044
598.368189,12287.418637,5033.400406,-1762.019645
598.368509,10807.006753,6439.791695,-1149.143247
598.368830,10881.027347,5033.400406,-306.438199
598.369150,10362.883188,3775.050304,689.485948
598.369471,8290.306550,3775.050304,76.609550
598.369791,7624.121203,5107.421000,383.047749
598.370112,7402.059420,4811.338623,995.924147
598.370432,8142.265362,3849.070898,-689.485948
598.370753,9030.512492,4811.338623,-1455.581446
598.371073,9844.739029,7402.059420,-612.876398
598.371394,8438.347739,8882.471304,-612.876398
598.371714,8660.409521,9030.512492,0.000000
598.372035,8808.450710,7920.203579,689.485948
598.372355,7179.997637,5329.482782,766.095498
598.372676,7920.203579,3775.050304,1455.581446
598.372996,8734.430116,5181.441594,3677.258390
598.373317,8068.244768,5551.544565,1915.238745
598.373637,8438.347739,3997.112087,76.609550
598.373958,9178.553681,3849.070898,-2145.067394
598.374278,10584.944971,4367.215058,-1685.410096
598.374599,10807.006753,5995.668130,1685.410096
598.374919,11177.109724,6291.750507,3600.648841
598.375240,10584.944971,4663.297435,1302.362347
598.375560,10955.047942,3627.009116,-612.876398
598.375881,9918.759623,4145.153275,-2221.676944
598.376201,8734.430116,4441.235652,-3447.429741
598.376522,10584.944971,5107.421000,-2987.772442
598.376842,12213.398043,5403.503377,-919.314598
598.377163,12953.603985,5477.523971,306.438199
598.377483,10881.027347,4737.318029,689.485948
598.377804,8216.285956,5181.441594,0.000000
598.378124,6661.853478,5995.668130,-995.924147
598.378445,6883.915261,5625.565159,766.095498
598.378765,7105.977043,3034.844362,229.828649
598.379086,10658.965565,2590.720797,-689.485948
598.379406,9770.718434,6513.812290,-1685.410096
598.379727,6883.915261,9992.780217,-2145.067394
598.380047,5033.400406,10362.883188,-1915.238745
598.380368,8068.244768,8956.491898,0.000000
598.380688,9252.574275,7698.141797,2911.162892
598.381009,8364.327145,6439.791695,4519.963438
598.381329,6587.832884,6217.729913,2451.505594
598.381650,7031.956449,6291.750507,-229.828649
598.381970,6513.812290,5625.565159,-766.095498
598.382291,8216.285956,2812.782580,-1991.848295
598.382611,9918.759623,1924.535449,-995.924147
598.382932,11695.253884,3256.906145,919.314598
598.383252,10955.047942,6513.812290,1302.362347
598.383573,10955.047942,5255.462188,995.924147
598.383893,11991.336260,4737.318029,-1378.971896
598.384214,13397.727550,4441.235652,-612.876398
598.384534,12731.542202,4959.379811,0.000000
598.384855,12657.521608,5847.626942,-1072.533697
598.385175,11547.212695,6365.771101,-3753.867940
598.385496,11473.192101,4811.338623,-3983.696590
598.385816,11917.315666,4071.132681,-2145.067394
598.386137,11547.212695,4885.359217,-383.047749
598.386458,9252.574275,6217.729913,459.657299
598.386778,8586.388927,7179.997637,1378.971896
598.387099,7179.997637,6365.771101,842.705048
598.387419,6883.915261,4219.173869,766.095498
598.387739,7031.956449,3256.906145,1608.800546
598.388060,6587.832884,3404.947333,919.314598
598.388380,6957.935855,5921.647536,1685.410096
598.388701,7920.203579,7994.224174,1838.629195
598.389021,6735.874072,6883.915261,536.266849
598.389341,8660.409521,5477.523971,76.609550
598.389662,10584.944971,4737.318029,1225.752797
598.389982,9770.718434,4219.173869,1072.533697
598.390303,9474.636058,3330.926739,-76.609550
598.390623,12213.398043,2442.679609,-1302.362347
598.390943,14211.954086,2886.803174,-766.095498
598.391264,12953.603985,3478.967927,-306.438199
598.391584,11769.274478,4219.173869,-842.705048
598.391905,12805.562797,6069.688724,-2145.067394
598.392225,12583.501014,5551.544565,-1915.238745
598.392545,12731.542202,3849.070898,-459.657299
598.392866,14137.933492,3552.988522,-229.828649
598.393186,9474.636058,3404.947333,-689.485948
598.393507,7105.977043,4219.173869,-689.485948
598.393827,7476.080014,4811.338623,76.609550
598.394148,7772.162391,7105.977043,459.657299
598.394468,7254.018232,7994.224174,1072.533697
598.394788,7179.997637,7846.182985,612.876398
598.395109,4959.379811,6365.771101,-689.485948
598.395429,4293.194464,5625.565159,-1225.752797
598.395750,5329.482782,5995.668130,0.000000
598.396070,5181.441594,7624.121203,-459.657299
598.396390,5181.441594,8586.388927,-766.095498
598.396711,6143.709319,9104.533087,0.000000
598.397031,7920.203579,10362.883188,383.047749
598.397352,7328.038826,10362.883188,1455.581446
598.397672,7402.059420,9918.759623,612.876398
598.397992,7328.038826,7550.100608,0.000000
598.398313,7254.018232,4663.297435,1302.362347
598.398633,8142.265362,3034.844362,2451.505594
598.398954,9622.677246,2368.659014,2528.115143
598.399274,10140.821405,3108.864956,842.705048
598.399595,10658.965565,3478.967927,-306.438199
598.399915,12435.459826,3775.050304,-995.924147
598.400235,14656.077652,4441.235652,-919.314598
598.400556,15544.324782,4959.379811,-229.828649
598.400876,14137.933492,4219.173869,-1302.362347
598.401197,13767.830521,3997.112087,-2221.676944
598.401517,13693.809927,4367.215058,-2987.772442
598.401837,13175.665768,4515.256246,-3140.991542
598.402158,12805.562797,4219.173869,-2834.553343
598.402478,12731.542202,5773.606348,-1991.848295
598.402799,9696.697840,6365.771101,-766.095498
598.403119,7550.100608,4811.338623,-459.657299
598.403439,7254.018232,2886.803174,689.485948
598.403760,7772.162391,3034.844362,1762.019645
598.404080,6143.709319,4959.379811,2298.286494
598.404401,5033.400406,6143.709319,1685.410096
598.404721,4885.359217,5551.544565,-153.219100
598.405042,5699.585753,5255.462188,306.438199
598.405362,7179.997637,6735.874072,1762.019645
598.405682,7179.997637,7920.203579,995.924147
598.406003,7624.121203,8660.409521,-995.924147
598.406323,7624.121203,8660.409521,-1685.410096
598.406644,8364.327145,7254.018232,0.000000
598.406964,8956.491898,4367.215058,1838.629195
598.407284,9178.553681,3108.864956,2451.505594
598.407605,10066.800811,3627.009116,459.657299
598.407925,10288.862594,4219.173869,-2145.067394
598.408246,11251.130318,4145.153275,-2298.286494
598.408566,12805.562797,3552.988522,-766.095498
598.408886,13249.686362,3330.926739,689.485948
598.409207,12657.521608,3404.947333,1072.533697
598.409527,12879.583391,3775.050304,-612.876398
598.409848,12657.521608,5551.544565,-1838.629195
598.410168,11473.192101,6513.812290,-1991.848295
598.410488,10955.047942,7402.059420,-1608.800546
598.410809,10881.027347,7476.080014,-919.314598
598.411129,9178.553681,7402.059420,-536.266849
598.411450,8142.265362,7179.997637,-383.047749
598.411770,7105.977043,6513.812290,-612.876398
598.412091,5847.626942,5551.544565,-383.047749
598.412411,5625.565159,6513.812290,1225.752797
598.412731,5847.626942,7846.182985,2604.724693
598.413052,6291.750507,8660.409521,3217.601092
598.413372,5329.482782,7994.224174,2681.334243
598.413693,4367.215058,6587.832884,995.924147
598.414013,4293.194464,5181.441594,536.266849
598.414333,5699.585753,4811.338623,1225.752797
598.414654,7772.162391,5847.626942,1608.800546
598.414974,9252.574275,7254.018232,612.876398
598.415295,9474.636058,7179.997637,-536.266849
598.415615,10362.883188,6661.853478,-306.438199
598.415935,10362.883188,4959.379811,383.047749
598.416256,11103.089130,2220.617826,0.000000
598.416576,11843.295072,1110.308913,-766.095498
598.416897,12879.583391,1110.308913,-2298.286494
598.417217,13101.645173,2664.741391,-2298.286494
598.417538,12879.583391,4515.256246,-1378.971896
598.417858,13175.665768,5255.462188,-1838.629195
598.418178,12361.439231,6143.709319,-1685.410096
598.418499,10955.047942,4959.379811,-1915.238745
598.418819,9844.739029,4441.235652,-842.705048
598.419140,8216.285956,4071.132681,76.609550
598.419460,7402.059420,4293.194464,0.000000
598.419780,6957.935855,5403.503377,-689.485948
598.420101,6809.894666,6439.791695,-1378.971896
598.420421,6439.791695,8512.368333,-612.876398
598.420742,7105.977043,9474.636058,842.705048
598.421062,7328.038826,8586.388927,2145.067394
598.421382,6439.791695,6513.812290,2451.505594
598.421703,5477.523971,4737.318029,2834.553343
598.422023,5107.421000,4663.297435,1991.848295
598.422344,5847.626942,4737.318029,1302.362347
598.422664,7402.059420,5181.441594,612.876398
598.422985,9992.780217,6143.709319,0.000000
598.423305,10955.047942,7254.018232,-842.705048
598.423625,11473.192101,7328.038826,-1378.971896
598.423946,11991.336260,6661.853478,-689.485948
598.424266,12435.459826,4737.318029,995.924147
598.424587,12509.480420,3182.885551,1991.848295
598.424907,12139.377449,3552.988522,1149.143247
598.425227,11399.171507,4737.318029,-1762.019645
598.425548,10584.944971,5477.523971,-3677.258390
598.425868,11029.068536,5847.626942,-3677.258390
598.426189,11251.130318,5329.482782,-2221.676944
598.426509,10732.986159,4441.235652,-689.485948
598.426829,9696.697840,4441.235652,306.438199
598.427150,8290.306550,5255.462188,842.705048
598.427470,7105.977043,6069.688724,995.924147
598.427791,7772.162391,6143.709319,1149.143247
598.428111,8808.450710,5625.565159,76.609550
598.428431,7920.203579,6069.688724,-306.438199
598.428752,7402.059420,6883.915261,-842.705048
598.429072,7402.059420,7698.141797,-842.705048
598.429393,7031.956449,7402.059420,-229.828649
598.429713,7105.977043,6513.812290,76.609550
598.430034,7328.038826,5551.544565,536.266849
598.430354,6809.894666,5625.565159,1072.533697
598.430674,6735.874072,4737.318029,2221.676944
598.430995,7624.121203,3330.926739,2298.286494
598.431315,9252.574275,3404.947333,1455.581446
598.431636,9696.697840,3701.029710,-229.828649
598.431956,9474.636058,4737.318029,-1991.848295
598.432276,10584.944971,5625.565159,-2604.724693
598.432597,11991.336260,6069.688724,-1838.629195
598.432917,11991.336260,5921.647536,-1072.533697
598.433238,11991.336260,5773.606348,-842.705048
598.433558,10881.027347,5995.668130,-1685.410096
598.433878,9622.677246,5773.606348,-919.314598
598.434199,9696.697840,5329.482782,-306.438199
598.434519,9992.780217,4885.359217,76.609550
598.434840,9770.718434,4885.359217,-536.266849
598.435160,9178.553681,4959.379811,-766.095498
598.435481,8660.409521,4885.359217,-306.438199
598.435801,8068.244768,4663.297435,0.000000
598.436121,7994.224174,5033.400406,459.657299
598.436442,8438.347739,6069.688724,612.876398
598.436762,8512.368333,7920.203579,0.000000
598.437083,8586.388927,8364.327145,536.266849
598.437403,9030.512492,8142.265362,1378.971896
598.437723,9104.533087,7031.956449,1455.581446
598.438044,8956.491898,5921.647536,1762.019645
598.438364,8586.388927,5255.462188,1685.410096
598.438685,8290.306550,4293.194464,1072.533697
598.439005,8660.409521,3404.947333,919.314598
598.439325,9326.594869,3330.926739,995.924147
598.439646,9992.780217,3775.050304,459.657299
598.439966,10214.842000,5477.523971,-766.095498
598.440287,10214.842000,7550.100608,-1302.362347
598.440607,10214.842000,8512.368333,-1149.143247
598.440927,9844.739029,7920.203579,0.000000
598.441248,8882.471304,6957.935855,306.438199
598.441568,7402.059420,6587.832884,1378.971896
598.441889,6291.750507,6217.729913,459.657299
598.442209,5551.544565,5921.647536,-383.047749
598.442530,5551.544565,5551.544565,-766.095498
598.442850,5625.565159,5847.626942,-612.876398
598.443170,5403.503377,6661.853478,383.047749
598.443491,4959.379811,8364.327145,1532.190996
598.443811,4885.359217,9844.739029,2374.896044
598.444132,5551.544565,10510.924376,2834.553343
598.444452,5699.585753,9770.718434,3294.210641
598.444772,4959.379811,8882.471304,3677.258390
598.445093,4737.318029,8438.347739,3447.429741
598.445413,4737.318029,8586.388927,3677.258390
598.445734,4959.379811,9178.553681,3677.258390
598.446054,5551.544565,9326.594869,4290.134789
598.446374,6143.709319,9326.594869,4060.306139
598.446695,5551.544565,9104.533087,4443.353888
598.447015,5625.565159,7920.203579,5362.668486
598.447336,5699.585753,7920.203579,5592.497135
598.447656,6513.812290,8068.244768,5439.278036
598.447977,7179.997637,8512.368333,5898.935335
598.448297,6883.915261,8660.409521,5515.887586
598.448617,6809.894666,8808.450710,5592.497135
598.448938,6883.915261,9030.512492,5975.544884
598.449258,7254.018232,8808.450710,6281.983084
598.449579,6735.874072,8290.306550,6588.421283
598.449899,7031.956449,6883.915261,6358.592633
598.450219,6217.729913,5699.585753,6128.763984
598.450540,5699.585753,5107.421000,5669.106685
598.450860,5921.647536,5329.482782,6128.763984
598.451181,6365.771101,6069.688724,5745.716235
598.451501,6735.874072,7920.203579,5898.935335
598.451821,6291.750507,8808.450710,6358.592633
598.452142,5847.626942,8290.306550,6894.859482
598.452462,4959.379811,7328.038826,7431.126331
598.452783,4071.132681,6587.832884,8197.221829
598.453103,3404.947333,5773.606348,7890.783629
598.453424,2664.741391,5773.606348,6894.859482
598.453744,2146.597232,5255.462188,6358.592633
598.454064,2146.597232,5033.400406,6052.154434
598.454385,1998.556043,5329.482782,6435.202183
598.454705,1924.535449,5699.585753,6052.154434
598.455026,2368.659014,6661.853478,5745.716235
598.455346,3108.864956,7105.977043,5975.544884
598.455666,3182.885551,7772.162391,5592.497135
598.455987,4145.153275,7698.141797,6128.763984
598.456307,4663.297435,8290.306550,5439.278036
598.456628,4441.235652,8290.306550,4826.401637
598.456948,4737.318029,7105.977043,4136.915689
598.457268,4663.297435,6143.709319,4060.306139
598.457589,4441.235652,5033.400406,4213.525239
598.457909,4071.132681,4737.318029,4519.963438
598.458230,3923.091493,4885.359217,4213.525239
598.458550,3997.112087,5773.606348,3140.991542
598.458870,5033.400406,6957.935855,2451.505594
598.459191,5477.523971,8216.285956,2528.115143
598.459511,6587.832884,9252.574275,2834.553343
598.459832,6661.853478,11029.068536,3677.258390
598.460152,7105.977043,10732.986159,3064.381992
598.460473,6957.935855,10436.903782,3753.867940
598.460793,6513.812290,10658.965565,4903.011187
598.461113,5773.606348,11029.068536,5056.230287
598.461434,5033.400406,11177.109724,5132.839837
598.461754,4737.318029,9918.759623,5362.668486
598.462075,3849.070898,7624.121203,4673.182538
598.462395,3552.988522,4811.338623,4443.353888
598.462715,4145.153275,3552.988522,4366.744339
598.463036,3849.070898,5551.544565,2145.067394
598.463356,5255.462188,8142.265362,919.314598
598.463677,7624.121203,11695.253884,306.438199
598.463997,9696.697840,13915.871710,919.314598
598.464317,9622.677246,15248.242405,1762.019645
598.464638,9474.636058,14063.912898,2834.553343
598.464958,8956.491898,11917.315666,4596.572988
598.465279,7624.121203,10140.821405,6128.763984
598.465599,5773.606348,9104.533087,5286.058936
598.465920,5477.523971,8142.265362,4136.915689
598.466240,3404.947333,7105.977043,3600.648841
598.466560,1924.535449,5477.523971,3830.477490
598.466881,3256.906145,3552.988522,3983.696590
598.467201,5181.441594,4219.173869,3983.696590
598.467522,4589.276840,7105.977043,4060.306139
598.467842,4737.318029,9548.656652,2987.772442
598.468162,5995.668130,11473.192101,2451.505594
598.468483,6365.771101,12805.562797,2757.943793
598.468803,6883.915261,13249.686362,3524.039291
598.469124,7476.080014,12065.356855,3830.477490
598.469444,6365.771101,10214.842000,4519.963438
598.469764,2886.803174,8142.265362,5515.887586
598.470085,2294.638420,6661.853478,5822.325785
598.470405,2960.823768,5625.565159,5592.497135
598.470726,2812.782580,4515.256246,4903.011187
598.471046,2442.679609,4441.235652,5209.449386
598.471366,3997.112087,4589.276840,6588.421283
598.471687,5403.503377,5921.647536,7737.564530
598.472007,4441.235652,6883.915261,7201.297681
598.472328,4367.215058,8660.409521,5975.544884
598.472648,5477.523971,10807.006753,4903.011187
598.472969,5921.647536,11621.233289,4749.792088
598.473289,5699.585753,8956.491898,5898.935335
598.473609,6957.935855,7402.059420,7354.516781
598.473930,5625.565159,8586.388927,7890.783629
598.474250,3034.844362,9622.677246,7048.078582
598.474571,2664.741391,8364.327145,6128.763984
598.474891,3478.967927,5625.565159,7124.688131
598.475211,2590.720797,3256.906145,8350.440928
598.475532,2664.741391,2664.741391,8810.098227
598.475852,4811.338623,4515.256246,8197.221829
598.476173,4367.215058,7254.018232,6281.983084
598.476493,3701.029710,9696.697840,4673.182538
598.476813,5625.565159,9622.677246,3140.991542
598.477134,5699.585753,8068.244768,3677.258390
598.477454,4145.153275,6069.688724,6358.592633
598.477775,4737.318029,6661.853478,8810.098227
598.478095,5551.544565,8882.471304,8273.831378
598.478416,4663.297435,11029.068536,5669.106685
598.478736,4589.276840,11473.192101,3830.477490
598.479056,5847.626942,9400.615463,5132.839837
598.479377,4515.256246,6439.791695,6741.640382
598.479697,3256.906145,2812.782580,7201.297681
598.480018,3552.988522,1480.411884,6741.640382
598.480338,3923.091493,2960.823768,5898.935335
598.480658,3997.112087,5477.523971,5669.106685
598.480979,4959.379811,8068.244768,4673.182538
598.481299,5995.668130,11473.192101,3677.258390
598.481620,6069.688724,13693.809927,4366.744339
598.481940,5033.400406,13249.686362,5209.449386
598.482260,3997.112087,9844.739029,5132.839837
598.482581,5033.400406,7772.162391,4826.401637
598.482901,4811.338623,7328.038826,3524.039291
598.483222,3034.844362,7105.977043,1915.238745
598.483542,2516.700203,7105.977043,2145.067394
598.483863,4145.153275,8956.491898,4826.401637
598.484183,5033.400406,9918.759623,6588.421283
598.484503,5329.482782,9326.594869,5362.668486
598.484824,5551.544565,9474.636058,3830.477490
598.485144,4885.359217,9548.656652,2604.724693
598.485465,5255.462188,8956.491898,4596.572988
598.485785,7698.141797,8512.368333,6052.154434
598.486105,8068.244768,8734.430116,6511.811733
598.486426,7031.956449,10214.842000,5669.106685
598.486746,5625.565159,10658.965565,3524.039291
598.487067,5995.668130,9844.739029,2451.505594
598.487387,6513.812290,9104.533087,3983.696590
598.487707,6587.832884,7846.182985,6435.202183
598.488028,6217.729913,6661.853478,6358.592633
598.488348,5329.482782,6883.915261,4673.182538
598.488669,4145.153275,7920.203579,2911.162892
598.488989,4367.215058,8290.306550,2451.505594
598.489309,5847.626942,8734.430116,3524.039291
598.489630,6661.853478,9844.739029,4826.401637
598.489950,4811.338623,10288.862594,4749.792088
598.490271,5181.441594,10066.800811,3830.477490
598.490592,4737.318029,9918.759623,4060.306139
598.490912,2368.659014,9030.512492,4903.011187
598.491233,2294.638420,7624.121203,5132.839837
598.491553,3775.050304,6143.709319,4749.792088
598.491874,3330.926739,6291.750507,5439.278036
598.492195,2812.782580,7179.997637,5822.325785
598.492515,3404.947333,7624.121203,4903.011187
598.492836,4737.318029,8512.368333,3600.648841
598.493156,3552.988522,7624.121203,4060.306139
598.493477,5181.441594,7105.977043,4596.572988
598.493797,7846.182985,8290.306550,5286.058936
598.494118,6365.771101,10658.965565,6052.154434
598.494439,4367.215058,9844.739029,5439.278036
598.494759,5181.441594,6883.915261,3907.087040
598.495080,5625.565159,5255.462188,3600.648841
598.495400,4885.359217,5255.462188,5515.887586
598.495721,5329.482782,6735.874072,6281.983084
598.496041,4959.379811,7698.141797,3983.696590
598.496362,3552.988522,8068.244768,3064.381992
598.496683,4367.215058,6143.709319,4826.401637
598.497003,6365.771101,6143.709319,6128.763984
598.497324,6735.874072,8808.450710,7354.516781
598.497644,4589.276840,11473.192101,6052.154434
598.497965,3775.050304,10362.883188,4290.134789
598.498285,4515.256246,6883.915261,5132.839837
598.498606,5921.647536,6883.915261,7737.564530
598.498927,5847.626942,9178.553681,8503.660028
598.499247,2812.782580,10288.862594,5209.449386
598.499568,1110.308913,8882.471304,1685.410096
598.499888,2886.803174,6883.915261,3677.258390
598.500209,5033.400406,5995.668130,8350.440928
598.500530,5033.400406,5995.668130,8656.879127
598.500850,2516.700203,7476.080014,5286.058936
598.501171,2072.576638,8512.368333,2374.896044
598.501491,4959.379811,8808.450710,3370.820191
598.501812,8142.265362,8512.368333,5822.325785
598.502132,7994.224174,9104.533087,6971.469032
598.502453,6365.771101,9696.697840,5362.668486
598.502774,5847.626942,10881.027347,3677.258390
598.503094,4219.173869,9696.697840,3907.087040
598.503415,4515.256246,6883.915261,5132.839837
598.503735,6365.771101,6143.709319,5975.544884
598.504056,5625.565159,7994.224174,5669.106685
598.504376,1406.391290,7772.162391,4673.182538
598.504697,3330.926739,8660.409521,2987.772442
598.505018,5329.482782,7476.080014,3677.258390
598.505338,3997.112087,6217.729913,5439.278036
598.505659,4145.153275,7105.977043,5745.716235
598.505979,4959.379811,9178.553681,4136.915689
598.506300,3552.988522,10140.821405,3140.991542
598.506620,6513.812290,10362.883188,4213.525239
598.506941,7031.956449,9696.697840,5132.839837
598.507262,6439.791695,9474.636058,6128.763984
598.507582,5773.606348,9178.553681,6281.983084
598.507903,5773.606348,8142.265362,4519.963438
598.508223,4071.132681,5699.585753,3677.258390
598.508544,4737.318029,5403.503377,4979.620737
598.508865,4145.153275,4663.297435,4979.620737
598.509185,4959.379811,5033.400406,4213.525239
598.509506,4145.153275,5921.647536,2451.505594
598.509826,4811.338623,7846.182985,766.095498
598.510147,4959.379811,8808.450710,1915.238745
598.510467,6809.894666,9548.656652,3140.991542
598.510788,7994.224174,10807.006753,2987.772442
598.511109,7254.018232,10584.944971,3983.696590
598.511429,7179.997637,9844.739029,3524.039291
598.511750,6365.771101,9326.594869,3753.867940
598.512070,4441.235652,8512.368333,5209.449386
598.512391,3330.926739,7179.997637,5669.106685
598.512711,5477.523971,6809.894666,3524.039291
598.513032,4959.379811,6883.915261,2757.943793
598.513353,4367.215058,6513.812290,3907.087040
598.513673,3552.988522,5625.565159,4749.792088
598.513994,5625.565159,6735.874072,3830.477490
598.514314,4441.235652,7179.997637,4826.401637
598.514635,3552.988522,7994.224174,3830.477490
598.514955,6365.771101,9844.739029,3677.258390
598.515276,6513.812290,12583.501014,4443.353888
598.515597,5847.626942,12583.501014,5669.106685
598.515917,7402.059420,12361.439231,4979.620737
598.516238,5181.441594,10066.800811,4136.915689
598.516558,3256.906145,8438.347739,3524.039291
598.516879,3182.885551,5551.544565,3140.991542
598.517200,3108.864956,3182.885551,3753.867940
598.517520,2590.720797,4441.235652,5975.544884
598.517841,4219.173869,7476.080014,5439.278036
598.518161,3478.967927,7476.080014,2987.772442
598.518482,4219.173869,8216.285956,2374.896044
598.518802,5847.626942,10288.862594,4290.134789
598.519123,8142.265362,13249.686362,4749.792088
598.519444,6513.812290,13175.665768,3370.820191
598.519764,5847.626942,9548.656652,2451.505594
598.520085,5995.668130,6291.750507,3677.258390
598.520405,5773.606348,4441.235652,6205.373534
598.520726,3478.967927,5699.585753,5975.544884
598.521046,3627.009116,8216.285956,4290.134789
598.521367,5107.421000,9918.759623,3830.477490
598.521688,5699.585753,9918.759623,4366.744339
598.522008,6069.688724,6883.915261,5898.935335
598.522329,5995.668130,4367.215058,6511.811733
598.522649,4663.297435,5181.441594,5515.887586
598.522970,3701.029710,7254.018232,4979.620737
598.523290,3775.050304,7476.080014,3907.087040
598.523611,5995.668130,7772.162391,3447.429741
598.523932,6809.894666,9474.636058,5515.887586
598.524252,4737.318029,10362.883188,6358.592633
598.524573,4071.132681,10584.944971,5898.935335
598.524893,5033.400406,9400.615463,3907.087040
598.525214,4589.276840,6513.812290,3064.381992
598.525535,4811.338623,3330.926739,4903.011187
598.525855,5625.565159,3404.947333,6052.154434
598.526176,4663.297435,5181.441594,5056.230287
598.526496,4071.132681,7105.977043,3217.601092
598.526817,7772.162391,9548.656652,689.485948
598.527137,8512.368333,10510.924376,1149.143247
598.527458,7105.977043,9918.759623,5669.106685
598.527779,6365.771101,8364.327145,7584.345430
598.528099,4293.194464,7624.121203,6435.202183
598.528420,2886.803174,7254.018232,4903.011187
598.528740,3404.947333,6513.812290,4136.915689
598.529061,4811.338623,5329.482782,2834.553343
598.529381,4737.318029,6809.894666,3294.210641
598.529702,3701.029710,7105.977043,2911.162892
598.530023,4293.194464,6735.874072,2068.457845
598.530343,6143.709319,8660.409521,3370.820191
598.530664,6809.894666,10955.047942,5056.230287
598.530984,3923.091493,7920.203579,4213.525239
598.531305,5551.544565,3997.112087,2757.943793
598.531625,5773.606348,4441.235652,3217.601092
598.531946,6883.915261,10510.924376,4136.915689
598.532267,8512.368333,15840.407159,3370.820191
598.532587,6809.894666,16062.468941,1225.752797
598.532908,4959.379811,11103.089130,2451.505594
598.533228,5181.441594,7402.059420,7890.783629
598.533549,5181.441594,4663.297435,11491.432470
598.533870,2368.659014,4811.338623,8120.612279
598.534190,888.247130,8586.388927,3524.039291
598.534511,1332.370696,10288.862594,1149.143247
598.534831,3701.029710,7994.224174,3294.210641
598.535152,6365.771101,7031.956449,7660.954980
598.535472,6809.894666,9326.594869,6281.983084
598.535793,2886.803174,8882.471304,2068.457845
598.536114,1850.514855,6587.832884,0.000000
598.536434,5995.668130,5921.647536,1838.629195
598.536755,9918.759623,5995.668130,4979.620737
598.537075,10140.821405,8734.430116,3294.210641
598.537396,8216.285956,13175.665768,-1378.971896
598.537716,6069.688724,14359.995275,-1225.752797
598.538037,8068.244768,11473.192101,2528.115143
598.538358,10214.842000,6143.709319,5669.106685
598.538678,5181.441594,1628.453072,5669.106685
598.538999,1406.391290,1406.391290,4290.134789
598.539319,2442.679609,3182.885551,2451.505594
598.539640,1480.411884,1924.535449,612.876398
598.539960,2516.700203,2738.761985,-76.609550
598.540281,8956.491898,6809.894666,689.485948
598.540602,5551.544565,10288.862594,689.485948
598.540922,4071.132681,13101.645173,1838.629195
598.541243,5699.585753,11991.336260,1685.410096
598.541563,4589.276840,9844.739029,306.438199
598.541884,2072.576638,6661.853478,1685.410096
598.542205,2664.741391,5625.565159,4673.182538
598.542525,4145.153275,9252.574275,2834.553343
598.542846,3330.926739,11399.171507,-459.657299
598.543166,1258.350101,10510.924376,-1762.019645
598.543487,4071.132681,9178.553681,0.000000
598.543807,3034.844362,4663.297435,6281.983084
598.544128,814.226536,2368.659014,8350.440928
598.544449,3256.906145,3330.926739,2604.724693
598.544769,2886.803174,6735.874072,-2987.772442
598.545090,3404.947333,10066.800811,-2987.772442
598.545410,7031.956449,13471.748144,-1225.752797
598.545731,10658.965565,15174.221811,842.705048
598.546051,8956.491898,13027.624579,689.485948
598.546372,6365.771101,8734.430116,0.000000
598.546693,3997.112087,7698.141797,766.095498
598.547013,5477.523971,9622.677246,2221.676944
598.547334,5329.482782,7994.224174,1225.752797
598.547654,7920.203579,8956.491898,-1302.362347
598.547975,8216.285956,8660.409521,-383.047749
598.548296,8068.244768,9696.697840,766.095498
598.548616,7105.977043,8364.327145,1838.629195
598.548937,4959.379811,4441.235652,919.314598
598.549257,6069.688724,1776.494261,2451.505594
598.549578,7105.977043,3997.112087,3524.039291
598.549898,5255.462188,5921.647536,995.924147
598.550219,5921.647536,9770.718434,-2221.676944
598.550540,7994.224174,12509.480420,-2451.505594
598.550860,6217.729913,11547.212695,-1455.581446
598.551181,6143.709319,9992.780217,1072.533697
598.551501,7476.080014,8808.450710,689.485948
598.551822,5477.523971,8512.368333,-1762.019645
598.552142,3552.988522,7994.224174,-1302.362347
598.552463,2368.659014,7920.203579,1302.362347
598.552784,3923.091493,7550.100608,2068.457845
598.553104,3627.009116,7105.977043,1378.971896
598.553425,1628.453072,5995.668130,-306.438199
598.553745,-1258.350101,4737.318029,-1378.971896
598.554066,-444.123565,3330.926739,306.438199
598.554386,3034.844362,4589.276840,153.219100
598.554707,4219.173869,6661.853478,-2528.115143
598.555028,4885.359217,11991.336260,-3753.867940
598.555348,4737.318029,14582.057057,-2834.553343
598.555669,4737.318029,12731.542202,-1072.533697
598.555989,7105.977043,9844.739029,1302.362347
598.556310,7105.977043,8512.368333,1302.362347
598.556631,6513.812290,9178.553681,153.219100
598.556951,3849.070898,8512.368333,689.485948
598.557272,3627.009116,7179.997637,0.000000
598.557592,5921.647536,5403.503377,1608.800546
598.557913,4811.338623,4367.215058,1149.143247
598.558233,3404.947333,2590.720797,-1225.752797
598.558554,3849.070898,3108.864956,-919.314598
598.558875,5921.647536,7105.977043,612.876398
598.559195,7328.038826,9622.677246,842.705048
598.559516,8734.430116,11473.192101,-536.266849
598.559836,8512.368333,13101.645173,-2374.896044
598.560157,7920.203579,13545.768739,-1608.800546
598.560477,8216.285956,11843.295072,-153.219100
598.560798,7550.100608,7254.018232,766.095498
598.561119,2812.782580,3923.091493,1455.581446
598.561439,3108.864956,5847.626942,1225.752797
598.561760,1406.391290,7105.977043,-1762.019645
598.562080,74.020594,6069.688724,-4060.306139
598.562401,3997.112087,6957.935855,-2068.457845
598.562721,8216.285956,10362.883188,919.314598
598.563042,4663.297435,11695.253884,1455.581446
598.563363,3256.906145,12583.501014,153.219100
598.563683,2368.659014,9992.780217,-766.095498
598.564004,3775.050304,7920.203579,1378.971896
598.564324,3627.009116,4811.338623,3677.258390
598.564645,4515.256246,5551.544565,1915.238745
598.564966,3775.050304,9696.697840,0.000000
598.565286,4367.215058,10584.944971,0.000000
598.565607,4737.318029,9548.656652,-1149.143247
598.565927,4367.215058,6365.771101,-1225.752797
598.566248,3330.926739,4885.359217,-1762.019645
598.566568,3775.050304,4145.153275,-842.705048
598.566889,7402.059420,8290.306550,995.924147
598.567210,7328.038826,10510.924376,1149.143247
598.567530,7550.100608,9844.739029,-1762.019645
598.567851,9178.553681,9178.553681,-2451.505594
598.568171,5995.668130,8216.285956,-612.876398
598.568492,3330.926739,5255.462188,1762.019645
598.568812,6957.935855,4367.215058,2834.553343
598.569133,6883.915261,5699.585753,612.876398
598.569454,4441.235652,6587.832884,-1608.800546
598.569774,5847.626942,9474.636058,-2451.505594
598.570095,6365.771101,10214.842000,-2068.457845
598.570415,6883.915261,11251.130318,689.485948
598.570736,7846.182985,11473.192101,2451.505594
598.571056,5921.647536,9770.718434,-383.047749
598.571377,1480.411884,5551.544565,-919.314598
598.571698,3182.885551,3552.988522,1455.581446
598.572018,4737.318029,3701.029710,1838.629195
598.572339,3182.885551,4737.318029,689.485948
598.572659,2812.782580,9770.718434,-2221.676944
598.572980,4293.194464,13323.706956,-1455.581446
598.573301,4663.297435,11843.295072,919.314598
598.573621,5625.565159,9622.677246,995.924147
598.573942,4293.194464,8586.388927,-766.095498
598.574262,1332.370696,9548.656652,-842.705048
598.574583,2442.679609,9474.636058,459.657299
598.574903,2368.659014,6513.812290,229.828649
598.575224,1850.514855,4071.132681,919.314598
598.575545,3478.967927,5107.421000,536.266849
598.575865,4071.132681,9400.615463,-1608.800546
598.576186,2516.700203,11991.336260,-3064.381992
598.576506,4293.194464,12435.459826,-2068.457845
598.576827,8290.306550,9030.512492,-536.266849
598.577147,8290.306550,7254.018232,1302.362347
598.577468,5477.523971,7994.224174,1378.971896
598.577789,5329.482782,9696.697840,-995.924147
598.578109,3997.112087,7328.038826,-2145.067394
598.578430,7846.182985,5403.503377,-76.609550
598.578750,9178.553681,6143.709319,766.095498
598.579071,7179.997637,7994.224174,0.000000
598.579391,3997.112087,7402.059420,229.828649
598.579712,4367.215058,5551.544565,-766.095498
598.580033,6143.709319,3997.112087,-1378.971896
598.580353,7254.018232,4367.215058,-229.828649
598.580674,8438.347739,7328.038826,-612.876398
598.580994,5625.565159,10807.006753,-2681.334243
598.581315,6365.771101,15174.221811,-2068.457845
598.581636,7328.038826,12731.542202,-1072.533697
598.581956,5329.482782,7031.956449,0.000000
598.582277,5107.421000,4811.338623,3983.696590
598.582597,3182.885551,7402.059420,2987.772442
598.582918,-296.082377,8364.327145,-1838.629195
598.583238,518.144159,7624.121203,-3217.601092
598.583559,2368.659014,5625.565159,-2068.457845
598.583880,4515.256246,6217.729913,842.705048
598.584200,4145.153275,7994.224174,2374.896044
598.584521,2368.659014,9918.759623,-1149.143247
598.584841,3552.988522,12435.459826,-3524.039291
598.585162,3997.112087,11917.315666,-2528.115143
598.585482,4737.318029,8586.388927,-1532.190996
598.585803,7846.182985,9400.615463,1608.800546
598.586124,6809.894666,9696.697840,3907.087040
598.586444,3330.926739,9844.739029,229.828649
598.586765,3627.009116,8512.368333,-2681.334243
598.587085,4145.153275,8438.347739,-1149.143247
598.587406,4589.276840,4219.173869,842.705048
598.587726,6957.935855,2738.761985,1762.019645
598.588047,7254.018232,4071.132681,0.000000
598.588368,4589.276840,6809.894666,-1378.971896
598.588688,7105.977043,10881.027347,-1608.800546
598.589009,8808.450710,10436.903782,-995.924147
598.589329,7105.977043,8734.430116,-2068.457845
598.589650,8586.388927,10584.944971,-2681.334243
598.589970,6217.729913,8660.409521,-3064.381992
598.590291,3997.112087,5033.400406,-306.438199
598.590611,5995.668130,6143.709319,2145.067394
598.590932,6143.709319,9326.594869,766.095498
598.591252,1998.556043,10140.821405,-2451.505594
598.591573,3923.091493,9252.574275,-3983.696590
598.591893,3256.906145,6883.915261,-1762.019645
598.592214,3404.947333,3849.070898,2451.505594
598.592534,6883.915261,7105.977043,4060.306139
598.592855,5921.647536,9622.677246,536.266849
598.593175,0.000000,9400.615463,-2451.505594
598.593496,2960.823768,8586.388927,-1915.238745
598.593816,5403.503377,7105.977043,-1149.143247
598.594136,4441.235652,6217.729913,1608.800546
598.594457,2516.700203,5551.544565,4290.134789
598.594777,5551.544565,9696.697840,0.000000
598.595098,3478.967927,11991.336260,-3447.429741
598.595418,2886.803174,9400.615463,-2451.505594
598.595739,6069.688724,6143.709319,-1149.143247
598.596059,8956.491898,7476.080014,1455.581446
598.596380,4663.297435,9326.594869,2681.334243
598.596700,4219.173869,8956.491898,-689.485948
598.597021,7846.182985,7105.977043,-1915.238745
598.597341,5181.441594,4811.338623,76.609550
598.597662,3923.091493,4441.235652,1072.533697
598.597982,6513.812290,8438.347739,-1455.581446
598.598303,4441.235652,9474.636058,-1838.629195
598.598623,4959.379811,8216.285956,536.266849
598.598944,8956.491898,8512.368333,1072.533697
598.599264,6957.935855,9474.636058,-1532.190996
598.599585,3478.967927,8956.491898,-3600.648841
598.599905,6069.688724,10658.965565,-1685.410096
598.600226,8290.306550,10436.903782,1072.533697
598.600546,6217.729913,7920.203579,4060.306139
598.600867,7254.018232,8438.347739,3064.381992
598.601187,4071.132681,7624.121203,76.609550
598.601508,666.185348,6661.853478,-229.828649
598.601828,2368.659014,5477.523971,-306.438199
598.602148,5699.585753,5995.668130,-1302.362347
598.602469,2960.823768,3108.864956,306.438199
598.602789,4811.338623,5181.441594,0.000000
598.603110,5255.462188,9548.656652,-1302.362347
598.603430,4441.235652,13397.727550,-1608.800546
598.603751,4885.359217,11621.233289,-2374.896044
598.604071,8586.388927,9030.512492,-1072.533697
598.604392,6143.709319,7179.997637,1762.019645
598.604712,3478.967927,6587.832884,2911.162892
598.605033,2442.679609,6143.709319,-919.314598
598.605353,2738.761985,6143.709319,-4290.134789
598.605674,3404.947333,6809.894666,-3677.258390
598.605994,6291.750507,7328.038826,-3140.991542
598.606315,5181.441594,6513.812290,-1608.800546
598.606635,2960.823768,5921.647536,1685.410096
598.606956,6143.709319,8956.491898,2068.457845
598.607276,7328.038826,11991.336260,-459.657299
598.607597,4219.173869,10807.006753,-2834.553343
598.607917,7328.038826,11843.295072,-1685.410096
598.608238,9178.553681,10362.883188,1532.190996
598.608558,4959.379811,7105.977043,3447.429741
598.608879,4737.318029,6809.894666,2451.505594
598.609199,4737.318029,6439.791695,-995.924147
598.609520,2368.659014,4737.318029,-3370.820191
598.609840,5181.441594,5255.462188,-1838.629195
598.610160,7328.038826,8512.368333,-459.657299
598.610481,6513.812290,9622.677246,1149.143247
598.610801,5255.462188,9326.594869,612.876398
598.611122,6661.853478,10658.965565,-1149.143247
598.611442,6217.729913,10955.047942,-1532.190996
598.611763,5699.585753,9030.512492,-689.485948
598.612083,7920.203579,9326.594869,-1378.971896
598.612404,6513.812290,10510.924376,-306.438199
598.612724,3775.050304,10140.821405,1838.629195
598.613045,3775.050304,7105.977043,1838.629195
598.613365,2442.679609,4959.379811,689.485948
598.613686,148.041188,4589.276840,1302.362347
598.614006,2220.617826,4441.235652,153.219100
598.614327,4441.235652,5921.647536,-1915.238745
598.614647,3701.029710,7328.038826,-842.705048
598.614968,7402.059420,10658.965565,-306.438199
598.615288,8142.265362,11695.253884,-2374.896044
598.615609,3775.050304,9918.759623,-2604.724693
598.615929,3775.050304,8586.388927,-842.705048
598.616250,8142.265362,9400.615463,766.095498
598.616570,6513.812290,7920.203579,1991.848295
598.616891,3108.864956,7105.977043,2374.896044
598.617211,3404.947333,7550.100608,842.705048
598.617532,3478.967927,5847.626942,-76.609550
598.617852,4219.173869,5847.626942,459.657299
598.618172,6291.750507,7179.997637,-306.438199
598.618493,3182.885551,6143.709319,-536.266849
598.618813,3404.947333,5255.462188,229.828649
598.619134,6069.688724,5625.565159,229.828649
598.619454,5847.626942,7624.121203,0.000000
598.619775,3256.906145,8364.327145,-1455.581446
598.620095,7772.162391,11177.109724,-2528.115143
598.620416,7031.956449,13027.624579,-995.924147
598.620736,5107.421000,12065.356855,2451.505594
598.621057,7031.956449,7624.121203,2911.162892
598.621377,5773.606348,4293.194464,229.828649
598.621698,1998.556043,5477.523971,-612.876398
598.622018,4589.276840,7476.080014,-1149.143247
598.622339,3997.112087,8512.368333,-2911.162892
598.622659,3997.112087,6957.935855,383.047749
598.622980,7920.203579,8660.409521,5362.668486
598.623300,8216.285956,10881.027347,3217.601092
598.623621,1554.432478,8216.285956,-1225.752797
598.623941,2146.597232,5551.544565,-2528.115143
598.624262,5921.647536,7402.059420,-1608.800546
598.624582,5403.503377,7846.182985,1532.190996
598.624903,5477.523971,9104.533087,1991.848295
598.625223,7994.224174,11695.253884,-1915.238745
598.625544,6513.812290,12657.521608,-2145.067394
598.625864,3997.112087,10732.986159,689.485948
598.626184,5551.544565,8142.265362,306.438199
598.626505,5625.565159,6439.791695,1532.190996
598.626825,5403.503377,6291.750507,3447.429741
598.627146,4663.297435,5033.400406,1532.190996
598.627466,2812.782580,4367.215058,-1762.019645
598.627787,2590.720797,5181.441594,-1149.143247
598.628107,4367.215058,4885.359217,0.000000
598.628428,6661.853478,5625.565159,-1915.238745
598.628748,5995.668130,9622.677246,-2221.676944
598.629069,6217.729913,12509.480420,-1838.629195
598.629389,6513.812290,11251.130318,-1991.848295
598.629710,7476.080014,10955.047942,229.828649
598.630030,5329.482782,9622.677246,459.657299
598.630351,4441.235652,8068.244768,-1072.533697
598.630671,4663.297435,7476.080014,-153.219100
598.630992,3330.926739,6661.853478,1149.143247
598.631312,2368.659014,5847.626942,383.047749
598.631633,2812.782580,7105.977043,-766.095498
598.631953,2812.782580,6661.853478,-766.095498
598.632274,4219.173869,4663.297435,1072.533697
598.632594,6883.915261,6513.812290,2068.457845
598.632915,5773.606348,9918.759623,-459.657299
598.633235,4737.318029,11473.192101,-1838.629195
598.633556,8290.306550,12953.603985,153.219100
598.633876,9474.636058,11325.150913,1991.848295
598.634196,7476.080014,9474.636058,2221.676944
598.634517,7550.100608,10140.821405,2374.896044
598.634837,3849.070898,8364.327145,842.705048
598.635158,1406.391290,6957.935855,1149.143247
598.635478,4515.256246,6957.935855,612.876398
598.635799,4589.276840,4367.215058,-995.924147
598.636119,3256.906145,1628.453072,612.876398
598.636440,5773.606348,4441.235652,1455.581446
598.636760,5995.668130,10436.903782,1072.533697
598.637081,4219.173869,13915.871710,153.219100
598.637401,6365.771101,12139.377449,-689.485948
598.637722,8586.388927,8956.491898,995.924147
598.638042,7402.059420,8882.471304,3677.258390
598.638363,3108.864956,9030.512492,1762.019645
598.638683,962.267725,6143.709319,-1608.800546
598.639004,2664.741391,6217.729913,-2451.505594
598.639324,3997.112087,7772.162391,0.000000
598.639645,3997.112087,7031.956449,-995.924147
598.639965,2442.679609,4441.235652,-995.924147
598.640286,3552.988522,5329.482782,1608.800546
598.640606,5403.503377,8216.285956,2987.772442
598.640927,5403.503377,9474.636058,536.266849
598.641247,3775.050304,9178.553681,-2528.115143
598.641568,7698.141797,9770.718434,-306.438199
598.641888,9178.553681,9030.512492,3830.477490
598.642208,4959.379811,6439.791695,3447.429741
598.642529,3034.844362,5921.647536,-383.047749
598.642849,5255.462188,6439.791695,-2068.457845
598.643170,4071.132681,6069.688724,-153.219100
598.643490,4367.215058,4737.318029,612.876398
598.643811,5329.482782,3330.926739,-2221.676944
598.644131,6365.771101,5107.421000,-1532.190996
598.644452,5921.647536,7105.977043,1378.971896
598.644772,5773.606348,10288.862594,-1149.143247
598.645093,6069.688724,11991.336260,-2451.505594
598.645413,5995.668130,11547.212695,-1608.800546
598.645734,7254.018232,7476.080014,-1378.971896
598.646054,6217.729913,6217.729913,-2068.457845
598.646375,2960.823768,7254.018232,-2681.334243
598.646695,2738.761985,7105.977043,-2221.676944
598.647016,5773.606348,9326.594869,-919.314598
598.647336,4145.153275,10066.800811,306.438199
598.647657,2072.576638,11473.192101,-76.609550
598.647977,4071.132681,11103.089130,306.438199
598.648298,3849.070898,10732.986159,2451.505594
598.648618,3775.050304,9178.553681,3983.696590
598.648939,4071.132681,8290.306550,229.828649
598.649259,3552.988522,7328.038826,-3600.648841
598.649580,2590.720797,6217.729913,-2681.334243
598.649900,6735.874072,8438.347739,0.000000
598.650220,7402.059420,10584.944971,-1378.971896
598.650541,5403.503377,11547.212695,-2451.505594
598.650861,6291.750507,11547.212695,-229.828649
598.651182,8142.265362,11029.068536,1838.629195
598.651502,5921.647536,9992.780217,2911.162892
598.651823,4959.379811,8512.368333,-76.609550
598.652143,5551.544565,7105.977043,-3064.381992
598.652464,6291.750507,5329.482782,-1685.410096
598.652784,5773.606348,4589.276840,-459.657299
598.653105,6661.853478,5773.606348,-2374.896044
598.653425,5625.565159,7402.059420,-2145.067394
598.653746,6069.688724,7105.977043,76.609550
598.654066,6143.709319,8586.388927,1838.629195
598.654387,6069.688724,8512.368333,1072.533697
598.654707,5403.503377,8882.471304,-153.219100
598.655028,7105.977043,10066.800811,153.219100
598.655348,6143.709319,11103.089130,-306.438199
598.655669,3552.988522,9770.718434,-2221.676944
598.655989,4959.379811,7476.080014,-2834.553343
598.656310,4811.338623,5329.482782,-689.485948
598.656630,3775.050304,4219.173869,3294.210641
598.656951,2368.659014,5329.482782,3830.477490
598.657271,2072.576638,6809.894666,-536.266849
598.657592,2072.576638,6809.894666,-536.266849
598.657912,4811.338623,7846.182985,2834.553343
598.658232,7328.038826,9178.553681,3294.210641
598.658553,4589.276840,8882.471304,1991.848295
598.658873,4071.132681,8882.471304,-1072.533697
598.659194,6513.812290,7328.038826,-2834.553343
598.659514,4737.318029,4959.379811,-1608.800546
598.659835,3182.885551,4663.297435,1685.410096
598.660155,7105.977043,8956.491898,1991.848295
598.660476,5847.626942,8882.471304,536.266849
598.660796,3108.864956,7402.059420,-1072.533697
598.661117,3108.864956,4959.379811,-2911.162892
598.661437,5255.462188,6069.688724,-1302.362347
598.661758,6291.750507,7179.997637,2987.772442
598.662078,5181.441594,6809.894666,1072.533697
598.662399,5625.565159,8068.244768,-3830.477490
598.662719,6365.771101,10288.862594,-4596.572988
598.663040,4219.173869,9326.594869,-1762.019645
598.663360,4885.359217,7846.182985,-766.095498
598.663681,5921.647536,9030.512492,229.828649
598.664001,3627.009116,10066.800811,1685.410096
598.664322,3034.844362,9992.780217,1991.848295
598.664642,3478.967927,9400.615463,1838.629195
598.664963,1776.494261,9474.636058,766.095498
598.665283,1258.350101,7846.182985,-459.657299
598.665604,3627.009116,4959.379811,-2145.067394
598.665924,6143.709319,5699.585753,-766.095498
598.666245,5773.606348,9696.697840,1149.143247
598.666565,4885.359217,11473.192101,-306.438199
598.666885,5699.585753,11991.336260,-2221.676944
598.667206,6809.894666,12065.356855,-229.828649
598.667526,6513.812290,10881.027347,842.705048
598.667847,5625.565159,7994.224174,-229.828649
598.668167,5329.482782,9252.574275,-1455.581446
598.668488,3478.967927,8808.450710,153.219100
598.668808,4219.173869,7402.059420,-1532.190996
598.669129,5551.544565,6439.791695,-3907.087040
598.669449,4663.297435,7698.141797,-3294.210641
598.669770,6587.832884,9030.512492,995.924147
598.670090,6365.771101,9326.594869,2834.553343
598.670411,6143.709319,8586.388927,383.047749
598.670731,6439.791695,9844.739029,-536.266849
598.671052,5551.544565,8660.409521,-229.828649
598.671372,4515.256246,5255.462188,612.876398
598.671693,4663.297435,4811.338623,76.609550
598.672013,4071.132681,7328.038826,-2221.676944
598.672334,3997.112087,8512.368333,-3064.381992
598.672654,5255.462188,7920.203579,-3677.258390
598.672975,5255.462188,8512.368333,-3064.381992
598.673295,5699.585753,10140.821405,-1072.533697
598.673616,5403.503377,9326.594869,-612.876398
598.673936,5625.565159,7994.224174,-76.609550
598.674257,4885.359217,8512.368333,3524.039291
598.674577,5107.421000,9548.656652,4213.525239
598.674897,4959.379811,8586.388927,0.000000
598.675218,3478.967927,5403.503377,-1838.629195
598.675538,3256.906145,5551.544565,0.000000
598.675859,4959.379811,6587.832884,1685.410096
598.676179,4071.132681,6735.874072,1915.238745
598.676500,4071.132681,6513.812290,919.314598
598.676820,5181.441594,8290.306550,-689.485948
598.677141,5699.585753,11843.295072,-306.438199
598.677461,5255.462188,11029.068536,612.876398
598.677782,5773.606348,7402.059420,-306.438199
598.678102,8290.306550,6439.791695,-1762.019645
598.678423,5329.482782,7772.162391,-1608.800546
598.678743,3775.050304,10214.842000,383.047749
598.679064,4515.256246,9918.759623,1455.581446
598.679384,3997.112087,7031.956449,1685.410096
598.679705,3182.885551,3849.070898,1608.800546
598.680025,1998.556043,2664.741391,-612.876398
598.680346,962.267725,4737.318029,-1608.800546
598.680666,4367.215058,8586.388927,1302.362347
598.680987,5181.441594,10510.924376,-1685.410096
598.681307,3775.050304,8660.409521,-6741.640382
598.681628,4959.379811,9696.697840,-3217.601092
598.681948,5255.462188,10658.965565,2757.943793
598.682269,6069.688724,10362.883188,4903.011187
598.682589,2590.720797,8734.430116,0.000000
598.682909,2590.720797,8512.368333,-4903.011187
598.683230,5921.647536,8956.491898,-1302.362347
598.683550,5847.626942,8068.244768,4290.134789
598.683871,3997.112087,5329.482782,3907.087040
598.684191,6365.771101,5699.585753,-536.266849
598.684512,5329.482782,5773.606348,-2834.553343
598.684832,1850.514855,3775.050304,-1149.143247
598.685153,6069.688724,5181.441594,1302.362347
598.685473,10807.006753,11473.192101,1302.362347
598.685794,6217.729913,11769.274478,-1915.238745
598.686114,6069.688724,10510.924376,-3677.258390
598.686435,11177.109724,13101.645173,-2374.896044
598.686755,7105.977043,11473.192101,1225.752797
598.687076,4515.256246,8142.265362,2834.553343
598.687396,8882.471304,7105.977043,0.000000
598.687717,4959.379811,7105.977043,-3294.210641
598.688037,2516.700203,7402.059420,0.000000
598.688358,5255.462188,7179.997637,1302.362347
598.688678,4959.379811,5921.647536,383.047749
598.688999,3997.112087,6809.894666,919.314598
598.689319,5255.462188,8956.491898,-1149.143247
598.689640,3108.864956,9474.636058,-2911.162892
598.689960,4737.318029,10288.862594,1378.971896
598.690281,4959.379811,8068.244768,3140.991542
598.690601,3552.988522,5995.668130,-842.705048
598.690921,2960.823768,9178.553681,-2528.115143
598.691242,2738.761985,11177.109724,-1378.971896
598.691562,3478.967927,9178.553681,-1302.362347
598.691883,6069.688724,7476.080014,-1149.143247
598.692203,4441.235652,8364.327145,-1378.971896
598.692524,1776.494261,6957.935855,-229.828649
598.692844,4441.235652,6735.874072,1685.410096
598.693165,3997.112087,6735.874072,842.705048
598.693485,4885.359217,7179.997637,-995.924147
598.693806,7031.956449,8290.306550,-1915.238745
598.694126,5329.482782,6957.935855,-1838.629195
598.694447,5033.400406,6883.915261,0.000000
598.694767,7698.141797,7994.224174,1991.848295
598.695087,6735.874072,8734.430116,-1608.800546
598.695408,5625.565159,9548.656652,-2834.553343
598.695728,7994.224174,11769.274478,766.095498
598.696049,7698.141797,10807.006753,2834.553343
598.696369,5329.482782,8808.450710,2911.162892
598.696690,6809.894666,8216.285956,1685.410096
598.697010,4589.276840,6365.771101,76.609550
598.697331,3330.926739,4219.173869,536.266849
598.697651,4293.194464,4219.173869,1455.581446
598.697972,4737.318029,4515.256246,1302.362347
598.698292,4737.318029,5403.503377,306.438199
598.698612,5107.421000,9030.512492,-1225.752797
598.698933,4515.256246,11843.295072,-1991.848295
598.699253,3404.947333,12435.459826,-842.705048
598.699574,7105.977043,11991.336260,-842.705048
598.699894,4663.297435,8364.327145,-1762.019645
598.700215,4071.132681,7920.203579,689.485948
598.700535,3034.844362,9696.697840,3064.381992
598.700856,1924.535449,9178.553681,1991.848295
598.701176,666.185348,6809.894666,459.657299
598.701497,2146.597232,5625.565159,-995.924147
598.701817,2146.597232,5551.544565,-1072.533697
598.702137,2442.679609,5181.441594,766.095498
598.702458,5921.647536,6957.935855,2221.676944
598.702778,5847.626942,7772.162391,-536.266849
598.703099,5033.400406,8142.265362,-2451.505594
598.703419,7105.977043,9474.636058,-1608.800546
598.703740,8808.450710,10955.047942,1225.752797
598.704060,7772.162391,10658.965565,1302.362347
598.704381,8216.285956,8734.430116,-153.219100
598.704701,8734.430116,9400.615463,-536.266849
598.705022,5773.606348,7698.141797,1225.752797
598.705342,4071.132681,4737.318029,1762.019645
598.705662,4663.297435,1332.370696,-1455.581446
598.705983,5181.441594,2072.576638,-1915.238745
598.706303,5773.606348,5847.626942,383.047749
598.706624,6143.709319,7772.162391,0.000000
598.706944,7031.956449,9770.718434,-612.876398
598.707265,7772.162391,11621.233289,536.266849
598.707585,6661.853478,10584.944971,-1378.971896
598.707906,5625.565159,7550.100608,-1838.629195
598.708226,5107.421000,8660.409521,-842.705048
598.708547,4367.215058,9844.739029,-612.876398
598.708867,4293.194464,9178.553681,-153.219100
598.709188,3701.029710,7846.182985,-842.705048
598.709508,3552.988522,8216.285956,-1302.362347
598.709828,1110.308913,8216.285956,-1225.752797
598.710149,1850.514855,6587.832884,229.828649
598.710469,4737.318029,7105.977043,1455.581446
598.710790,4811.338623,8586.388927,1378.971896
598.711110,4293.194464,10362.883188,-919.314598
598.711431,4959.379811,10140.821405,-1685.410096
598.711751,5699.585753,11473.192101,-306.438199
598.712072,4145.153275,10288.862594,2298.286494
598.712392,4515.256246,8512.368333,2681.334243
598.712713,3849.070898,9030.512492,536.266849
598.713033,3923.091493,10214.842000,1072.533697
598.713353,3256.906145,8734.430116,1915.238745
598.713674,3404.947333,7328.038826,-1915.238745
598.713994,3182.885551,5995.668130,-3753.867940
598.714315,5403.503377,7254.018232,-306.438199
598.714635,6735.874072,9178.553681,3370.820191
598.714956,6809.894666,10140.821405,2221.676944
598.715276,6291.750507,9992.780217,-1302.362347
598.715597,7476.080014,9400.615463,-2757.943793
598.715917,7105.977043,6291.750507,-536.266849
598.716238,6883.915261,5033.400406,2145.067394
598.716558,7476.080014,6883.915261,1838.629195
598.716878,7846.182985,8808.450710,-229.828649
598.717199,4959.379811,6957.935855,-2604.724693
598.717519,5403.503377,7402.059420,-1838.629195
598.717840,5995.668130,6957.935855,995.924147
598.718160,6069.688724,5107.421000,919.314598
598.718481,7846.182985,7105.977043,459.657299
598.718801,4219.173869,6957.935855,76.609550
598.719122,2664.741391,5551.544565,0.000000
598.719442,6143.709319,4885.359217,1072.533697
598.719763,5181.441594,5773.606348,1072.533697
598.720083,3108.864956,7179.997637,766.095498
598.720403,4589.276840,9030.512492,-383.047749
598.720724,5033.400406,10362.883188,-1991.848295
598.721044,2368.659014,8882.471304,383.047749
598.721365,3256.906145,6439.791695,1532.190996
598.721685,5107.421000,6069.688724,-306.438199
598.722006,1702.473667,7624.121203,-842.705048
598.722326,2072.576638,10732.986159,-842.705048
598.722647,5625.565159,9770.718434,-306.438199
598.722967,2738.761985,6439.791695,153.219100
598.723288,2738.761985,4737.318029,1072.533697
598.723608,4663.297435,7105.977043,0.000000
598.723928,3108.864956,7846.182985,-1608.800546
598.724249,1702.473667,7105.977043,-2221.676944
598.724569,6661.853478,9104.533087,-1685.410096
598.724890,9548.656652,14508.036463,153.219100
598.725210,4811.338623,13841.851115,766.095498
598.725531,3701.029710,8586.388927,-2068.457845
598.725851,7179.997637,7476.080014,-1149.143247
598.726172,5625.565159,8290.306550,2068.457845
598.726492,4663.297435,7402.059420,1762.019645
598.726813,6217.729913,6587.832884,-995.924147
598.727133,4441.235652,6883.915261,-2374.896044
598.727454,6069.688724,8364.327145,995.924147
598.727774,7550.100608,8216.285956,842.705048
598.728094,6661.853478,6439.791695,153.219100
598.728415,6883.915261,10436.903782,1302.362347
598.728735,8586.388927,11917.315666,612.876398
598.729056,5625.565159,10584.944971,-2757.943793
598.729376,5181.441594,9104.533087,-2145.067394
598.729697,8142.265362,9992.780217,-689.485948
598.730017,5255.462188,8660.409521,-383.047749
598.730338,2294.638420,5847.626942,-689.485948
598.730658,3627.009116,6957.935855,-1532.190996
598.730979,4515.256246,6883.915261,-229.828649
598.731299,1628.453072,6365.771101,1991.848295
598.731619,3182.885551,6217.729913,995.924147
598.731940,4219.173869,7105.977043,-1608.800546
598.732260,3182.885551,8142.265362,-1225.752797
598.732581,4589.276840,8142.265362,-1225.752797
598.732901,4441.235652,9326.594869,-3753.867940
598.733222,4663.297435,11621.233289,-2604.724693
598.733542,4145.153275,10362.883188,-842.705048
598.733863,4071.132681,7402.059420,-995.924147
598.734183,4663.297435,7920.203579,689.485948
598.734504,3108.864956,8660.409521,2298.286494
598.734824,1332.370696,7254.018232,-459.657299
598.735144,3923.091493,5995.668130,-1149.143247
598.735465,5477.523971,5107.421000,-612.876398
598.735785,5847.626942,5107.421000,0.000000
598.736106,6957.935855,6809.894666,383.047749
598.736426,6809.894666,9178.553681,0.000000
598.736747,7624.121203,10140.821405,-1149.143247
598.737067,7772.162391,7772.162391,-766.095498
598.737388,6809.894666,6957.935855,0.000000
598.737708,7179.997637,8142.265362,1608.800546
598.738029,6439.791695,9622.677246,2451.505594
598.738349,5625.565159,9252.574275,0.000000
598.738669,4737.318029,8364.327145,-1762.019645
598.738990,3849.070898,7476.080014,-306.438199
598.739310,5033.400406,6661.853478,2145.067394
598.739631,4959.379811,6439.791695,2145.067394
598.739951,3627.009116,7402.059420,-306.438199
598.740272,4515.256246,8512.368333,-2298.286494
598.740592,4367.215058,7550.100608,-1915.238745
598.740913,3775.050304,7328.038826,459.657299
598.741233,5995.668130,10362.883188,1455.581446
598.741554,3701.029710,10214.842000,919.314598
598.741874,2960.823768,9844.739029,-229.828649
598.742194,3182.885551,7920.203579,-1378.971896
598.742515,3108.864956,8364.327145,-1991.848295
598.742835,1036.288319,6809.894666,-1532.190996
598.743156,4885.359217,6439.791695,-1225.752797
598.743476,7179.997637,8216.285956,-1608.800546
598.743797,4589.276840,9696.697840,-995.924147
598.744117,3034.844362,6587.832884,459.657299
598.744438,5329.482782,6661.853478,0.000000
598.744758,4959.379811,4885.359217,-306.438199
598.745079,5033.400406,6809.894666,-76.609550
598.745399,6587.832884,7328.038826,-2757.943793
598.745720,5921.647536,7476.080014,-3677.258390
598.746040,6143.709319,8660.409521,-2145.067394
598.746360,5403.503377,7402.059420,-1532.190996
598.746681,4737.318029,5995.668130,-3830.477490
598.747001,4515.256246,4885.359217,-4213.525239
598.747322,7105.977043,7624.121203,-3370.820191
598.747642,7402.059420,10510.924376,-3753.867940
598.747963,5625.565159,10732.986159,-3294.210641
598.748283,5625.565159,7624.121203,-1302.362347
598.748604,7105.977043,7846.182985,0.000000
598.748924,5255.462188,7846.182985,459.657299
598.749245,2220.617826,6217.729913,-3830.477490
598.749565,3701.029710,4663.297435,-7354.516781
598.749885,5181.441594,5329.482782,-5362.668486
598.750206,4367.215058,5847.626942,-3753.867940
598.750526,7920.203579,8512.368333,-4443.353888
598.750847,4737.318029,10436.903782,-6741.640382
598.751167,4145.153275,13027.624579,-5898.935335
598.751488,8290.306550,15322.262999,-1608.800546
598.751808,6069.688724,12213.398043,-612.876398
598.752129,4737.318029,10288.862594,-2911.162892
598.752449,4737.318029,8290.306550,-2757.943793
598.752770,1776.494261,6217.729913,-4136.915689
598.753090,1554.432478,4885.359217,-3217.601092
598.753410,2960.823768,5773.606348,-3524.039291
598.753731,2960.823768,6365.771101,-4826.401637
598.754051,3923.091493,7105.977043,-3600.648841
598.754372,5033.400406,8512.368333,-4443.353888
598.754692,4811.338623,9474.636058,-5056.230287
598.755013,6291.750507,10807.006753,-2911.162892
598.755333,7550.100608,10510.924376,-4060.306139
598.755654,7476.080014,10732.986159,-8197.221829
598.755974,7402.059420,11399.171507,-8580.269578
598.756295,7994.224174,11769.274478,-6665.030833
598.756615,8068.244768,9770.718434,-4596.572988
598.756935,4145.153275,6957.935855,-2451.505594
598.757256,3108.864956,4737.318029,-2528.115143
598.757576,3034.844362,3404.947333,-2987.772442
598.757897,1702.473667,3182.885551,-3600.648841
598.758217,2590.720797,3404.947333,-4826.401637
598.758538,5033.400406,5551.544565,-5822.325785
598.758858,5625.565159,7698.141797,-6358.592633
598.759179,7476.080014,10732.986159,-5669.106685
598.759499,8364.327145,13619.789333,-5286.058936
598.759820,6291.750507,13767.830521,-6741.640382
598.760140,4663.297435,10584.944971,-6511.811733
598.760460,6291.750507,6439.791695,-5056.230287
598.760781,5773.606348,3627.009116,-1455.581446
598.761101,2960.823768,4367.215058,-536.266849
598.761422,3627.009116,6809.894666,-4136.915689
598.761742,2146.597232,7328.038826,-7048.078582
598.762063,4145.153275,8512.368333,-7354.516781
598.762383,6661.853478,6587.832884,-6818.249932
598.762704,5033.400406,4145.153275,-4749.792088
598.763024,6809.894666,6957.935855,-766.095498
598.763345,7031.956449,11473.192101,-2374.896044
598.763665,2368.659014,10955.047942,-5975.544884
598.763985,2886.803174,8512.368333,-6128.763984
598.764306,6587.832884,6809.894666,-4903.011187
598.764626,5033.400406,6957.935855,-4443.353888
598.764947,3404.947333,10288.862594,-4673.182538
598.765267,4441.235652,12139.377449,-8350.440928
598.765588,3552.988522,11251.130318,-9806.022374
598.765908,3478.967927,8512.368333,-4136.915689
598.766229,4515.256246,2812.782580,-1302.362347
598.766549,4441.235652,2220.617826,-3140.991542
598.766870,3256.906145,7698.141797,-3983.696590
598.767190,4145.153275,12435.459826,-5132.839837
598.767511,7179.997637,13471.748144,-7124.688131
598.767831,9548.656652,11769.274478,-5362.668486
598.768151,5699.585753,6957.935855,-3217.601092
598.768472,3404.947333,6291.750507,-3447.429741
598.768792,2368.659014,5921.647536,-3830.477490
598.769113,1406.391290,5625.565159,-4749.792088
598.769433,4145.153275,5847.626942,-5975.544884
598.769754,9104.533087,7476.080014,-7124.688131
598.770074,7179.997637,7994.224174,-6971.469032
598.770395,4441.235652,9252.574275,-5669.106685
598.770715,6143.709319,10288.862594,-4290.134789
598.771036,7105.977043,9696.697840,-5592.497135
598.771356,6143.709319,6809.894666,-4749.792088
598.771676,6735.874072,3923.091493,-6052.154434
598.771997,7179.997637,4589.276840,-6511.811733
598.772317,4663.297435,6809.894666,-5822.325785
598.772638,3108.864956,8734.430116,-6358.592633
598.772958,5625.565159,10732.986159,-6281.983084
598.773279,6365.771101,10510.924376,-3524.039291
598.773599,5255.462188,9992.780217,-2451.505594
598.773920,4293.194464,8512.368333,-3830.477490
598.774240,2516.700203,6513.812290,-6894.859482
598.774561,1554.432478,3701.029710,-6052.154434
598.774881,5921.647536,5329.482782,-4519.963438
598.775201,6513.812290,8660.409521,-5209.449386
598.775522,4219.173869,10955.047942,-6435.202183
598.775842,5625.565159,12953.603985,-7431.126331
598.776163,6513.812290,13027.624579,-6205.373534
598.776483,4737.318029,10881.027347,-2757.943793
598.776804,5847.626942,7105.977043,-306.438199
598.777124,5773.606348,4515.256246,-2604.724693
598.777445,1480.411884,4959.379811,-4749.792088
598.777765,1628.453072,6957.935855,-6052.154434
598.778086,3701.029710,8364.327145,-7660.954980
598.778406,6587.832884,9474.636058,-7124.688131
598.778726,6809.894666,8956.491898,-5362.668486
598.779047,6809.894666,7846.182985,-5132.839837
598.779367,4811.338623,7328.038826,-5209.449386
598.779688,1998.556043,6587.832884,-5132.839837
598.780008,4737.318029,6661.853478,-5209.449386
598.780329,7105.977043,7994.224174,-5975.544884
598.780649,6513.812290,8882.471304,-7660.954980
598.780970,7402.059420,9400.615463,-7890.783629
598.781290,7772.162391,9474.636058,-6588.421283
598.781611,5699.585753,7105.977043,-5439.278036
598.781931,3627.009116,4515.256246,-4903.011187
598.782251,5255.462188,5107.421000,-4213.525239
598.782572,5255.462188,7772.162391,-2911.162892
598.782892,4145.153275,9770.718434,-1991.848295
598.783213,3182.885551,8660.409521,-4136.915689
598.783533,3552.988522,7920.203579,-5975.544884
598.783854,3775.050304,7920.203579,-6128.763984
598.784174,1776.494261,6661.853478,-5745.716235
598.784495,2294.638420,6365.771101,-5669.106685
598.784815,4737.318029,8660.409521,-4290.134789
598.785136,6069.688724,12139.377449,-3677.258390
598.785456,3404.947333,11029.068536,-4903.011187
598.785777,6291.750507,10955.047942,-6052.154434
598.786097,6143.709319,9474.636058,-4826.401637
598.786417,5995.668130,7254.018232,-3524.039291
598.786738,5995.668130,4811.338623,-4213.525239
598.787058,7402.059420,5551.544565,-6205.373534
598.787379,4737.318029,6587.832884,-6665.030833
598.787699,6809.894666,8734.430116,-5056.230287
598.788020,7920.203579,8882.471304,-4213.525239
598.788340,7254.018232,7846.182985,-3983.696590
598.788661,6069.688724,5847.626942,-4673.182538
598.788981,5107.421000,5921.647536,-5439.278036
598.789302,4293.194464,7179.997637,-5209.449386
598.789622,4885.359217,8734.430116,-4673.182538
598.789942,6883.915261,9474.636058,-6818.249932
598.790263,5625.565159,9992.780217,-7737.564530
598.790583,4293.194464,10214.842000,-6588.421283
598.790904,2368.659014,9474.636058,-5286.058936
598.791224,2442.679609,6735.874072,-5286.058936
598.791545,2146.597232,5773.606348,-4903.011187
598.791865,2812.782580,5921.647536,-5209.449386
598.792186,2738.761985,6439.791695,-5975.544884
598.792506,3108.864956,6809.894666,-6665.030833
598.792827,4441.235652,7179.997637,-6741.640382
598.793147,4885.359217,7698.141797,-7124.688131
598.793468,4589.276840,8660.409521,-6818.249932
598.793789,6217.729913,8512.368333,-7277.907231
598.794109,6957.935855,8216.285956,-6511.811733
598.794430,7105.977043,7105.977043,-5592.497135
598.794750,6513.812290,7772.162391,-5745.716235
598.795071,6809.894666,9992.780217,-6281.983084
598.795391,5625.565159,10140.821405,-6358.592633
598.795712,6143.709319,7698.141797,-6205.373534
598.796032,6069.688724,4959.379811,-6128.763984
598.796353,4737.318029,3775.050304,-5745.716235
598.796673,4589.276840,5773.606348,-6741.640382
598.796994,5033.400406,8586.388927,-7814.174080
598.797314,5181.441594,10510.924376,-8044.002729
598.797635,7179.997637,11325.150913,-5898.935335
598.797955,7476.080014,11177.109724,-4673.182538
598.798276,5773.606348,10807.006753,-4136.915689
598.798596,4071.132681,9992.780217,-4136.915689
598.798917,4441.235652,9178.553681,-5286.058936
598.799237,4959.379811,7920.203579,-5209.449386
598.799558,4663.297435,7994.224174,-4213.525239
598.799878,4737.318029,8142.265362,-4596.572988
598.800199,3701.029710,8364.327145,-4979.620737
598.800520,2368.659014,7402.059420,-5132.839837
598.800840,4071.132681,6439.791695,-5975.544884
598.801161,5625.565159,6587.832884,-6818.249932
598.801481,5625.565159,9252.574275,-5822.325785
598.801802,6069.688724,11621.233289,-5286.058936
598.802122,6587.832884,12065.356855,-5209.449386
598.802443,6661.853478,10955.047942,-4519.963438
598.802763,6957.935855,9474.636058,-4903.011187
598.803084,6439.791695,9622.677246,-4903.011187
598.803404,5107.421000,8438.347739,-4596.572988
598.803725,2664.741391,5477.523971,-4290.134789
598.804045,4441.235652,4737.318029,-4443.353888
598.804366,5033.400406,5699.585753,-3600.648841
598.804686,2664.741391,6513.812290,-3140.991542
598.805007,2812.782580,8216.285956,-4366.744339
598.805327,3775.050304,7920.203579,-5898.935335
598.805648,3701.029710,6809.894666,-4903.011187
598.805968,5403.503377,6587.832884,-3830.477490
598.806289,5773.606348,7846.182985,-4136.915689
598.806609,3182.885551,10214.842000,-5898.935335
598.806930,4737.318029,11473.192101,-4903.011187
598.807251,6439.791695,10140.821405,-4519.963438
598.807571,4293.194464,7179.997637,-2374.896044
598.807892,4589.276840,6069.688724,-1302.362347
598.808212,4219.173869,6217.729913,-3064.381992
598.808533,1998.556043,5255.462188,-5286.058936
598.808853,2886.803174,3775.050304,-5056.230287
598.809174,4959.379811,2738.761985,-4596.572988
598.809494,4811.338623,3182.885551,-3677.258390
598.809815,4737.318029,5181.441594,-4136.915689
598.810135,6217.729913,8882.471304,-6971.469032
598.810456,6809.894666,10510.924376,-7737.564530
598.810776,7846.182985,10807.006753,-6511.811733
598.811097,8216.285956,9696.697840,-5286.058936
598.811417,7105.977043,7846.182985,-3983.696590
598.811738,5551.544565,7328.038826,-3294.210641
598.812058,3775.050304,6883.915261,-4673.182538
598.812379,3256.906145,6069.688724,-6588.421283
598.812699,3701.029710,6809.894666,-6205.373534
598.813020,4441.235652,7550.100608,-5515.887586
598.813340,4737.318029,7402.059420,-4826.401637
598.813661,4589.276840,7402.059420,-3907.087040
598.813982,3108.864956,7328.038826,-4290.134789
598.814302,3404.947333,7105.977043,-5592.497135
598.814623,5773.606348,8734.430116,-5822.325785
598.814943,6513.812290,11103.089130,-6358.592633
598.815264,5773.606348,12583.501014,-7048.078582
598.815584,7031.956449,13471.748144,-5975.544884
598.815905,6217.729913,12879.583391,-4826.401637
598.816225,3923.091493,11325.150913,-3677.258390
598.816546,3256.906145,7920.203579,-3447.429741
598.816866,2812.782580,4959.379811,-5056.230287
598.817187,2220.617826,3330.926739,-6435.202183
598.817507,2886.803174,4441.235652,-6435.202183
598.817828,4959.379811,7031.956449,-6358.592633
598.818148,5551.544565,9104.533087,-6358.592633
598.818469,7031.956449,10510.924376,-7124.688131
598.818789,7402.059420,10732.986159,-7584.345430
598.819110,6883.915261,9474.636058,-7124.688131
598.819430,6587.832884,8808.450710,-5592.497135
598.819751,7105.977043,8586.388927,-5975.544884
598.820071,7179.997637,9326.594869,-7124.688131
598.820392,6587.832884,10510.924376,-7431.126331
598.820713,5921.647536,10288.862594,-7124.688131
598.821033,5329.482782,8882.471304,-6435.202183
598.821354,4515.256246,7402.059420,-4673.182538
598.821674,3404.947333,5255.462188,-3370.820191
598.821995,2960.823768,4737.318029,-2911.162892
598.822315,3404.947333,5033.400406,-3447.429741
598.822636,4885.359217,7179.997637,-4443.353888
598.822956,4959.379811,9178.553681,-5515.887586
598.823277,5403.503377,10807.006753,-5822.325785
598.823597,6735.874072,11917.315666,-5898.935335
598.823918,7105.977043,11177.109724,-4519.963438
598.824238,6513.812290,9548.656652,-2987.772442
598.824559,4959.379811,7328.038826,-2451.505594
598.824879,5107.421000,6439.791695,-3677.258390
598.825200,4367.215058,6439.791695,-3524.039291
598.825520,3775.050304,6291.750507,-3677.258390
598.825841,4515.256246,6069.688724,-4826.401637
598.826161,5995.668130,6291.750507,-4979.620737
598.826482,6069.688724,6957.935855,-4826.401637
598.826802,5107.421000,7254.018232,-4826.401637
598.827123,5107.421000,7402.059420,-4749.792088
598.827444,5995.668130,8068.244768,-4290.134789
598.827764,6365.771101,9992.780217,-3294.210641
598.828085,5773.606348,11029.068536,-2604.724693
598.828405,5403.503377,11325.150913,-2757.943793
598.828726,3775.050304,10214.842000,-2911.162892
598.829046,2146.597232,7031.956449,-2604.724693
598.829367,888.247130,3256.906145,-3830.477490
598.829687,1110.308913,1628.453072,-4673.182538
598.830008,1776.494261,2738.761985,-4749.792088
598.830328,2886.803174,5181.441594,-4596.572988
598.830649,3997.112087,7402.059420,-4979.620737
598.830969,5477.523971,9474.636058,-4673.182538
598.831290,6513.812290,11843.295072,-3064.381992
598.831610,6735.874072,12583.501014,-2221.676944
598.831931,5255.462188,11251.130318,-2911.162892
598.832251,5329.482782,9252.574275,-3907.087040
598.832572,4811.338623,7328.038826,-3677.258390
598.832892,3552.988522,5773.606348,-3447.429741
598.833213,2738.761985,4145.153275,-4213.525239
598.833533,2368.659014,3627.009116,-5745.716235
598.833854,2220.617826,3108.864956,-5515.887586
598.834175,3701.029710,3034.844362,-4673.182538
598.834495,6365.771101,4515.256246,-3677.258390
598.834816,7624.121203,8660.409521,-4213.525239
598.835136,7846.182985,12509.480420,-5975.544884
598.835457,8586.388927,14137.933492,-8427.050478
598.835777,9104.533087,13545.768739,-8963.317327
598.836098,8216.285956,11177.109724,-7507.735880
598.836418,6661.853478,8438.347739,-6435.202183
598.836739,5181.441594,5773.606348,-5209.449386
598.837059,5181.441594,6217.729913,-3447.429741
598.837380,2812.782580,7105.977043,-1762.019645
598.837700,1628.453072,8438.347739,-2528.115143
598.838021,2590.720797,8216.285956,-3294.210641
598.838341,3775.050304,8734.430116,-3217.601092
598.838662,2590.720797,6809.894666,-3753.867940
598.838982,4145.153275,5995.668130,-4673.182538
598.839303,5847.626942,7994.224174,-5515.887586
598.839623,5625.565159,10436.903782,-7584.345430
