#time,accel_x,accel_y,accel_z
199.824093,5033.400406,8068.244768,0.000000
199.824414,4811.338623,8142.265362,-153.219100
199.824734,4885.359217,8142.265362,0.000000
199.825055,4959.379811,7920.203579,-229.828649
199.825375,5255.462188,7920.203579,-459.657299
199.825696,4959.379811,7994.224174,229.828649
199.826017,4959.379811,8290.306550,-229.828649
199.826337,5181.441594,8068.244768,0.000000
199.826658,4959.379811,7772.162391,0.000000
199.826978,5107.421000,7994.224174,-153.219100
199.827299,5403.503377,7994.224174,-306.438199
199.827620,4885.359217,8068.244768,0.000000
199.827940,4811.338623,8142.265362,-306.438199
199.828261,4959.379811,8142.265362,0.000000
199.828581,5255.462188,8068.244768,0.000000
199.828902,4885.359217,8734.430116,76.609550
199.829223,4959.379811,8142.265362,0.000000
199.829543,4737.318029,8068.244768,-306.438199
199.829864,5033.400406,7994.224174,-306.438199
199.830184,4959.379811,7994.224174,0.000000
199.830505,5107.421000,7994.224174,-306.438199
199.830826,4885.359217,7846.182985,-306.438199
199.831146,4959.379811,7994.224174,-153.219100
199.831467,5033.400406,8068.244768,0.000000
199.831787,5329.482782,7920.203579,0.000000
199.832108,5329.482782,8142.265362,76.609550
199.832429,4959.379811,7994.224174,-306.438199
199.832749,5033.400406,8216.285956,-153.219100
199.833070,4811.338623,8142.265362,0.000000
199.833390,5033.400406,7846.182985,-383.047749
199.833711,5033.400406,8142.265362,-229.828649
199.834032,5033.400406,8068.244768,-153.219100
199.834352,4959.379811,8068.244768,-153.219100
199.834673,4885.359217,7994.224174,0.000000
199.834993,4885.359217,7402.059420,0.000000
199.835314,4145.153275,7476.080014,229.828649
199.835635,4071.132681,8438.347739,-229.828649
199.835955,4367.215058,9474.636058,-689.485948
199.836276,4589.276840,9992.780217,-1225.752797
199.836596,4663.297435,9844.739029,-1302.362347
199.836917,4589.276840,9104.533087,-842.705048
199.837238,3627.009116,8660.409521,229.828649
199.837558,3108.864956,8660.409521,919.314598
199.837879,2738.761985,9474.636058,842.705048
199.838199,2442.679609,9326.594869,153.219100
199.838520,2442.679609,8734.430116,-536.266849
199.838840,2960.823768,8734.430116,-383.047749
199.839161,3182.885551,9252.574275,-229.828649
199.839482,3108.864956,9770.718434,229.828649
199.839802,2590.720797,9400.615463,229.828649
199.840123,2738.761985,8956.491898,383.047749
199.840443,2590.720797,9178.553681,0.000000
199.840764,1850.514855,10807.006753,-766.095498
199.841085,1702.473667,11843.295072,-1302.362347
199.841405,1554.432478,11843.295072,-1991.848295
199.841726,1184.329507,11843.295072,-1149.143247
199.842046,148.041188,11177.109724,-995.924147
199.842367,-296.082377,11103.089130,-995.924147
199.842688,-1258.350101,11991.336260,-612.876398
199.843008,-1628.453072,12731.542202,229.828649
199.843329,-1776.494261,12657.521608,1378.971896
199.843649,-962.267725,11695.253884,1302.362347
199.843970,-1110.308913,11769.274478,1762.019645
199.844291,-1776.494261,12213.398043,1762.019645
199.844611,-2368.659014,11473.192101,612.876398
199.844932,-2072.576638,10807.006753,-766.095498
199.845252,-1332.370696,9918.759623,-689.485948
199.845573,-1036.288319,9992.780217,536.266849
199.845894,-518.144159,10362.883188,766.095498
199.846214,0.000000,10807.006753,0.000000
199.846535,444.123565,11621.233289,-995.924147
199.846855,1184.329507,11177.109724,-1378.971896
199.847176,2294.638420,10066.800811,-689.485948
199.847497,2960.823768,10510.924376,0.000000
199.847817,2886.803174,10214.842000,-689.485948
199.848138,2146.597232,10362.883188,-1915.238745
199.848458,1850.514855,9696.697840,-2604.724693
199.848779,1850.514855,9474.636058,-1838.629195
199.849100,2368.659014,9844.739029,-306.438199
199.849420,1776.494261,9770.718434,0.000000
199.849741,1480.411884,10510.924376,-842.705048
199.850061,740.205942,11473.192101,-153.219100
199.850382,148.041188,11103.089130,306.438199
199.850703,0.000000,10658.965565,383.047749
199.851023,-296.082377,10584.944971,536.266849
199.851344,0.000000,10584.944971,1149.143247
199.851664,-148.041188,10732.986159,1149.143247
199.851985,-1036.288319,11325.150913,842.705048
199.852305,-592.164754,11473.192101,766.095498
199.852626,370.102971,11473.192101,1762.019645
199.852947,1110.308913,11399.171507,1302.362347
199.853267,814.226536,11251.130318,0.000000
199.853588,888.247130,10584.944971,-995.924147
199.853908,1184.329507,9992.780217,-766.095498
199.854229,1628.453072,9178.553681,229.828649
199.854550,1406.391290,8438.347739,536.266849
199.854870,1850.514855,8586.388927,0.000000
199.855191,2368.659014,9696.697840,153.219100
199.855511,2590.720797,10955.047942,-383.047749
199.855832,2738.761985,11103.089130,-919.314598
199.856153,3404.947333,10288.862594,-1225.752797
199.856473,3478.967927,9696.697840,-1149.143247
199.856794,3330.926739,9622.677246,-689.485948
199.857114,2812.782580,9474.636058,-689.485948
199.857435,2220.617826,10584.944971,-1225.752797
199.857756,1480.411884,10881.027347,-919.314598
199.858076,1480.411884,11251.130318,-766.095498
199.858397,1184.329507,10732.986159,-689.485948
199.858717,222.061783,9992.780217,-1378.971896
199.859038,-1110.308913,9326.594869,-1532.190996
199.859359,-1258.350101,8734.430116,-612.876398
199.859679,-1554.432478,9104.533087,612.876398
199.860000,-518.144159,10214.842000,1455.581446
199.860320,296.082377,12065.356855,1915.238745
199.860641,592.164754,13471.748144,995.924147
199.860962,666.185348,13989.892304,919.314598
199.861282,1406.391290,12805.562797,0.000000
199.861603,1184.329507,10732.986159,0.000000
199.861923,1776.494261,9696.697840,-76.609550
199.862244,592.164754,9548.656652,-689.485948
199.862565,-444.123565,9326.594869,-1608.800546
199.862885,-1110.308913,9548.656652,-1915.238745
199.863206,-1628.453072,10288.862594,-1991.848295
199.863526,-1258.350101,10955.047942,-995.924147
199.863847,148.041188,12213.398043,153.219100
199.864168,1258.350101,13915.871710,306.438199
199.864488,222.061783,14359.995275,-689.485948
199.864809,444.123565,13989.892304,-459.657299
199.865129,518.144159,12879.583391,-383.047749
199.865450,740.205942,10881.027347,-536.266849
199.865771,962.267725,9104.533087,-459.657299
199.866091,1702.473667,8216.285956,-842.705048
199.866412,1258.350101,9326.594869,153.219100
199.866732,0.000000,10807.006753,919.314598
199.867053,-370.102971,11399.171507,1225.752797
199.867373,-370.102971,10288.862594,229.828649
199.867694,-222.061783,9326.594869,383.047749
199.868015,444.123565,9252.574275,766.095498
199.868335,740.205942,9844.739029,383.047749
199.868656,592.164754,12509.480420,-1072.533697
199.868976,370.102971,13323.706956,-1838.629195
199.869297,740.205942,13545.768739,-2451.505594
199.869618,1332.370696,13249.686362,-1608.800546
199.869938,518.144159,12953.603985,-306.438199
199.870259,222.061783,12287.418637,383.047749
199.870579,-370.102971,10510.924376,1225.752797
199.870900,74.020594,8808.450710,1915.238745
199.871221,-1184.329507,8142.265362,1838.629195
199.871541,-1554.432478,7846.182985,1072.533697
199.871862,-1924.535449,8586.388927,612.876398
199.872182,-1036.288319,9326.594869,-153.219100
199.872503,962.267725,9992.780217,76.609550
199.872824,3330.926739,10955.047942,0.000000
199.873144,2960.823768,11991.336260,-612.876398
199.873465,2590.720797,11843.295072,-1225.752797
199.873785,1924.535449,11843.295072,-1378.971896
199.874106,1184.329507,9252.574275,-2451.505594
199.874427,2220.617826,6143.709319,-1532.190996
199.874747,5625.565159,7920.203579,1838.629195
199.875068,3108.864956,11547.212695,1685.410096
199.875388,222.061783,13619.789333,-2068.457845
199.875709,888.247130,13545.768739,-3753.867940
199.876030,592.164754,11251.130318,-2911.162892
199.876350,-1110.308913,7105.977043,-536.266849
199.876671,-296.082377,5995.668130,612.876398
199.876991,370.102971,8734.430116,536.266849
199.877312,-1332.370696,14211.954086,536.266849
199.877633,-2664.741391,16580.613101,612.876398
199.877953,-666.185348,15322.262999,-459.657299
199.878274,0.000000,13767.830521,0.000000
199.878594,-814.226536,12139.377449,1532.190996
199.878915,-444.123565,11177.109724,1072.533697
199.879236,-1554.432478,9770.718434,153.219100
199.879556,-962.267725,9696.697840,-306.438199
199.879877,-370.102971,9918.759623,842.705048
199.880197,592.164754,10140.821405,1302.362347
199.880518,1036.288319,10288.862594,842.705048
199.880839,2442.679609,10732.986159,766.095498
199.881159,3627.009116,10584.944971,612.876398
199.881480,4293.194464,10955.047942,-1149.143247
199.881800,4663.297435,10362.883188,-1302.362347
199.882121,3923.091493,9622.677246,-1915.238745
199.882441,2294.638420,9548.656652,-2451.505594
199.882762,1406.391290,7624.121203,-2834.553343
199.883083,1776.494261,7846.182985,-1762.019645
199.883403,3775.050304,11103.089130,536.266849
199.883724,1776.494261,14211.954086,1532.190996
199.884044,148.041188,13989.892304,-919.314598
199.884365,148.041188,10955.047942,-2451.505594
199.884686,-1924.535449,9030.512492,-1072.533697
199.885006,-2812.782580,9252.574275,1302.362347
199.885327,-2664.741391,10288.862594,1762.019645
199.885647,-1480.411884,12879.583391,-536.266849
199.885968,-1406.391290,14952.160028,-766.095498
199.886288,-2590.720797,13915.871710,0.000000
199.886609,-2368.659014,11695.253884,612.876398
199.886929,-2220.617826,10510.924376,2374.896044
199.887250,-1480.411884,11769.274478,3830.477490
199.887570,-888.247130,11251.130318,1762.019645
199.887891,-370.102971,9400.615463,689.485948
199.888211,0.000000,9104.533087,995.924147
199.888532,1554.432478,8734.430116,1302.362347
199.888852,1850.514855,7402.059420,383.047749
199.889173,3034.844362,7476.080014,-1225.752797
199.889493,5255.462188,9326.594869,-1838.629195
199.889814,4441.235652,11029.068536,-2068.457845
199.890134,5477.523971,11399.171507,-1915.238745
199.890455,6069.688724,11029.068536,-1685.410096
199.890775,4737.318029,10066.800811,-1762.019645
199.891096,3108.864956,8660.409521,-2221.676944
199.891416,2146.597232,7402.059420,-2604.724693
199.891737,2590.720797,9400.615463,-2374.896044
199.892057,1332.370696,12065.356855,-536.266849
199.892378,296.082377,12435.459826,-1149.143247
199.892698,222.061783,11251.130318,-1915.238745
199.893019,0.000000,10881.027347,153.219100
199.893339,-1258.350101,11177.109724,2451.505594
199.893660,-3108.864956,10732.986159,3907.087040
199.893980,-3034.844362,11251.130318,2681.334243
199.894301,-2516.700203,12879.583391,1532.190996
199.894621,-3182.885551,12731.542202,306.438199
199.894942,444.123565,12435.459826,229.828649
199.895262,296.082377,11621.233289,689.485948
199.895583,-2590.720797,12139.377449,612.876398
199.895903,-962.267725,12139.377449,766.095498
199.896224,-296.082377,11991.336260,-306.438199
199.896544,-1406.391290,10436.903782,-229.828649
199.896865,1998.556043,10066.800811,842.705048
199.897185,2812.782580,9918.759623,612.876398
199.897506,1406.391290,8586.388927,-1225.752797
199.897826,2664.741391,9252.574275,-1532.190996
199.898147,5551.544565,10807.006753,-1072.533697
199.898467,4293.194464,9548.656652,-1685.410096
199.898788,3701.029710,8364.327145,-1762.019645
199.899108,4885.359217,8882.471304,-2451.505594
199.899429,3478.967927,9770.718434,-2068.457845
199.899749,2294.638420,10658.965565,-536.266849
199.900070,3404.947333,11177.109724,-1072.533697
199.900390,1110.308913,10362.883188,-2068.457845
199.900711,74.020594,11325.150913,-2068.457845
199.901031,74.020594,11843.295072,-1915.238745
199.901352,-2590.720797,10807.006753,-842.705048
199.901672,-1628.453072,12509.480420,1991.848295
199.901993,-2664.741391,13175.665768,2987.772442
199.902313,-5699.585753,12805.562797,842.705048
199.902634,-3108.864956,14211.954086,1302.362347
199.902954,-2812.782580,14063.912898,2681.334243
199.903275,-3923.091493,12657.521608,2451.505594
199.903595,-1702.473667,10436.903782,3140.991542
199.903916,-2442.679609,9770.718434,2757.943793
199.904236,-3034.844362,11621.233289,2374.896044
199.904557,-962.267725,12065.356855,3600.648841
199.904877,0.000000,10214.842000,0.000000
199.905198,1924.535449,8142.265362,-2221.676944
199.905518,4589.276840,8438.347739,-459.657299
199.905839,4293.194464,9548.656652,0.000000
199.906160,3627.009116,10140.821405,-536.266849
199.906480,5773.606348,10436.903782,-842.705048
199.906801,6217.729913,9030.512492,-2757.943793
199.907121,5773.606348,7328.038826,-3217.601092
199.907442,5699.585753,7994.224174,-1838.629195
199.907762,6513.812290,10066.800811,-1608.800546
199.908083,5181.441594,9178.553681,-1685.410096
199.908403,3997.112087,5847.626942,-1915.238745
199.908724,3552.988522,4663.297435,-1685.410096
199.909044,2368.659014,8586.388927,-306.438199
199.909365,1628.453072,12731.542202,229.828649
199.909685,-1776.494261,10510.924376,-2221.676944
199.910006,1776.494261,8586.388927,-919.314598
199.910326,222.061783,7772.162391,2604.724693
199.910647,-2516.700203,8734.430116,2757.943793
199.910967,0.000000,12583.501014,2221.676944
199.911288,-1332.370696,15766.386565,842.705048
199.911608,-3701.029710,14730.098246,-1302.362347
199.911929,1554.432478,10955.047942,0.000000
199.912249,1480.411884,9252.574275,0.000000
199.912570,-592.164754,9844.739029,383.047749
199.912890,-296.082377,12213.398043,995.924147
199.913211,-296.082377,10362.883188,0.000000
199.913531,0.000000,6661.853478,-383.047749
199.913852,2886.803174,5329.482782,2451.505594
199.914172,3478.967927,8586.388927,1685.410096
199.914493,3701.029710,11769.274478,-1149.143247
199.914813,5033.400406,11177.109724,-2834.553343
199.915134,6883.915261,7179.997637,-4979.620737
199.915454,7550.100608,3552.988522,-2834.553343
199.915775,8808.450710,5329.482782,919.314598
199.916095,6809.894666,11325.150913,-383.047749
199.916416,5551.544565,14359.995275,-3907.087040
199.916736,7105.977043,12583.501014,-6588.421283
199.917057,9252.574275,9770.718434,-5822.325785
199.917377,8660.409521,8142.265362,-766.095498
199.917698,7328.038826,7624.121203,2451.505594
199.918018,2072.576638,6957.935855,-383.047749
199.918339,74.020594,6069.688724,-2987.772442
199.918659,2664.741391,9178.553681,76.609550
199.918980,2738.761985,9844.739029,2757.943793
199.919300,3478.967927,9844.739029,3217.601092
199.919621,6217.729913,10510.924376,2374.896044
199.919941,1184.329507,7402.059420,-76.609550
199.920262,2368.659014,6587.832884,459.657299
199.920582,4737.318029,6365.771101,3600.648841
199.920903,3997.112087,6069.688724,3294.210641
199.921223,6143.709319,6439.791695,1685.410096
199.921544,8290.306550,8364.327145,-1915.238745
199.921864,6439.791695,8068.244768,-5056.230287
199.922185,7624.121203,8734.430116,-3217.601092
199.922505,9622.677246,8364.327145,-612.876398
199.922826,7105.977043,7254.018232,-383.047749
199.923146,6587.832884,5921.647536,-1225.752797
199.923467,6069.688724,7772.162391,-2528.115143
199.923787,6069.688724,9918.759623,-1915.238745
199.924108,5181.441594,11547.212695,1455.581446
199.924428,6069.688724,11029.068536,1149.143247
199.924749,5699.585753,7476.080014,-1302.362347
199.925069,4145.153275,6217.729913,76.609550
199.925390,3034.844362,7920.203579,995.924147
199.925710,592.164754,7698.141797,306.438199
199.926031,962.267725,6291.750507,919.314598
199.926351,2442.679609,4145.153275,2068.457845
199.926672,2960.823768,4663.297435,3907.087040
199.926992,5181.441594,8512.368333,4673.182538
199.927313,3256.906145,10510.924376,1915.238745
199.927633,3775.050304,9474.636058,-2528.115143
199.927954,7105.977043,8660.409521,-3217.601092
199.928274,7031.956449,6957.935855,-2374.896044
199.928595,7031.956449,6809.894666,-306.438199
199.928915,7402.059420,9400.615463,536.266849
199.929236,4737.318029,9918.759623,-1302.362347
199.929557,4885.359217,10436.903782,-1072.533697
199.929877,7550.100608,9622.677246,995.924147
199.930198,5847.626942,7105.977043,766.095498
199.930518,3627.009116,5995.668130,612.876398
199.930839,4367.215058,5551.544565,766.095498
199.931159,3997.112087,5551.544565,229.828649
199.931480,3997.112087,3478.967927,0.000000
199.931800,5773.606348,4367.215058,459.657299
199.932121,5033.400406,5551.544565,612.876398
199.932441,3997.112087,8364.327145,1072.533697
199.932762,4145.153275,9104.533087,766.095498
199.933082,6143.709319,8142.265362,-1991.848295
199.933403,9030.512492,8956.491898,-1762.019645
199.933723,7402.059420,9696.697840,-1838.629195
199.934044,6735.874072,10214.842000,-4290.134789
199.934364,6513.812290,9770.718434,-3140.991542
199.934685,6143.709319,9696.697840,-766.095498
199.935005,5033.400406,8142.265362,459.657299
199.935326,6291.750507,7920.203579,2528.115143
199.935646,5107.421000,9844.739029,1455.581446
199.935967,3404.947333,8512.368333,0.000000
199.936287,3182.885551,6661.853478,-306.438199
199.936608,5181.441594,4737.318029,76.609550
199.936928,3478.967927,4219.173869,1455.581446
199.937249,4737.318029,6069.688724,3677.258390
199.937569,4441.235652,7994.224174,1838.629195
199.937890,4219.173869,8808.450710,-383.047749
199.938210,6809.894666,8586.388927,-1762.019645
199.938531,6069.688724,8512.368333,-4060.306139
199.938851,5477.523971,9844.739029,-4136.915689
199.939172,8364.327145,14359.995275,-2298.286494
199.939492,5699.585753,13619.789333,-2451.505594
199.939813,4145.153275,10288.862594,-2911.162892
199.940133,7476.080014,9326.594869,-1455.581446
199.940454,2886.803174,9178.553681,0.000000
199.940774,148.041188,9400.615463,1302.362347
199.941095,2590.720797,9030.512492,1838.629195
199.941415,1702.473667,6735.874072,383.047749
199.941736,3552.988522,5625.565159,2145.067394
199.942056,4441.235652,6809.894666,3447.429741
199.942377,0.000000,6513.812290,153.219100
199.942697,1924.535449,7031.956449,-612.876398
199.943018,4145.153275,7698.141797,1149.143247
199.943338,4441.235652,6957.935855,153.219100
199.943659,7772.162391,7994.224174,1072.533697
199.943979,8068.244768,9400.615463,0.000000
199.944300,4515.256246,11103.089130,-2911.162892
199.944620,6439.791695,10510.924376,-4290.134789
199.944941,8882.471304,9400.615463,-2757.943793
199.945261,7476.080014,7105.977043,-1991.848295
199.945582,7031.956449,6217.729913,-459.657299
199.945902,8438.347739,7328.038826,76.609550
199.946223,5181.441594,6661.853478,-689.485948
199.946543,4737.318029,5329.482782,689.485948
199.946864,5921.647536,3997.112087,1302.362347
199.947184,6365.771101,2812.782580,1455.581446
199.947505,7105.977043,3997.112087,2834.553343
199.947825,7550.100608,4737.318029,2451.505594
199.948146,6291.750507,5107.421000,-995.924147
199.948466,6661.853478,6365.771101,-1072.533697
199.948787,6957.935855,7402.059420,-1302.362347
199.949107,7550.100608,8586.388927,-1378.971896
199.949428,7994.224174,9770.718434,-995.924147
199.949748,7550.100608,10658.965565,-2298.286494
199.950069,6587.832884,10510.924376,-4826.401637
199.950389,5033.400406,9474.636058,-2451.505594
199.950710,4367.215058,9400.615463,919.314598
199.951030,5107.421000,9400.615463,3753.867940
199.951351,2886.803174,9474.636058,3294.210641
199.951671,0.000000,7328.038826,383.047749
199.951992,222.061783,5625.565159,-306.438199
199.952312,3701.029710,8142.265362,2757.943793
199.952633,1628.453072,7254.018232,2987.772442
199.952953,3849.070898,5847.626942,1149.143247
199.953274,6217.729913,7105.977043,995.924147
199.953595,3108.864956,9178.553681,1762.019645
199.953915,3330.926739,9548.656652,2604.724693
199.954236,6883.915261,9696.697840,536.266849
199.954556,6217.729913,9030.512492,-2834.553343
199.954877,7994.224174,10510.924376,-3217.601092
199.955197,7254.018232,10510.924376,-4443.353888
199.955518,3997.112087,9844.739029,-6511.811733
199.955838,4515.256246,8882.471304,-3217.601092
199.956159,4811.338623,10214.842000,1608.800546
199.956479,4737.318029,10955.047942,3370.820191
199.956800,3034.844362,7624.121203,3140.991542
199.957120,1776.494261,6735.874072,766.095498
199.957441,2220.617826,6291.750507,-612.876398
199.957761,2072.576638,5773.606348,689.485948
199.958082,2590.720797,5033.400406,-536.266849
199.958402,4367.215058,4145.153275,-1149.143247
199.958723,5995.668130,6809.894666,995.924147
199.959043,5847.626942,9548.656652,2451.505594
199.959364,5551.544565,11029.068536,536.266849
199.959684,4811.338623,10066.800811,-1608.800546
199.960005,5699.585753,9326.594869,-2145.067394
199.960325,7550.100608,8660.409521,-1838.629195
199.960646,7328.038826,9548.656652,-1455.581446
199.960966,5329.482782,10436.903782,-2374.896044
199.961287,3478.967927,7772.162391,-3983.696590
199.961607,2886.803174,7105.977043,-3524.039291
199.961928,4367.215058,7031.956449,766.095498
199.962248,4959.379811,7105.977043,3217.601092
199.962569,6809.894666,7920.203579,4443.353888
199.962889,5773.606348,7550.100608,2681.334243
199.963210,5255.462188,6069.688724,1608.800546
199.963530,5403.503377,3997.112087,1149.143247
199.963851,7402.059420,1258.350101,689.485948
199.964171,7772.162391,3034.844362,689.485948
199.964492,8808.450710,7105.977043,-766.095498
199.964812,8142.265362,9400.615463,-4060.306139
199.965133,9400.615463,9548.656652,-4903.011187
199.965453,11103.089130,9400.615463,-2374.896044
199.965774,8142.265362,10510.924376,-766.095498
199.966094,5847.626942,10362.883188,-1608.800546
199.966415,6735.874072,9918.759623,-1838.629195
199.966735,4071.132681,9326.594869,-1455.581446
199.967056,4663.297435,8364.327145,-306.438199
199.967376,4811.338623,9992.780217,2451.505594
199.967697,888.247130,9178.553681,-306.438199
199.968017,888.247130,8068.244768,459.657299
199.968338,2516.700203,5921.647536,3907.087040
199.968658,518.144159,5107.421000,4136.915689
199.968979,2294.638420,5477.523971,4596.572988
199.969299,3701.029710,7031.956449,3830.477490
199.969620,3108.864956,8734.430116,689.485948
199.969940,3627.009116,9770.718434,153.219100
199.970261,5773.606348,9844.739029,-459.657299
199.970581,5773.606348,9178.553681,-2528.115143
199.970902,5477.523971,9992.780217,-3064.381992
199.971222,6809.894666,10066.800811,-3600.648841
199.971543,4885.359217,10510.924376,-5439.278036
199.971863,5181.441594,10732.986159,-3370.820191
199.972184,5403.503377,11103.089130,0.000000
199.972504,3849.070898,11103.089130,1762.019645
199.972825,3256.906145,10140.821405,3447.429741
199.973145,2072.576638,7624.121203,1915.238745
199.973466,2442.679609,3034.844362,306.438199
199.973786,3552.988522,2294.638420,612.876398
199.974107,3108.864956,2664.741391,2451.505594
199.974427,3108.864956,4367.215058,2145.067394
199.974748,5699.585753,7994.224174,1455.581446
199.975068,5995.668130,9252.574275,-766.095498
199.975389,7031.956449,9844.739029,-1685.410096
199.975709,7402.059420,9178.553681,-1225.752797
199.976030,6735.874072,9326.594869,-2451.505594
199.976350,7698.141797,10584.944971,-2451.505594
199.976671,5625.565159,11991.336260,-1915.238745
199.976992,3478.967927,11103.089130,-2681.334243
199.977312,5699.585753,10066.800811,-2145.067394
199.977633,7031.956449,7624.121203,459.657299
199.977953,2368.659014,7105.977043,1072.533697
199.978274,3256.906145,6735.874072,2298.286494
199.978594,5033.400406,5329.482782,3753.867940
199.978915,4071.132681,3849.070898,3524.039291
199.979235,5329.482782,4293.194464,3753.867940
199.979556,6365.771101,5551.544565,2374.896044
199.979876,4589.276840,6439.791695,-1915.238745
199.980197,7105.977043,8290.306550,-1838.629195
199.980517,8586.388927,9770.718434,-842.705048
199.980838,8216.285956,10066.800811,-383.047749
199.981158,7772.162391,10066.800811,-306.438199
199.981479,5921.647536,10807.006753,-3600.648841
199.981799,4737.318029,10732.986159,-4979.620737
199.982120,5033.400406,10807.006753,-2987.772442
199.982440,4367.215058,9770.718434,-153.219100
199.982761,3849.070898,7920.203579,1149.143247
199.983081,3478.967927,7994.224174,2374.896044
199.983402,2220.617826,7402.059420,1455.581446
199.983722,222.061783,5551.544565,229.828649
199.984043,2590.720797,5033.400406,1455.581446
199.984363,3330.926739,4811.338623,2374.896044
199.984684,3701.029710,5255.462188,3294.210641
199.985005,5329.482782,6365.771101,4136.915689
199.985325,6439.791695,8586.388927,689.485948
199.985646,7031.956449,9252.574275,-3140.991542
199.985966,7476.080014,8364.327145,-4903.011187
199.986287,7698.141797,7402.059420,-4673.182538
199.986608,9326.594869,8734.430116,-1991.848295
199.986928,8290.306550,10658.965565,-1225.752797
199.987249,5329.482782,10436.903782,-2834.553343
199.987569,6439.791695,10436.903782,-4060.306139
199.987890,5181.441594,9252.574275,-2528.115143
199.988211,3034.844362,7179.997637,-229.828649
199.988531,2590.720797,7328.038826,1072.533697
199.988852,3330.926739,8808.450710,2604.724693
199.989172,962.267725,8068.244768,4290.134789
199.989493,1924.535449,7031.956449,3140.991542
199.989814,2664.741391,4663.297435,919.314598
199.990134,814.226536,5255.462188,-153.219100
199.990455,3627.009116,8660.409521,1532.190996
199.990775,5551.544565,10288.862594,1608.800546
199.991096,5255.462188,8660.409521,-1149.143247
199.991417,8512.368333,8438.347739,-1608.800546
199.991737,8142.265362,10732.986159,-2145.067394
199.992058,4145.153275,13027.624579,-3677.258390
199.992378,5107.421000,13249.686362,-2604.724693
199.992699,6661.853478,12657.521608,-1991.848295
199.993020,5847.626942,9252.574275,459.657299
199.993340,4589.276840,5847.626942,2834.553343
199.993661,3701.029710,7328.038826,536.266849
199.993981,1702.473667,8586.388927,-1608.800546
199.994302,1776.494261,8216.285956,229.828649
199.994623,4811.338623,5329.482782,2911.162892
199.994943,7254.018232,3404.947333,5515.887586
199.995264,6513.812290,4959.379811,7048.078582
199.995584,5329.482782,6883.915261,3830.477490
199.995905,3330.926739,5181.441594,-2451.505594
199.996226,5773.606348,5699.585753,-4366.744339
199.996546,10066.800811,7254.018232,-3753.867940
199.996867,9178.553681,8808.450710,-3064.381992
199.997187,8438.347739,11103.089130,-2221.676944
199.997508,6661.853478,13249.686362,-2528.115143
199.997829,4219.173869,11843.295072,-3064.381992
199.998149,5033.400406,9474.636058,-2221.676944
199.998470,4441.235652,7179.997637,-153.219100
199.998790,2590.720797,6217.729913,1608.800546
199.999111,1850.514855,7328.038826,2374.896044
199.999432,740.205942,5699.585753,1455.581446
199.999752,1998.556043,4589.276840,1532.190996
200.000073,4959.379811,4737.318029,4290.134789
200.000393,3997.112087,5329.482782,3677.258390
200.000714,3997.112087,6587.832884,1685.410096
200.001035,4367.215058,10362.883188,-229.828649
200.001355,5329.482782,10288.862594,-919.314598
200.001676,5625.565159,8660.409521,-536.266849
200.001996,7994.224174,8290.306550,-1762.019645
200.002317,7105.977043,10584.944971,-2604.724693
200.002638,3775.050304,11547.212695,-2987.772442
200.002958,3478.967927,12065.356855,-1225.752797
200.003279,3775.050304,9474.636058,-766.095498
200.003599,5181.441594,6513.812290,-383.047749
200.003920,7328.038826,7550.100608,689.485948
200.004241,2738.761985,6513.812290,-153.219100
200.004561,3256.906145,6735.874072,-383.047749
200.004882,5699.585753,6143.709319,1991.848295
200.005202,5255.462188,4589.276840,3294.210641
200.005523,6957.935855,4663.297435,4366.744339
200.005844,7031.956449,7328.038826,2221.676944
200.006164,4071.132681,9474.636058,-2604.724693
200.006485,5551.544565,9474.636058,-3830.477490
200.006805,8068.244768,7698.141797,-3447.429741
200.007126,8142.265362,6513.812290,-3217.601092
200.007447,6291.750507,8438.347739,-3677.258390
200.007767,3404.947333,10732.986159,-4213.525239
200.008088,3404.947333,13101.645173,-2911.162892
200.008408,4145.153275,12805.562797,0.000000
200.008729,4589.276840,11473.192101,536.266849
200.009050,4737.318029,9178.553681,612.876398
200.009370,1702.473667,9326.594869,1608.800546
200.009691,1110.308913,9104.533087,2834.553343
200.010011,2516.700203,8068.244768,3677.258390
200.010332,3775.050304,6735.874072,3140.991542
200.010653,2516.700203,7105.977043,1608.800546
200.010973,2516.700203,7624.121203,1149.143247
200.011294,3775.050304,8438.347739,1762.019645
200.011614,4367.215058,7920.203579,919.314598
200.011935,5181.441594,7328.038826,76.609550
200.012256,7846.182985,8216.285956,-995.924147
200.012576,4293.194464,7105.977043,-2757.943793
200.012897,4441.235652,7105.977043,-2145.067394
200.013217,7254.018232,8216.285956,-1378.971896
200.013538,8216.285956,8216.285956,-1991.848295
200.013859,8956.491898,7772.162391,-995.924147
200.014179,8512.368333,6957.935855,-1302.362347
200.014500,8068.244768,7031.956449,-1072.533697
200.014820,7105.977043,6365.771101,-995.924147
200.015141,6661.853478,5995.668130,-536.266849
200.015462,7920.203579,6439.791695,-229.828649
200.015782,8438.347739,7254.018232,-689.485948
200.016103,7772.162391,8734.430116,-383.047749
200.016423,4737.318029,6809.894666,153.219100
200.016744,3330.926739,5181.441594,76.609550
200.017065,3701.029710,5773.606348,1378.971896
200.017385,1406.391290,6513.812290,383.047749
200.017706,2146.597232,7254.018232,-536.266849
200.018026,3701.029710,8512.368333,0.000000
200.018347,2886.803174,12213.398043,306.438199
200.018668,2516.700203,12065.356855,919.314598
200.018988,3478.967927,10288.862594,0.000000
200.019309,3034.844362,7476.080014,-1532.190996
200.019630,3034.844362,7698.141797,306.438199
200.019950,3997.112087,9548.656652,766.095498
200.020271,4219.173869,11103.089130,-612.876398
200.020591,3997.112087,10510.924376,306.438199
200.020912,4811.338623,9104.533087,1302.362347
200.021233,5847.626942,7254.018232,1608.800546
200.021553,5033.400406,6069.688724,1149.143247
200.021874,3997.112087,6587.832884,153.219100
200.022194,3627.009116,5181.441594,-536.266849
200.022515,5107.421000,4737.318029,-919.314598
200.022836,7105.977043,6587.832884,153.219100
200.023156,7328.038826,9030.512492,-306.438199
200.023477,6957.935855,11325.150913,-2834.553343
200.023797,5625.565159,11029.068536,-4443.353888
200.024118,6143.709319,8808.450710,-3217.601092
200.024439,9844.739029,8586.388927,459.657299
200.024759,7105.977043,9548.656652,995.924147
200.025080,4071.132681,10214.842000,-612.876398
200.025400,5403.503377,11029.068536,-1225.752797
200.025721,3256.906145,8364.327145,-1762.019645
200.026042,2960.823768,4737.318029,0.000000
200.026362,6661.853478,3552.988522,2068.457845
200.026683,3404.947333,4589.276840,1991.848295
200.027003,1332.370696,5477.523971,1302.362347
200.027324,4441.235652,5773.606348,2528.115143
200.027645,4959.379811,6957.935855,1225.752797
200.027965,4219.173869,7994.224174,536.266849
200.028286,6365.771101,11473.192101,766.095498
200.028606,5255.462188,11695.253884,-1991.848295
200.028927,4663.297435,11177.109724,-4596.572988
200.029248,7550.100608,11177.109724,-2451.505594
200.029568,5477.523971,9844.739029,-3217.601092
200.029889,2812.782580,9474.636058,-2068.457845
200.030209,3256.906145,8956.491898,842.705048
200.030530,2738.761985,8734.430116,459.657299
200.030851,4737.318029,8068.244768,919.314598
200.031171,4737.318029,5255.462188,1991.848295
200.031492,2812.782580,2664.741391,-153.219100
200.031812,3775.050304,1702.473667,689.485948
200.032133,6809.894666,4515.256246,1838.629195
200.032454,7402.059420,6217.729913,229.828649
200.032774,7846.182985,8364.327145,-2451.505594
200.033095,8364.327145,10732.986159,-4290.134789
200.033415,6735.874072,8734.430116,-3907.087040
200.033736,7476.080014,7994.224174,-383.047749
200.034057,9844.739029,9400.615463,919.314598
200.034377,7254.018232,10362.883188,-612.876398
200.034698,4737.318029,11473.192101,-2451.505594
200.035018,4441.235652,11103.089130,-2911.162892
200.035339,3552.988522,10140.821405,-1762.019645
200.035660,3997.112087,7328.038826,2145.067394
200.035980,4219.173869,5477.523971,2068.457845
200.036301,1702.473667,4219.173869,229.828649
200.036621,1776.494261,3997.112087,1915.238745
200.036942,2220.617826,5255.462188,2451.505594
200.037263,1702.473667,7031.956449,1072.533697
200.037583,3552.988522,11029.068536,2374.896044
200.037904,6217.729913,14211.954086,1608.800546
200.038224,7476.080014,13027.624579,-612.876398
200.038545,8512.368333,10510.924376,-1149.143247
200.038866,7624.121203,8808.450710,-1838.629195
200.039186,2812.782580,7105.977043,-2911.162892
200.039507,2664.741391,6809.894666,-2298.286494
200.039827,6661.853478,7476.080014,306.438199
200.040148,7254.018232,8734.430116,1225.752797
200.040469,7328.038826,8290.306550,-306.438199
200.040789,5477.523971,7254.018232,-766.095498
200.041110,2220.617826,4885.359217,-1685.410096
200.041430,4959.379811,4589.276840,2374.896044
200.041751,7402.059420,4589.276840,5822.325785
200.042072,5477.523971,4441.235652,2757.943793
200.042392,7624.121203,7105.977043,536.266849
200.042713,5551.544565,8734.430116,-3140.991542
200.043033,4441.235652,9252.574275,-4366.744339
200.043354,8142.265362,10436.903782,-1225.752797
200.043675,8734.430116,9992.780217,-689.485948
200.043995,6069.688724,9844.739029,-383.047749
200.044316,5255.462188,10436.903782,0.000000
200.044636,74.020594,10362.883188,-1532.190996
200.044957,-1850.514855,8290.306550,-1455.581446
200.045278,0.000000,6735.874072,1762.019645
200.045598,2220.617826,6957.935855,2681.334243
200.045919,2368.659014,6143.709319,2681.334243
200.046239,1776.494261,7624.121203,1532.190996
200.046560,1036.288319,8364.327145,-995.924147
200.046881,148.041188,7105.977043,-1838.629195
200.047201,5625.565159,7031.956449,1149.143247
200.047522,8808.450710,7476.080014,1378.971896
200.047842,9696.697840,10140.821405,459.657299
200.048163,7624.121203,10732.986159,383.047749
200.048484,7772.162391,11843.295072,-1302.362347
200.048804,6513.812290,10214.842000,-1685.410096
200.049125,5847.626942,7105.977043,-1685.410096
200.049445,7476.080014,5921.647536,-2604.724693
200.049766,7105.977043,4737.318029,-3140.991542
200.050087,4367.215058,5255.462188,-1838.629195
200.050407,3997.112087,4811.338623,-76.609550
200.050728,5033.400406,6883.915261,-76.609550
200.051048,4959.379811,7402.059420,0.000000
200.051369,4663.297435,6587.832884,612.876398
200.051690,6217.729913,7920.203579,1302.362347
200.052010,5403.503377,11473.192101,306.438199
200.052331,4293.194464,8956.491898,-229.828649
200.052651,6217.729913,7254.018232,-2681.334243
200.052972,9104.533087,7550.100608,-3064.381992
200.053293,8068.244768,10362.883188,-2145.067394
200.053613,7254.018232,12139.377449,-1378.971896
200.053934,5107.421000,11103.089130,-2681.334243
200.054254,3182.885551,8956.491898,-919.314598
200.054575,4959.379811,7105.977043,3370.820191
200.054896,5921.647536,6587.832884,4596.572988
200.055216,3404.947333,6217.729913,842.705048
200.055537,1184.329507,6217.729913,-766.095498
200.055857,888.247130,7624.121203,-1225.752797
200.056178,2812.782580,8882.471304,919.314598
200.056499,5181.441594,9548.656652,3064.381992
200.056819,6587.832884,8882.471304,1149.143247
200.057140,6069.688724,9918.759623,-919.314598
200.057460,5181.441594,9770.718434,-1072.533697
200.057781,5551.544565,9252.574275,0.000000
200.058102,5921.647536,8956.491898,1225.752797
200.058422,6143.709319,9030.512492,842.705048
200.058743,6957.935855,9622.677246,-306.438199
200.059063,4367.215058,8734.430116,-2221.676944
200.059384,3849.070898,6439.791695,-3447.429741
200.059705,3775.050304,4515.256246,-2374.896044
200.060025,4737.318029,4219.173869,-995.924147
200.060346,5403.503377,4811.338623,1302.362347
200.060666,5773.606348,7698.141797,1685.410096
200.060987,4737.318029,9548.656652,766.095498
200.061308,4589.276840,10584.944971,0.000000
200.061628,4071.132681,8660.409521,-995.924147
200.061949,5033.400406,7402.059420,383.047749
200.062269,7105.977043,6291.750507,2374.896044
200.062590,5551.544565,6365.771101,1225.752797
200.062911,4737.318029,7105.977043,-306.438199
200.063231,3997.112087,8956.491898,-1225.752797
200.063552,3849.070898,9622.677246,-1685.410096
200.063873,3849.070898,7550.100608,-995.924147
200.064193,6883.915261,5995.668130,0.000000
200.064514,6957.935855,5625.565159,1685.410096
200.064834,3552.988522,6661.853478,2911.162892
200.065155,2664.741391,7105.977043,2068.457845
200.065476,2516.700203,7254.018232,-919.314598
200.065796,3997.112087,6513.812290,-1838.629195
200.066117,5477.523971,7105.977043,0.000000
200.066437,5699.585753,8068.244768,459.657299
200.066758,4441.235652,9030.512492,-612.876398
200.067079,4515.256246,10066.800811,-306.438199
200.067399,5181.441594,10362.883188,-919.314598
200.067720,5921.647536,10732.986159,1149.143247
200.068040,5551.544565,10066.800811,1149.143247
200.068361,4663.297435,11251.130318,-1225.752797
200.068682,4737.318029,9696.697840,-1302.362347
200.069002,4811.338623,8142.265362,383.047749
200.069323,6365.771101,7105.977043,1378.971896
200.069643,4737.318029,6587.832884,536.266849
200.069964,3552.988522,6883.915261,-766.095498
200.070285,3330.926739,7994.224174,842.705048
200.070605,4441.235652,8290.306550,1915.238745
200.070926,4663.297435,6957.935855,612.876398
200.071246,5995.668130,5107.421000,-459.657299
200.071567,5921.647536,6291.750507,-995.924147
200.071888,7105.977043,8882.471304,229.828649
200.072208,5995.668130,9696.697840,766.095498
200.072529,6735.874072,8586.388927,-1072.533697
200.072849,7254.018232,8956.491898,-2298.286494
200.073170,7179.997637,11103.089130,-1915.238745
200.073491,6661.853478,11547.212695,-1838.629195
200.073811,7105.977043,9844.739029,-2834.553343
200.074132,4219.173869,8142.265362,-3064.381992
200.074452,2664.741391,7254.018232,153.219100
200.074773,3256.906145,7772.162391,3524.039291
200.075094,3182.885551,9030.512492,3447.429741
200.075414,-148.041188,7179.997637,1532.190996
200.075735,1702.473667,5921.647536,536.266849
200.076055,3182.885551,5625.565159,1532.190996
200.076376,2072.576638,5255.462188,2298.286494
200.076697,4737.318029,5773.606348,1378.971896
200.077017,6439.791695,6957.935855,-1378.971896
200.077338,4885.359217,8290.306550,-3140.991542
200.077658,6217.729913,9252.574275,-1378.971896
200.077979,8882.471304,9622.677246,-1838.629195
200.078300,9474.636058,9770.718434,-2757.943793
200.078620,9104.533087,11621.233289,-766.095498
200.078941,7179.997637,11029.068536,-1455.581446
200.079261,4737.318029,8290.306550,-2604.724693
200.079582,3701.029710,6661.853478,-1532.190996
200.079903,3108.864956,6661.853478,919.314598
200.080223,3108.864956,6809.894666,1838.629195
200.080544,2220.617826,6217.729913,1915.238745
200.080864,2442.679609,6217.729913,1455.581446
200.081185,1850.514855,6143.709319,1149.143247
200.081506,1036.288319,6661.853478,1378.971896
200.081826,2664.741391,7402.059420,1608.800546
200.082147,4811.338623,9030.512492,-689.485948
200.082467,6365.771101,10955.047942,-383.047749
200.082788,7105.977043,10881.027347,-689.485948
200.083109,6587.832884,11251.130318,-1608.800546
200.083429,7920.203579,11473.192101,-1838.629195
200.083750,6217.729913,9400.615463,-2374.896044
200.084070,6587.832884,7698.141797,-995.924147
200.084391,7476.080014,7402.059420,383.047749
200.084712,6365.771101,7698.141797,995.924147
200.085032,4367.215058,7328.038826,2068.457845
200.085353,5107.421000,6513.812290,1915.238745
200.085673,4663.297435,4293.194464,1072.533697
200.085994,3997.112087,3034.844362,229.828649
200.086315,5773.606348,3775.050304,0.000000
200.086635,5181.441594,6661.853478,842.705048
200.086956,3478.967927,8142.265362,383.047749
200.087277,5847.626942,10288.862594,919.314598
200.087597,6439.791695,9622.677246,-612.876398
200.087918,6513.812290,9622.677246,-2374.896044
200.088239,6809.894666,8734.430116,-919.314598
200.088560,4663.297435,9104.533087,-1915.238745
200.088880,4145.153275,10510.924376,-2068.457845
200.089201,5699.585753,10288.862594,-306.438199
200.089522,6069.688724,8734.430116,-1608.800546
200.089842,4663.297435,7920.203579,-229.828649
200.090163,4145.153275,7624.121203,1149.143247
200.090484,1628.453072,6883.915261,153.219100
200.090805,1850.514855,6069.688724,1225.752797
200.091125,3256.906145,7254.018232,3753.867940
200.091446,3552.988522,8216.285956,3064.381992
200.091767,2442.679609,6957.935855,995.924147
200.092087,4737.318029,7031.956449,-919.314598
200.092408,4293.194464,7105.977043,-1302.362347
200.092729,4959.379811,7994.224174,76.609550
200.093050,7328.038826,8290.306550,459.657299
200.093370,9030.512492,7624.121203,0.000000
200.093691,7846.182985,8290.306550,-919.314598
200.094012,8438.347739,9548.656652,-1608.800546
200.094332,6513.812290,9474.636058,-3830.477490
200.094653,5181.441594,9622.677246,-4673.182538
200.094974,6439.791695,9992.780217,-2221.676944
200.095295,5773.606348,8586.388927,383.047749
200.095615,4293.194464,8364.327145,2604.724693
200.095936,962.267725,7994.224174,1915.238745
200.096257,-1924.535449,8142.265362,-459.657299
200.096577,592.164754,6883.915261,766.095498
200.096898,1998.556043,6439.791695,2681.334243
200.097219,2812.782580,6957.935855,2221.676944
200.097540,4219.173869,8068.244768,1072.533697
200.097860,5255.462188,9696.697840,-459.657299
200.098181,3701.029710,8586.388927,-1838.629195
200.098502,5773.606348,7920.203579,-766.095498
200.098822,8956.491898,9104.533087,-1378.971896
200.099143,8364.327145,9548.656652,-2757.943793
200.099464,6661.853478,10584.944971,-2374.896044
200.099785,8512.368333,11399.171507,-842.705048
200.100105,7698.141797,11177.109724,-1072.533697
200.100426,5107.421000,7698.141797,-1762.019645
200.100747,4959.379811,4811.338623,-689.485948
200.101067,4737.318029,5551.544565,1455.581446
200.101388,3923.091493,7105.977043,3677.258390
200.101709,3552.988522,8216.285956,3064.381992
200.102030,5477.523971,5329.482782,306.438199
200.102350,5477.523971,4959.379811,-459.657299
200.102671,3775.050304,4737.318029,1455.581446
200.102992,5107.421000,5329.482782,842.705048
200.103312,6735.874072,7402.059420,-459.657299
200.103633,5625.565159,9030.512492,-1762.019645
200.103954,8290.306550,9770.718434,-1608.800546
200.104275,8882.471304,10658.965565,-2068.457845
200.104595,9400.615463,12213.398043,-2145.067394
200.104916,5403.503377,9400.615463,-2145.067394
200.105237,3849.070898,6587.832884,-2298.286494
200.105557,6365.771101,8438.347739,0.000000
200.105878,3923.091493,8438.347739,2451.505594
200.106199,2664.741391,7328.038826,1762.019645
200.106520,5699.585753,6661.853478,459.657299
200.106840,1628.453072,6217.729913,-229.828649
200.107161,592.164754,5181.441594,1378.971896
200.107482,2516.700203,4959.379811,2757.943793
200.107802,3256.906145,6735.874072,1915.238745
200.108123,4145.153275,8512.368333,1532.190996
200.108444,5329.482782,10510.924376,459.657299
200.108765,4737.318029,10732.986159,-3983.696590
200.109085,5255.462188,9548.656652,-3907.087040
200.109406,5921.647536,9918.759623,-919.314598
200.109727,7105.977043,10658.965565,0.000000
200.110047,4145.153275,10584.944971,306.438199
200.110368,4737.318029,9696.697840,0.000000
200.110689,3923.091493,9474.636058,-1455.581446
200.111010,1924.535449,8956.491898,0.000000
200.111330,2146.597232,7698.141797,1072.533697
200.111651,2960.823768,7031.956449,-306.438199
200.111972,2072.576638,6587.832884,-229.828649
200.112292,3034.844362,7550.100608,1532.190996
200.112613,2442.679609,8216.285956,1302.362347
200.112934,2442.679609,8290.306550,76.609550
200.113255,3775.050304,7402.059420,-459.657299
200.113575,5181.441594,8068.244768,0.000000
200.113896,6957.935855,9474.636058,766.095498
200.114217,6439.791695,8512.368333,-229.828649
200.114537,9030.512492,7624.121203,-2068.457845
200.114858,8586.388927,7698.141797,-2987.772442
200.115179,6883.915261,10066.800811,-2298.286494
200.115500,7254.018232,9918.759623,-1225.752797
200.115820,7698.141797,9622.677246,-1762.019645
200.116141,6513.812290,7105.977043,-229.828649
200.116462,4737.318029,5551.544565,1378.971896
200.116782,6809.894666,5477.523971,1455.581446
200.117103,3701.029710,4663.297435,-536.266849
200.117424,2368.659014,5625.565159,-1608.800546
200.117745,4071.132681,7476.080014,229.828649
200.118065,4811.338623,8290.306550,1455.581446
200.118386,4071.132681,6957.935855,1378.971896
200.118707,8364.327145,6439.791695,995.924147
200.119027,6143.709319,7328.038826,-1455.581446
200.119348,3997.112087,8586.388927,-2451.505594
200.119669,4663.297435,7772.162391,-1225.752797
200.119990,7624.121203,8290.306550,-1991.848295
200.120310,8216.285956,9770.718434,-2604.724693
200.120631,7402.059420,11769.274478,-1762.019645
200.120952,4959.379811,10436.903782,-3907.087040
200.121272,4145.153275,10066.800811,-3140.991542
200.121593,2294.638420,8290.306550,536.266849
200.121914,2072.576638,7179.997637,3447.429741
200.122235,3256.906145,7550.100608,2987.772442
200.122555,1110.308913,8216.285956,306.438199
200.122876,1998.556043,9474.636058,-1455.581446
200.123197,3034.844362,8512.368333,-459.657299
200.123517,3627.009116,7550.100608,1838.629195
200.123838,4737.318029,7031.956449,3370.820191
200.124159,4959.379811,7846.182985,2681.334243
200.124480,4145.153275,9770.718434,-919.314598
200.124800,3997.112087,9992.780217,-3140.991542
200.125121,5699.585753,9696.697840,-4213.525239
200.125442,8216.285956,9178.553681,-4290.134789
200.125762,8512.368333,9992.780217,-2145.067394
200.126083,7328.038826,10732.986159,459.657299
200.126404,5255.462188,10807.006753,842.705048
200.126725,4071.132681,9178.553681,612.876398
200.127045,2812.782580,7179.997637,1225.752797
200.127366,4071.132681,7698.141797,689.485948
200.127687,5255.462188,7031.956449,842.705048
200.128007,5107.421000,6291.750507,536.266849
200.128328,2886.803174,3775.050304,-766.095498
200.128649,4367.215058,4145.153275,459.657299
200.128970,4367.215058,6661.853478,3140.991542
200.129290,3775.050304,7328.038826,2987.772442
200.129611,6291.750507,9548.656652,229.828649
200.129932,10214.842000,12065.356855,-1915.238745
200.130252,7476.080014,10288.862594,-1685.410096
200.130573,7105.977043,7254.018232,-1685.410096
200.130894,10066.800811,5625.565159,-1532.190996
200.131215,7254.018232,6883.915261,-2068.457845
200.131535,4811.338623,7624.121203,-2374.896044
200.131856,6291.750507,7772.162391,-1225.752797
200.132177,3923.091493,7105.977043,0.000000
200.132497,5181.441594,6809.894666,3217.601092
200.132818,5477.523971,7624.121203,3983.696590
200.133139,2812.782580,7328.038826,229.828649
200.133460,2664.741391,6661.853478,0.000000
200.133780,2220.617826,6957.935855,1225.752797
200.134101,2368.659014,6291.750507,995.924147
200.134422,4219.173869,5995.668130,2298.286494
200.134742,6217.729913,8586.388927,536.266849
200.135063,5551.544565,11251.130318,-2451.505594
200.135384,4071.132681,9474.636058,-2911.162892
200.135705,4885.359217,7846.182985,-1302.362347
200.136025,6143.709319,7402.059420,612.876398
200.136346,3552.988522,8956.491898,766.095498
200.136667,5403.503377,11695.253884,-766.095498
200.136987,5403.503377,11843.295072,-3524.039291
200.137308,3256.906145,10288.862594,-2298.286494
200.137629,3849.070898,6957.935855,842.705048
200.137950,4293.194464,5625.565159,1762.019645
200.138270,2812.782580,7624.121203,1225.752797
200.138591,1036.288319,8586.388927,612.876398
200.138912,3108.864956,8512.368333,153.219100
200.139232,5921.647536,9474.636058,1455.581446
200.139553,4663.297435,9104.533087,2374.896044
200.139874,4441.235652,7328.038826,1838.629195
200.140195,7179.997637,8882.471304,-612.876398
200.140515,6143.709319,8364.327145,-1225.752797
200.140836,5699.585753,7254.018232,-766.095498
200.141157,7698.141797,5477.523971,-2068.457845
200.141477,6957.935855,6365.771101,-3140.991542
200.141798,6809.894666,8882.471304,-2681.334243
200.142119,7179.997637,11251.130318,-1838.629195
200.142440,5921.647536,10066.800811,-1302.362347
200.142760,6439.791695,7476.080014,536.266849
200.143081,6291.750507,7550.100608,2451.505594
200.143402,2664.741391,7328.038826,306.438199
200.143722,1702.473667,6587.832884,-1991.848295
200.144043,3330.926739,6069.688724,-1532.190996
200.144364,3997.112087,5625.565159,-689.485948
200.144685,6883.915261,7624.121203,1608.800546
200.145005,6217.729913,9844.739029,2374.896044
200.145326,3701.029710,9622.677246,-1149.143247
200.145647,5107.421000,9400.615463,-1838.629195
200.145967,6365.771101,8512.368333,459.657299
200.146288,5477.523971,6513.812290,229.828649
200.146609,7105.977043,6365.771101,1685.410096
200.146930,6809.894666,8586.388927,-1532.190996
200.147250,4737.318029,11177.109724,-3600.648841
200.147571,3849.070898,9918.759623,-3294.210641
200.147892,3997.112087,7105.977043,-2911.162892
200.148212,5181.441594,5551.544565,1149.143247
200.148533,4663.297435,8512.368333,4519.963438
200.148854,2812.782580,9844.739029,2068.457845
200.149175,2368.659014,8068.244768,153.219100
200.149495,3404.947333,7402.059420,-229.828649
200.149816,3108.864956,7105.977043,689.485948
200.150137,4737.318029,7328.038826,1225.752797
200.150457,5921.647536,7846.182985,0.000000
200.150778,6587.832884,9622.677246,-536.266849
200.151099,4959.379811,8290.306550,-383.047749
200.151420,6217.729913,7402.059420,-612.876398
200.151740,6439.791695,7031.956449,-1225.752797
200.152061,6143.709319,9474.636058,-1302.362347
200.152382,7179.997637,10510.924376,-919.314598
200.152702,5255.462188,9622.677246,-2528.115143
200.153023,6735.874072,8290.306550,76.609550
200.153344,4441.235652,6365.771101,2757.943793
200.153665,2220.617826,5847.626942,2298.286494
200.153985,3627.009116,7550.100608,766.095498
200.154306,2368.659014,8882.471304,-766.095498
200.154627,2072.576638,6587.832884,0.000000
200.154947,7031.956449,4811.338623,1302.362347
200.155268,6143.709319,5995.668130,1302.362347
200.155589,3108.864956,8216.285956,383.047749
200.155910,4145.153275,9474.636058,0.000000
200.156230,5551.544565,8364.327145,-1685.410096
200.156551,7105.977043,6143.709319,-689.485948
200.156872,8142.265362,7994.224174,1149.143247
200.157192,6217.729913,8586.388927,0.000000
200.157513,5033.400406,10066.800811,-2604.724693
200.157834,5255.462188,10214.842000,-2451.505594
200.158155,5181.441594,9178.553681,-2451.505594
200.158475,4811.338623,5995.668130,-306.438199
200.158796,4441.235652,5255.462188,1685.410096
200.159117,3775.050304,8512.368333,1991.848295
200.159437,1480.411884,9400.615463,1225.752797
200.159758,1998.556043,7179.997637,0.000000
200.160079,4145.153275,4959.379811,-383.047749
200.160399,4367.215058,4959.379811,766.095498
200.160720,4663.297435,7254.018232,919.314598
200.161041,4811.338623,8586.388927,-2451.505594
200.161362,6957.935855,9326.594869,-3983.696590
200.161682,7920.203579,9326.594869,-1302.362347
200.162003,8808.450710,9400.615463,1149.143247
200.162324,7920.203579,11103.089130,0.000000
200.162644,7328.038826,11917.315666,-1532.190996
200.162965,5033.400406,9252.574275,-2757.943793
200.163286,6661.853478,7550.100608,-1225.752797
200.163607,6069.688724,6217.729913,1762.019645
200.163927,4071.132681,6439.791695,3524.039291
200.164248,3775.050304,8956.491898,3370.820191
200.164569,2368.659014,8956.491898,-306.438199
200.164889,1406.391290,8068.244768,-2757.943793
200.165210,4219.173869,5255.462188,383.047749
200.165531,5033.400406,4589.276840,1762.019645
200.165852,3256.906145,5107.421000,1762.019645
200.166172,4071.132681,10436.903782,536.266849
200.166493,5107.421000,11917.315666,-1991.848295
200.166814,4737.318029,10288.862594,-3064.381992
200.167134,8956.491898,8660.409521,-1072.533697
200.167455,7328.038826,8512.368333,-1149.143247
200.167776,5033.400406,10066.800811,-1302.362347
200.168097,6365.771101,9918.759623,-1149.143247
200.168417,4737.318029,8586.388927,-2221.676944
200.168738,6069.688724,6883.915261,-2145.067394
200.169059,6735.874072,7624.121203,459.657299
200.169379,3330.926739,7994.224174,689.485948
200.169700,4663.297435,7994.224174,1378.971896
200.170021,3997.112087,7994.224174,3217.601092
200.170342,2072.576638,4959.379811,2145.067394
200.170662,2516.700203,2960.823768,2374.896044
200.170983,3034.844362,2812.782580,1072.533697
200.171304,3552.988522,6513.812290,-2221.676944
200.171624,5477.523971,10140.821405,-3524.039291
200.171945,5625.565159,11251.130318,-3064.381992
200.172266,7550.100608,10066.800811,-1149.143247
200.172587,7994.224174,8734.430116,2374.896044
200.172907,8068.244768,11547.212695,2298.286494
200.173228,5181.441594,10807.006753,-2298.286494
200.173549,4219.173869,9030.512492,-4826.401637
200.173869,6513.812290,7105.977043,-2298.286494
200.174190,5255.462188,6809.894666,2221.676944
200.174511,5181.441594,8438.347739,5669.106685
200.174832,3256.906145,9400.615463,2451.505594
200.175152,74.020594,6587.832884,-1685.410096
200.175473,1850.514855,4219.173869,-1455.581446
200.175794,3627.009116,4219.173869,1838.629195
200.176114,4367.215058,4441.235652,3370.820191
200.176435,7179.997637,8290.306550,1685.410096
200.176756,6069.688724,11769.274478,-1838.629195
200.177077,5773.606348,12065.356855,-3753.867940
200.177397,9400.615463,10214.842000,-842.705048
200.177718,8660.409521,7254.018232,612.876398
200.178039,6809.894666,6217.729913,-689.485948
200.178359,6587.832884,8956.491898,-2298.286494
200.178680,6809.894666,10140.821405,-3524.039291
200.179001,6365.771101,9918.759623,-1915.238745
200.179322,8586.388927,7402.059420,612.876398
200.179642,6365.771101,7179.997637,1455.581446
200.179963,3108.864956,7476.080014,1302.362347
200.180284,2960.823768,6587.832884,3447.429741
200.180604,3182.885551,4145.153275,2987.772442
200.180925,4293.194464,1702.473667,2528.115143
200.181246,3775.050304,4145.153275,2451.505594
200.181567,2220.617826,5625.565159,-1455.581446
200.181887,4145.153275,7846.182985,-4060.306139
200.182208,7254.018232,10658.965565,-2987.772442
200.182529,7105.977043,12435.459826,-2911.162892
200.182849,5403.503377,10584.944971,-1991.848295
200.183170,6809.894666,9844.739029,-995.924147
200.183491,6291.750507,10807.006753,-995.924147
200.183812,3404.947333,11251.130318,-919.314598
200.184132,3330.926739,10214.842000,-1608.800546
200.184453,5181.441594,10510.924376,-1378.971896
200.184774,3108.864956,8956.491898,1762.019645
200.185094,2294.638420,7994.224174,3524.039291
200.185415,2220.617826,6587.832884,1608.800546
200.185736,2294.638420,6365.771101,459.657299
200.186057,1702.473667,6291.750507,2681.334243
200.186377,74.020594,5107.421000,2681.334243
200.186698,3108.864956,5847.626942,1762.019645
200.187019,5847.626942,8068.244768,383.047749
200.187339,5403.503377,11103.089130,-2298.286494
200.187660,7624.121203,12065.356855,-4213.525239
200.187981,7846.182985,11029.068536,-4596.572988
200.188301,7846.182985,10584.944971,-2374.896044
200.188622,8956.491898,9992.780217,76.609550
200.188943,8512.368333,10214.842000,-612.876398
200.189263,6735.874072,10362.883188,-2528.115143
200.189584,6143.709319,8956.491898,-1225.752797
200.189905,5551.544565,5403.503377,842.705048
200.190225,5329.482782,2368.659014,3600.648841
200.190546,3108.864956,3627.009116,4903.011187
200.190867,1924.535449,6661.853478,2298.286494
200.191187,962.267725,5847.626942,-383.047749
200.191508,4515.256246,3775.050304,-919.314598
200.191829,7179.997637,4441.235652,766.095498
200.192149,5107.421000,6217.729913,153.219100
200.192470,5625.565159,9918.759623,-1532.190996
200.192791,6143.709319,12139.377449,-4060.306139
200.193111,5921.647536,11177.109724,-4366.744339
200.193432,8956.491898,9918.759623,-766.095498
200.193753,7920.203579,7994.224174,0.000000
200.194073,6217.729913,8364.327145,-1991.848295
200.194394,4219.173869,9548.656652,-1072.533697
200.194714,4293.194464,9178.553681,-612.876398
200.195035,3923.091493,6069.688724,995.924147
200.195356,4515.256246,2960.823768,3600.648841
200.195676,3034.844362,4515.256246,3447.429741
200.195997,2738.761985,7328.038826,2221.676944
200.196318,814.226536,7920.203579,1302.362347
200.196638,3404.947333,6661.853478,842.705048
200.196959,5181.441594,5551.544565,1378.971896
200.197280,5551.544565,6587.832884,1532.190996
200.197600,4737.318029,8438.347739,-1225.752797
200.197921,6069.688724,11103.089130,-4749.792088
200.198242,7105.977043,11843.295072,-4213.525239
200.198562,7920.203579,10214.842000,-1149.143247
200.198883,8808.450710,8142.265362,842.705048
200.199204,8290.306550,8216.285956,-536.266849
200.199524,6587.832884,9918.759623,-1915.238745
200.199845,3256.906145,10362.883188,-2987.772442
200.200166,3404.947333,8142.265362,-2374.896044
200.200486,4219.173869,6513.812290,1378.971896
200.200807,5329.482782,7105.977043,4826.401637
200.201128,3330.926739,8512.368333,3983.696590
200.201448,814.226536,8734.430116,1455.581446
200.201769,518.144159,8216.285956,-919.314598
200.202090,518.144159,6513.812290,689.485948
200.202410,2294.638420,4145.153275,2298.286494
200.202731,4737.318029,6365.771101,2604.724693
200.203052,6587.832884,12139.377449,689.485948
200.203372,3404.947333,13619.789333,-2757.943793
200.203693,4145.153275,10658.965565,-5056.230287
200.204014,8512.368333,7254.018232,-2528.115143
200.204334,6957.935855,8734.430116,-536.266849
200.204655,6069.688724,9548.656652,229.828649
200.204976,5921.647536,10288.862594,-2145.067394
200.205296,4145.153275,10584.944971,-4366.744339
200.205617,3923.091493,8882.471304,-1072.533697
200.205938,4367.215058,5995.668130,3294.210641
200.206258,3182.885551,4885.359217,2604.724693
200.206579,1332.370696,7328.038826,995.924147
200.206900,518.144159,7476.080014,1302.362347
200.207220,3404.947333,6735.874072,1149.143247
200.207541,4737.318029,4515.256246,2681.334243
200.207862,4737.318029,6069.688724,766.095498
200.208182,5847.626942,8808.450710,-1455.581446
200.208503,5403.503377,9696.697840,-3140.991542
200.208824,6883.915261,9992.780217,-2604.724693
200.209144,9770.718434,8956.491898,-766.095498
200.209465,8734.430116,8216.285956,-536.266849
200.209786,8290.306550,8586.388927,-1838.629195
200.210106,8364.327145,8956.491898,-3217.601092
200.210427,5551.544565,8364.327145,-2911.162892
200.210748,5921.647536,6439.791695,-383.047749
200.211068,6513.812290,4885.359217,2987.772442
200.211389,5329.482782,4441.235652,3907.087040
200.211710,4441.235652,6735.874072,3370.820191
200.212030,2516.700203,7402.059420,0.000000
200.212351,2220.617826,6143.709319,-2604.724693
200.212672,3108.864956,4959.379811,76.609550
200.212992,4959.379811,7179.997637,3524.039291
200.213313,7105.977043,9918.759623,2068.457845
200.213634,5625.565159,11769.274478,-1455.581446
200.213954,5773.606348,11695.253884,-4519.963438
200.214275,5255.462188,10732.986159,-3753.867940
200.214596,5699.585753,7994.224174,-766.095498
200.214916,6809.894666,8290.306550,612.876398
200.215237,7698.141797,8956.491898,306.438199
200.215558,5551.544565,9474.636058,-919.314598
200.215878,3034.844362,9178.553681,-919.314598
200.216199,3034.844362,7476.080014,536.266849
200.216520,3182.885551,7105.977043,2145.067394
200.216840,2812.782580,6365.771101,3064.381992
200.217161,4589.276840,6439.791695,1072.533697
200.217482,2738.761985,7254.018232,-1532.190996
200.217802,1480.411884,8660.409521,-1378.971896
200.218123,3478.967927,8882.471304,1455.581446
200.218444,3701.029710,7476.080014,1149.143247
200.218764,7698.141797,8660.409521,306.438199
200.219085,7846.182985,10584.944971,-919.314598
200.219406,4811.338623,8882.471304,-3140.991542
200.219726,7846.182985,8438.347739,-2145.067394
200.220047,8364.327145,6809.894666,-995.924147
200.220368,6513.812290,7328.038826,-2068.457845
200.220688,7846.182985,7031.956449,-2374.896044
200.221009,5181.441594,7476.080014,-2911.162892
200.221330,4737.318029,8290.306550,-1225.752797
200.221650,3849.070898,7328.038826,1608.800546
200.221971,3849.070898,7402.059420,1532.190996
200.222292,4589.276840,7994.224174,-229.828649
200.222612,3034.844362,8882.471304,-919.314598
200.222933,444.123565,8734.430116,689.485948
200.223254,1850.514855,7328.038826,1608.800546
200.223574,3552.988522,7402.059420,2145.067394
200.223895,3849.070898,7179.997637,919.314598
200.224216,4959.379811,8956.491898,-383.047749
200.224536,5107.421000,9474.636058,-1685.410096
200.224857,5107.421000,9548.656652,-2145.067394
200.225178,5181.441594,8216.285956,-536.266849
200.225498,7624.121203,7105.977043,-306.438199
200.225819,8142.265362,9326.594869,-2068.457845
200.226140,5033.400406,10732.986159,-3140.991542
200.226460,5699.585753,10807.006753,-3140.991542
200.226781,6587.832884,9400.615463,0.000000
200.227102,5255.462188,7179.997637,3294.210641
200.227422,6069.688724,7624.121203,4673.182538
200.227743,5181.441594,8290.306550,1455.581446
200.228064,2146.597232,7846.182985,-1072.533697
200.228384,1332.370696,5773.606348,-306.438199
200.228705,4663.297435,5921.647536,1378.971896
200.229026,4737.318029,6143.709319,1072.533697
200.229346,4885.359217,7846.182985,306.438199
200.229667,7328.038826,9844.739029,-2528.115143
200.229988,5033.400406,10140.821405,-3447.429741
200.230308,5625.565159,9178.553681,-1532.190996
200.230629,8882.471304,8734.430116,306.438199
200.230950,9252.574275,9104.533087,-536.266849
200.231270,9030.512492,9252.574275,-842.705048
200.231591,7031.956449,7772.162391,-1072.533697
200.231912,5255.462188,4293.194464,-1072.533697
200.232232,5773.606348,2368.659014,919.314598
200.232553,6883.915261,3849.070898,2374.896044
200.232874,7179.997637,5921.647536,459.657299
200.233194,7105.977043,6957.935855,-919.314598
200.233515,8142.265362,4737.318029,0.000000
200.233836,7402.059420,3552.988522,1991.848295
200.234156,7920.203579,3256.906145,3907.087040
200.234477,8142.265362,5403.503377,1838.629195
200.234798,7624.121203,8068.244768,-2451.505594
200.235118,9252.574275,9622.677246,-3600.648841
200.235439,11325.150913,8660.409521,-1991.848295
200.235760,10436.903782,5773.606348,-1455.581446
200.236080,9548.656652,5181.441594,-995.924147
200.236401,6957.935855,6069.688724,-1532.190996
200.236722,5329.482782,4293.194464,-1838.629195
200.237042,6735.874072,2368.659014,0.000000
200.237363,9030.512492,3108.864956,2681.334243
200.237684,7476.080014,4515.256246,2604.724693
200.238004,7698.141797,7846.182985,1302.362347
200.238325,8142.265362,10510.924376,0.000000
200.238646,8216.285956,8512.368333,-842.705048
200.238966,8216.285956,4515.256246,1838.629195
200.239287,10584.944971,2516.700203,3524.039291
200.239608,9400.615463,3849.070898,1302.362347
200.239928,5995.668130,5107.421000,-842.705048
200.240249,9622.677246,6661.853478,-2298.286494
200.240570,11621.233289,7105.977043,-689.485948
200.240890,11103.089130,7105.977043,1838.629195
200.241211,11843.295072,5551.544565,1915.238745
200.241532,10807.006753,3552.988522,-2221.676944
200.241852,9770.718434,2442.679609,-4519.963438
200.242173,9992.780217,2442.679609,-1225.752797
200.242494,10436.903782,2072.576638,459.657299
200.242814,12657.521608,5477.523971,536.266849
200.243135,13397.727550,9400.615463,1149.143247
200.243455,8660.409521,8438.347739,-2068.457845
200.243776,9178.553681,5329.482782,-3217.601092
200.244097,9548.656652,3701.029710,383.047749
200.244417,9770.718434,3775.050304,2834.553343
200.244738,9474.636058,4885.359217,2374.896044
200.245059,8512.368333,5995.668130,-766.095498
200.245379,7105.977043,7031.956449,-3140.991542
200.245700,7920.203579,7105.977043,-766.095498
200.246021,7772.162391,7328.038826,689.485948
200.246341,10066.800811,8290.306550,459.657299
200.246662,7550.100608,7105.977043,306.438199
200.246983,6439.791695,5995.668130,-842.705048
200.247303,7179.997637,3404.947333,-153.219100
200.247624,7105.977043,3701.029710,2068.457845
200.247945,6661.853478,5773.606348,2068.457845
200.248265,8734.430116,6883.915261,0.000000
200.248586,8438.347739,7105.977043,-1608.800546
200.248907,10214.842000,6143.709319,-306.438199
200.249227,10881.027347,4737.318029,2145.067394
200.249548,11769.274478,4663.297435,1915.238745
200.249869,9474.636058,4589.276840,0.000000
200.250189,10288.862594,5773.606348,-1532.190996
200.250510,12583.501014,7031.956449,-1532.190996
200.250831,14434.015869,6809.894666,-536.266849
200.251151,11843.295072,3478.967927,-383.047749
200.251472,11251.130318,1406.391290,-2068.457845
200.251793,10362.883188,1628.453072,-2528.115143
200.252113,10288.862594,4293.194464,-919.314598
200.252434,9474.636058,5255.462188,995.924147
200.252755,10362.883188,5551.544565,76.609550
200.253075,10436.903782,6143.709319,306.438199
200.253396,7105.977043,6365.771101,306.438199
200.253717,7105.977043,5551.544565,-306.438199
200.254037,7920.203579,5995.668130,-536.266849
200.254358,5921.647536,5921.647536,0.000000
200.254679,6217.729913,6661.853478,1991.848295
200.254999,7698.141797,6883.915261,1149.143247
200.255320,5625.565159,7105.977043,-76.609550
200.255641,5403.503377,8512.368333,-229.828649
200.255961,6513.812290,8586.388927,995.924147
200.256282,6809.894666,6143.709319,1225.752797
200.256603,7772.162391,2886.803174,2604.724693
200.256923,8734.430116,2442.679609,1762.019645
200.257244,8364.327145,4959.379811,-229.828649
200.257565,7624.121203,7254.018232,-1149.143247
200.257885,9474.636058,7105.977043,-1072.533697
200.258206,12731.542202,5403.503377,0.000000
200.258527,13249.686362,3478.967927,995.924147
200.258847,11769.274478,4293.194464,1149.143247
200.259168,10214.842000,4959.379811,-1072.533697
200.259489,10955.047942,5403.503377,-2757.943793
200.259809,11917.315666,4441.235652,-1991.848295
200.260130,13397.727550,2886.803174,-689.485948
200.260451,13471.748144,3404.947333,-306.438199
200.260771,11769.274478,4367.215058,76.609550
200.261092,9770.718434,4885.359217,-1302.362347
200.261413,10362.883188,4441.235652,-1915.238745
200.261733,9622.677246,3404.947333,-2145.067394
200.262054,10436.903782,4367.215058,-383.047749
200.262375,9770.718434,6809.894666,766.095498
200.262695,6661.853478,7031.956449,0.000000
200.263016,7179.997637,6291.750507,-536.266849
200.263337,8882.471304,6809.894666,-919.314598
200.263657,7328.038826,8216.285956,-1072.533697
200.263978,5995.668130,8660.409521,229.828649
200.264299,5699.585753,8068.244768,1225.752797
200.264619,6735.874072,7846.182985,1532.190996
200.264940,7328.038826,6069.688724,2987.772442
200.265261,6587.832884,4959.379811,1608.800546
200.265581,7698.141797,5033.400406,-229.828649
200.265902,7698.141797,4959.379811,0.000000
200.266223,8660.409521,3923.091493,1072.533697
200.266543,12213.398043,2960.823768,1072.533697
200.266864,13027.624579,3701.029710,153.219100
200.267185,12287.418637,5921.647536,-1225.752797
200.267505,11917.315666,6439.791695,-1991.848295
200.267826,13471.748144,5255.462188,-2374.896044
200.268147,15026.180623,3997.112087,-1608.800546
200.268467,14952.160028,3552.988522,-766.095498
200.268788,14137.933492,5995.668130,-2145.067394
200.269109,10732.986159,6587.832884,-2757.943793
200.269429,10066.800811,5107.421000,-2451.505594
200.269750,11621.233289,3108.864956,383.047749
200.270071,10362.883188,2146.597232,2221.676944
200.270391,9030.512492,3701.029710,1378.971896
200.270712,7031.956449,5773.606348,-383.047749
200.271033,5255.462188,6143.709319,-919.314598
200.271353,7105.977043,5625.565159,1225.752797
200.271674,7328.038826,5625.565159,2451.505594
200.271995,6661.853478,6439.791695,1225.752797
200.272315,4959.379811,8882.471304,-536.266849
200.272636,5329.482782,9548.656652,-995.924147
200.272957,5625.565159,7772.162391,0.000000
200.273277,6069.688724,5033.400406,1072.533697
200.273598,7328.038826,4663.297435,1378.971896
200.273919,7624.121203,5773.606348,689.485948
200.274239,6217.729913,6069.688724,0.000000
200.274560,9622.677246,5477.523971,-536.266849
200.274881,12435.459826,4811.338623,-306.438199
200.275201,11769.274478,4515.256246,459.657299
200.275522,12065.356855,4737.318029,1378.971896
200.275843,11843.295072,4589.276840,0.000000
200.276163,11251.130318,3775.050304,-1072.533697
200.276484,12065.356855,2294.638420,-689.485948
200.276805,12879.583391,2146.597232,-1685.410096
200.277125,12435.459826,3923.091493,-1915.238745
200.277446,11843.295072,6587.832884,-1302.362347
200.277767,11695.253884,7772.162391,-1378.971896
200.278087,10881.027347,6069.688724,-842.705048
200.278408,9252.574275,3923.091493,153.219100
200.278729,7846.182985,3627.009116,153.219100
200.279049,7624.121203,4737.318029,0.000000
200.279370,7328.038826,6365.771101,-459.657299
200.279691,8734.430116,7994.224174,-842.705048
200.280011,8142.265362,8734.430116,153.219100
200.280332,7105.977043,7994.224174,1302.362347
200.280653,6217.729913,6513.812290,1838.629195
200.280973,6069.688724,4737.318029,2145.067394
200.281294,5773.606348,3627.009116,1225.752797
200.281615,6883.915261,3478.967927,153.219100
200.281935,8364.327145,3849.070898,-306.438199
200.282256,10584.944971,5773.606348,306.438199
200.282577,11029.068536,7105.977043,612.876398
200.282897,11473.192101,7105.977043,-689.485948
200.283218,11843.295072,5921.647536,-1838.629195
200.283539,11547.212695,4293.194464,-1532.190996
200.283859,12065.356855,3404.947333,-306.438199
200.284180,11843.295072,3182.885551,-383.047749
200.284501,12065.356855,4219.173869,-1685.410096
200.284821,11991.336260,5921.647536,-2451.505594
200.285142,10881.027347,7105.977043,-3217.601092
200.285463,11325.150913,6883.915261,-1838.629195
200.285783,10807.006753,5921.647536,229.828649
200.286104,10140.821405,4441.235652,1991.848295
200.286425,8438.347739,3923.091493,1685.410096
200.286746,7105.977043,4589.276840,0.000000
200.287066,6069.688724,5403.503377,-919.314598
200.287387,6809.894666,6217.729913,0.000000
200.287708,7624.121203,6513.812290,306.438199
200.288028,8068.244768,7031.956449,-76.609550
200.288349,7476.080014,7254.018232,-612.876398
200.288670,7994.224174,7550.100608,0.000000
200.288991,7698.141797,7031.956449,1378.971896
200.289311,7920.203579,5995.668130,2298.286494
200.289632,8216.285956,5329.482782,1378.971896
200.289953,8290.306550,5329.482782,-383.047749
200.290273,9178.553681,6513.812290,-1685.410096
200.290594,9622.677246,5847.626942,-1149.143247
200.290915,9918.759623,3627.009116,-766.095498
200.291236,10658.965565,2738.761985,0.000000
200.291556,10732.986159,3182.885551,383.047749
200.291877,10288.862594,5551.544565,153.219100
200.292198,10140.821405,6291.750507,0.000000
200.292519,10140.821405,5921.647536,-612.876398
200.292839,11177.109724,5255.462188,-536.266849
200.293160,10436.903782,4589.276840,-919.314598
200.293481,9326.594869,5181.441594,-766.095498
200.293801,8882.471304,6291.750507,-1302.362347
200.294122,8734.430116,6513.812290,-1302.362347
200.294443,8364.327145,5699.585753,-689.485948
200.294764,8734.430116,4367.215058,76.609550
200.295084,8808.450710,4145.153275,459.657299
200.295405,7772.162391,3775.050304,1149.143247
200.295726,8290.306550,3552.988522,689.485948
200.296047,9400.615463,3775.050304,0.000000
200.296367,10510.924376,4441.235652,153.219100
200.296688,9770.718434,6069.688724,0.000000
200.297009,10288.862594,7328.038826,-536.266849
200.297329,10214.842000,7624.121203,-766.095498
200.297650,10140.821405,7476.080014,-536.266849
200.297971,9844.739029,6513.812290,0.000000
200.298292,9252.574275,5181.441594,229.828649
200.298612,7994.224174,4219.173869,1149.143247
200.298933,8216.285956,3849.070898,1915.238745
200.299254,8734.430116,4367.215058,1762.019645
200.299575,9104.533087,5107.421000,536.266849
200.299895,8808.450710,5255.462188,0.000000
200.300216,8808.450710,4737.318029,-536.266849
200.300537,9326.594869,4589.276840,-995.924147
200.300857,9622.677246,4885.359217,-1378.971896
200.301178,10214.842000,6439.791695,-1532.190996
200.301499,10510.924376,8068.244768,-2221.676944
200.301820,10362.883188,8586.388927,-1608.800546
200.302140,10288.862594,7994.224174,-229.828649
200.302461,10140.821405,7105.977043,689.485948
200.302782,9474.636058,5921.647536,995.924147
200.303103,8290.306550,4515.256246,306.438199
200.303423,7402.059420,3627.009116,76.609550
200.303744,8290.306550,2664.741391,995.924147
200.304065,8512.368333,3034.844362,1149.143247
200.304385,8882.471304,4071.132681,0.000000
200.304706,8956.491898,6661.853478,-459.657299
200.305027,8734.430116,8882.471304,-536.266849
200.305348,8586.388927,9844.739029,153.219100
200.305668,8438.347739,9474.636058,1225.752797
200.305989,7476.080014,8882.471304,2068.457845
200.306310,6439.791695,8438.347739,1302.362347
200.306631,4219.173869,7994.224174,612.876398
200.306951,3552.988522,6735.874072,-536.266849
200.307272,4293.194464,5625.565159,-612.876398
200.307593,5255.462188,5477.523971,306.438199
200.307913,4737.318029,6513.812290,1225.752797
200.308234,4589.276840,8660.409521,1838.629195
200.308555,5107.421000,10288.862594,1991.848295
200.308876,6365.771101,10510.924376,2834.553343
200.309196,7179.997637,10214.842000,3753.867940
200.309517,6587.832884,9178.553681,3447.429741
200.309838,5921.647536,8142.265362,2911.162892
200.310159,5699.585753,8068.244768,2451.505594
200.310479,5995.668130,8290.306550,2451.505594
200.310800,6439.791695,8734.430116,3217.601092
200.311121,6735.874072,8512.368333,3524.039291
200.311441,6217.729913,8290.306550,4136.915689
200.311762,5995.668130,7920.203579,4903.011187
200.312083,6069.688724,7328.038826,5515.887586
200.312404,6809.894666,7179.997637,5515.887586
200.312724,7105.977043,7476.080014,5592.497135
200.313045,6809.894666,8364.327145,5898.935335
200.313366,7031.956449,9104.533087,6052.154434
200.313687,6661.853478,8882.471304,6358.592633
200.314007,6217.729913,8808.450710,7431.126331
200.314328,6143.709319,8216.285956,7354.516781
200.314649,5699.585753,7698.141797,6741.640382
200.314969,4959.379811,6291.750507,6205.373534
200.315290,4737.318029,5033.400406,6588.421283
200.315611,4959.379811,4959.379811,6741.640382
200.315932,5329.482782,6069.688724,7124.688131
200.316252,5625.565159,7550.100608,6052.154434
200.316573,5477.523971,8364.327145,5745.716235
200.316894,6217.729913,8512.368333,6128.763984
200.317214,6069.688724,7920.203579,7277.907231
200.317535,4885.359217,7328.038826,7660.954980
200.317856,4367.215058,6217.729913,7584.345430
200.318177,3627.009116,5995.668130,7507.735880
200.318497,2738.761985,6143.709319,6128.763984
200.318818,2590.720797,5773.606348,5975.544884
200.319139,2442.679609,5181.441594,6588.421283
200.319460,2664.741391,5181.441594,6281.983084
200.319780,3108.864956,6661.853478,6358.592633
200.320101,2886.803174,7254.018232,6205.373534
200.320422,2738.761985,7476.080014,5822.325785
200.320742,3627.009116,7994.224174,6358.592633
200.321063,4441.235652,8734.430116,6511.811733
200.321384,4219.173869,9400.615463,5822.325785
200.321705,3775.050304,7994.224174,4749.792088
200.322025,3849.070898,6661.853478,4826.401637
200.322346,3627.009116,5625.565159,4903.011187
200.322667,3404.947333,4959.379811,4749.792088
200.322988,3034.844362,4071.132681,4213.525239
200.323308,3330.926739,4737.318029,2757.943793
200.323629,4589.276840,6513.812290,2834.553343
200.323950,5403.503377,8290.306550,2451.505594
200.324270,5921.647536,9400.615463,2298.286494
200.324591,7105.977043,10732.986159,2528.115143
200.324912,7846.182985,11991.336260,2911.162892
200.325233,7179.997637,11695.253884,3217.601092
200.325553,6735.874072,10288.862594,4749.792088
200.325874,6735.874072,10436.903782,6818.249932
200.326195,5625.565159,10288.862594,6665.030833
200.326516,4737.318029,9252.574275,5515.887586
200.326836,3552.988522,6809.894666,3524.039291
200.327157,2590.720797,3701.029710,2374.896044
200.327478,3404.947333,1998.556043,2145.067394
200.327798,4811.338623,2960.823768,2221.676944
200.328119,6143.709319,7254.018232,919.314598
200.328440,7328.038826,12657.521608,-459.657299
200.328761,9622.677246,16802.674883,-1072.533697
200.329081,10658.965565,18283.086767,689.485948
200.329402,9622.677246,17098.757260,2911.162892
200.329723,8216.285956,14211.954086,5669.106685
200.330044,6661.853478,9918.759623,6052.154434
200.330364,4811.338623,6661.853478,6358.592633
200.330685,4071.132681,6069.688724,6971.469032
200.331006,1480.411884,5995.668130,5898.935335
200.331326,888.247130,6957.935855,3983.696590
200.331647,2368.659014,7031.956449,3524.039291
200.331968,3701.029710,6143.709319,3064.381992
200.332289,5033.400406,6735.874072,4136.915689
200.332609,6439.791695,8364.327145,4290.134789
200.332930,6661.853478,11991.336260,3447.429741
200.333251,5847.626942,14434.015869,2451.505594
200.333572,6957.935855,14508.036463,2451.505594
200.333892,9178.553681,14063.912898,2834.553343
200.334213,7328.038826,10732.986159,4673.182538
200.334534,4293.194464,5625.565159,6435.202183
200.334854,4663.297435,3256.906145,7660.954980
200.335175,888.247130,3330.926739,6358.592633
200.335496,2146.597232,4663.297435,4443.353888
200.335817,4959.379811,6439.791695,3140.991542
200.336137,6661.853478,7994.224174,3907.087040
200.336458,5255.462188,7031.956449,6665.030833
200.336779,6735.874072,7402.059420,9422.974625
200.337100,7846.182985,9696.697840,9806.022374
200.337420,4367.215058,11917.315666,8273.831378
200.337741,1924.535449,9474.636058,6205.373534
200.338062,3034.844362,5255.462188,4290.134789
200.338382,4219.173869,3478.967927,5209.449386
200.338703,3034.844362,3775.050304,8810.098227
200.339024,4737.318029,7550.100608,9346.365076
200.339345,2072.576638,9178.553681,5515.887586
200.339665,1258.350101,9252.574275,3830.477490
200.339986,2960.823768,6513.812290,5745.716235
200.340307,3923.091493,3108.864956,6971.469032
200.340627,4441.235652,2590.720797,8197.221829
200.340948,7402.059420,6735.874072,7814.174080
200.341269,7031.956449,12287.418637,5209.449386
200.341590,3775.050304,11843.295072,3140.991542
200.341910,4441.235652,7698.141797,4519.963438
200.342231,6587.832884,4811.338623,6435.202183
200.342552,3256.906145,3404.947333,8580.269578
200.342873,3256.906145,4367.215058,9576.193725
200.343193,5847.626942,7920.203579,8733.488677
200.343514,4145.153275,11695.253884,6511.811733
200.343835,4293.194464,12361.439231,5439.278036
200.344155,5847.626942,11325.150913,3830.477490
200.344476,4737.318029,7772.162391,3064.381992
200.344797,2664.741391,4811.338623,5592.497135
200.345118,5551.544565,3552.988522,7814.174080
200.345438,5181.441594,5255.462188,7431.126331
200.345759,2886.803174,6291.750507,6205.373534
200.346080,3182.885551,7179.997637,3983.696590
200.346401,6661.853478,10362.883188,3064.381992
200.346721,4663.297435,11991.336260,5592.497135
200.347042,4959.379811,12435.459826,7124.688131
200.347363,7772.162391,10584.944971,6588.421283
200.347683,7624.121203,9474.636058,4213.525239
200.348004,3849.070898,6735.874072,1685.410096
200.348325,3256.906145,4441.235652,-306.438199
200.348646,6069.688724,5329.482782,1608.800546
200.348966,5847.626942,9030.512492,6665.030833
200.349287,5699.585753,10658.965565,7354.516781
200.349608,7105.977043,10584.944971,4136.915689
200.349929,5995.668130,11695.253884,1915.238745
200.350249,4589.276840,10955.047942,3217.601092
200.350570,5403.503377,8438.347739,5745.716235
200.350891,5847.626942,6291.750507,5745.716235
200.351211,5181.441594,6365.771101,4903.011187
200.351532,4737.318029,8290.306550,4136.915689
200.351853,5107.421000,9918.759623,2911.162892
200.352174,4589.276840,10807.006753,3294.210641
200.352494,5773.606348,10214.842000,4826.401637
200.352815,7328.038826,9844.739029,5209.449386
200.353136,6735.874072,8438.347739,5362.668486
200.353457,4145.153275,7994.224174,5209.449386
200.353777,3775.050304,7994.224174,4903.011187
200.354098,4885.359217,8290.306550,4213.525239
200.354419,5625.565159,8216.285956,3983.696590
200.354739,6217.729913,7550.100608,3983.696590
200.355060,6809.894666,7698.141797,4060.306139
200.355381,5403.503377,8734.430116,4213.525239
200.355702,4145.153275,9474.636058,3830.477490
200.356022,4145.153275,8438.347739,3753.867940
200.356343,6143.709319,6957.935855,4519.963438
200.356664,7550.100608,7328.038826,6358.592633
200.356985,6217.729913,8438.347739,6281.983084
200.357305,4071.132681,9844.739029,5056.230287
200.357626,3256.906145,9992.780217,4979.620737
200.357947,3552.988522,7994.224174,6052.154434
200.358267,5329.482782,5255.462188,6741.640382
200.358588,6365.771101,6735.874072,5669.106685
200.358909,3330.926739,7476.080014,4290.134789
200.359230,518.144159,7105.977043,4136.915689
200.359550,2368.659014,6143.709319,4213.525239
200.359871,4811.338623,5699.585753,4290.134789
200.360192,5255.462188,6661.853478,4596.572988
200.360513,5995.668130,9474.636058,4596.572988
200.360833,3849.070898,11325.150913,4519.963438
200.361154,3552.988522,11547.212695,4673.182538
200.361475,6735.874072,9474.636058,6281.983084
200.361795,7105.977043,7550.100608,6818.249932
200.362116,5477.523971,8808.450710,7660.954980
200.362437,3701.029710,9770.718434,8273.831378
200.362758,2368.659014,7476.080014,6435.202183
200.363078,3034.844362,3923.091493,5822.325785
200.363399,4441.235652,2960.823768,7354.516781
200.363720,4885.359217,4737.318029,7584.345430
200.364041,3923.091493,7328.038826,5898.935335
200.364361,3552.988522,6809.894666,3677.258390
200.364682,5033.400406,5699.585753,1838.629195
200.365003,7476.080014,6957.935855,3600.648841
200.365323,6809.894666,9178.553681,4903.011187
200.365644,5995.668130,10510.924376,4519.963438
200.365965,7772.162391,11103.089130,3983.696590
200.366286,6513.812290,9326.594869,3217.601092
200.366606,4885.359217,8364.327145,3447.429741
200.366927,4959.379811,7994.224174,5439.278036
200.367248,4515.256246,8068.244768,6281.983084
200.367568,3775.050304,7328.038826,5286.058936
200.367889,2886.803174,6513.812290,3983.696590
200.368210,2368.659014,5255.462188,3677.258390
200.368531,2812.782580,4737.318029,5439.278036
200.368851,3923.091493,7698.141797,6818.249932
200.369172,3849.070898,10140.821405,3753.867940
200.369493,4589.276840,11473.192101,1455.581446
200.369814,6143.709319,11251.130318,3370.820191
200.370134,7031.956449,11251.130318,7124.688131
200.370455,6365.771101,11177.109724,7967.393179
200.370776,5551.544565,10955.047942,4366.744339
200.371096,3552.988522,9770.718434,1991.848295
200.371417,5255.462188,7328.038826,5362.668486
200.371738,7698.141797,7254.018232,8273.831378
200.372059,6365.771101,7328.038826,6128.763984
200.372379,3256.906145,5181.441594,2757.943793
200.372700,5551.544565,5625.565159,2298.286494
200.373021,5921.647536,6735.874072,4749.792088
200.373342,5477.523971,5995.668130,6052.154434
200.373662,5847.626942,5551.544565,3677.258390
200.373983,8216.285956,7920.203579,1455.581446
200.374304,7031.956449,11251.130318,2451.505594
200.374624,6365.771101,10955.047942,3983.696590
200.374945,7994.224174,9844.739029,2221.676944
200.375266,7846.182985,9030.512492,1838.629195
200.375587,4367.215058,8586.388927,3830.477490
200.375907,4663.297435,8364.327145,4519.963438
200.376228,5847.626942,9770.718434,4060.306139
200.376549,3552.988522,9252.574275,3753.867940
200.376870,3701.029710,6439.791695,4596.572988
200.377190,4145.153275,4811.338623,5822.325785
200.377511,2072.576638,5551.544565,6741.640382
200.377832,1184.329507,6365.771101,5669.106685
200.378152,3849.070898,6735.874072,2987.772442
200.378473,3404.947333,6587.832884,1838.629195
200.378794,4071.132681,7254.018232,4443.353888
200.379115,6587.832884,8660.409521,5515.887586
200.379435,6069.688724,9474.636058,2834.553343
200.379756,4071.132681,8512.368333,919.314598
200.380077,4589.276840,7328.038826,919.314598
200.380398,5625.565159,5995.668130,2145.067394
200.380718,6809.894666,6809.894666,3907.087040
200.381039,6069.688724,8956.491898,2528.115143
200.381360,5921.647536,9400.615463,0.000000
200.381680,2886.803174,7105.977043,306.438199
200.382001,5033.400406,5773.606348,2451.505594
200.382322,4441.235652,4515.256246,2681.334243
200.382643,5255.462188,6957.935855,1838.629195
200.382963,4219.173869,9992.780217,1532.190996
200.383284,4219.173869,10288.862594,689.485948
200.383605,5995.668130,8882.471304,919.314598
200.383926,4885.359217,8142.265362,2221.676944
200.384246,3997.112087,7402.059420,2298.286494
200.384567,5699.585753,9400.615463,2374.896044
200.384888,4737.318029,10066.800811,1072.533697
200.385208,4145.153275,7920.203579,0.000000
200.385529,6291.750507,6069.688724,459.657299
200.385850,6143.709319,7179.997637,3217.601092
200.386171,3627.009116,8290.306550,4673.182538
200.386491,5625.565159,11103.089130,3524.039291
200.386812,7031.956449,10140.821405,-612.876398
200.387133,3997.112087,6957.935855,-1302.362347
200.387454,5625.565159,6217.729913,1838.629195
200.387774,6809.894666,9696.697840,2451.505594
200.388095,3478.967927,10732.986159,459.657299
200.388415,2294.638420,7698.141797,-1762.019645
200.388736,5033.400406,6809.894666,-2298.286494
200.389057,4589.276840,6661.853478,536.266849
200.389377,1554.432478,7179.997637,1532.190996
200.389698,4515.256246,8290.306550,-2221.676944
200.390018,6217.729913,9992.780217,-4443.353888
200.390339,6439.791695,11325.150913,-2451.505594
200.390660,9104.533087,10881.027347,229.828649
200.390980,8586.388927,10584.944971,306.438199
200.391301,4219.173869,9104.533087,383.047749
200.391621,4737.318029,6735.874072,459.657299
200.391942,6217.729913,5847.626942,-995.924147
200.392263,5625.565159,6069.688724,-306.438199
200.392583,4959.379811,7254.018232,1378.971896
200.392904,4811.338623,5773.606348,76.609550
200.393224,4737.318029,4737.318029,-2374.896044
200.393545,3775.050304,4441.235652,-2604.724693
200.393866,6365.771101,7920.203579,-1532.190996
200.394186,7920.203579,11103.089130,-153.219100
200.394507,6439.791695,13101.645173,-459.657299
200.394827,7624.121203,13027.624579,-689.485948
200.395148,7031.956449,11991.336260,0.000000
200.395469,4367.215058,8882.471304,1685.410096
200.395789,3182.885551,6809.894666,1608.800546
200.396110,2516.700203,7254.018232,-229.828649
200.396430,3404.947333,7846.182985,-1225.752797
200.396751,2516.700203,6957.935855,-1149.143247
200.397072,3404.947333,5477.523971,0.000000
200.397392,3108.864956,5329.482782,2068.457845
200.397713,2886.803174,7402.059420,1149.143247
200.398033,4145.153275,7772.162391,-1302.362347
200.398354,5995.668130,7920.203579,-2987.772442
200.398675,6809.894666,9104.533087,-2451.505594
200.398995,6735.874072,11177.109724,-2298.286494
200.399316,7550.100608,12953.603985,-1532.190996
200.399636,7550.100608,11473.192101,153.219100
200.399957,6217.729913,9918.759623,1302.362347
200.400277,6143.709319,9400.615463,2528.115143
200.400598,5847.626942,9622.677246,1455.581446
200.400919,2072.576638,6957.935855,-536.266849
200.401239,592.164754,2812.782580,-536.266849
200.401560,2812.782580,814.226536,1378.971896
200.401880,5847.626942,1406.391290,2451.505594
200.402201,5329.482782,4367.215058,306.438199
200.402522,4219.173869,7846.182985,-3830.477490
200.402842,5625.565159,11621.233289,-4290.134789
200.403163,7920.203579,13027.624579,-383.047749
200.403483,8364.327145,11177.109724,1378.971896
200.403804,10066.800811,10214.842000,1532.190996
200.404125,6809.894666,10658.965565,76.609550
200.404445,2812.782580,9622.677246,-919.314598
200.404766,2072.576638,6513.812290,-1608.800546
200.405086,3849.070898,4293.194464,-2757.943793
200.405407,4441.235652,5033.400406,-842.705048
200.405728,2072.576638,4737.318029,229.828649
200.406048,1258.350101,3923.091493,-919.314598
200.406369,3330.926739,4293.194464,-689.485948
200.406689,4589.276840,5995.668130,229.828649
200.407010,5403.503377,5921.647536,76.609550
200.407331,7328.038826,7920.203579,-1762.019645
200.407651,7994.224174,12805.562797,-2451.505594
200.407972,7328.038826,14211.954086,-2604.724693
200.408292,7031.956449,10214.842000,-2298.286494
200.408613,6809.894666,6069.688724,-1302.362347
200.408934,5033.400406,5773.606348,612.876398
200.409254,4663.297435,7624.121203,-383.047749
200.409575,4145.153275,9696.697840,-3370.820191
200.409895,2812.782580,10584.944971,-4136.915689
200.410216,2590.720797,9548.656652,-536.266849
200.410537,4885.359217,8364.327145,1915.238745
200.410857,3182.885551,6661.853478,2145.067394
200.411178,2516.700203,6661.853478,919.314598
200.411498,3034.844362,7476.080014,-1149.143247
200.411819,3256.906145,7698.141797,-995.924147
200.412140,5551.544565,10066.800811,-306.438199
200.412460,8142.265362,13397.727550,-689.485948
200.412781,6513.812290,13915.871710,-995.924147
200.413101,4959.379811,12805.562797,-919.314598
200.413422,6143.709319,10881.027347,153.219100
200.413743,6587.832884,9622.677246,1608.800546
200.414063,4589.276840,7994.224174,1302.362347
200.414384,5403.503377,8068.244768,76.609550
200.414704,4737.318029,8512.368333,-689.485948
200.415025,5033.400406,7402.059420,1915.238745
200.415345,6365.771101,6957.935855,2451.505594
200.415666,3701.029710,5181.441594,-536.266849
200.415987,3034.844362,4071.132681,-766.095498
200.416307,5107.421000,4293.194464,689.485948
200.416628,7550.100608,6439.791695,-1302.362347
200.416948,7624.121203,10288.862594,-1685.410096
200.417269,7402.059420,13323.706956,-1685.410096
200.417590,6439.791695,12583.501014,-1378.971896
200.417910,6069.688724,9400.615463,842.705048
200.418231,6809.894666,5551.544565,2604.724693
200.418551,6809.894666,4441.235652,1072.533697
200.418872,2368.659014,5181.441594,-383.047749
200.419193,1554.432478,6735.874072,-459.657299
200.419513,3404.947333,6883.915261,229.828649
200.419834,4219.173869,6439.791695,536.266849
200.420154,3552.988522,5033.400406,766.095498
200.420475,1628.453072,3108.864956,229.828649
200.420796,814.226536,3330.926739,-919.314598
200.421116,2442.679609,3997.112087,-306.438199
200.421437,4219.173869,5699.585753,-306.438199
200.421757,6069.688724,8956.491898,-995.924147
200.422078,8216.285956,13915.871710,-766.095498
200.422399,6143.709319,14804.118840,-842.705048
200.422719,6883.915261,12361.439231,-1991.848295
200.423040,6735.874072,8586.388927,-1532.190996
200.423360,4589.276840,5181.441594,76.609550
200.423681,4367.215058,5107.421000,1915.238745
200.424002,3775.050304,6439.791695,1762.019645
200.424322,2738.761985,6809.894666,0.000000
200.424643,4071.132681,7772.162391,-1072.533697
200.424963,5773.606348,9252.574275,536.266849
200.425284,2738.761985,7402.059420,1455.581446
200.425605,2738.761985,5107.421000,995.924147
200.425925,5847.626942,5847.626942,1225.752797
200.426246,4367.215058,7476.080014,76.609550
200.426566,3404.947333,9030.512492,-1608.800546
200.426887,6957.935855,11547.212695,-3753.867940
200.427208,7624.121203,12879.583391,-5669.106685
200.427528,8216.285956,13397.727550,-3983.696590
200.427849,8660.409521,11917.315666,-153.219100
200.428169,6513.812290,9252.574275,0.000000
200.428490,7105.977043,8808.450710,1149.143247
200.428811,3701.029710,9030.512492,0.000000
200.429131,2368.659014,5551.544565,-1838.629195
200.429452,5033.400406,4737.318029,76.609550
200.429772,5181.441594,6883.915261,2757.943793
200.430093,2812.782580,5921.647536,0.000000
200.430413,2590.720797,3997.112087,-3294.210641
200.430734,5847.626942,6587.832884,-3294.210641
200.431055,5329.482782,8734.430116,-919.314598
200.431375,4811.338623,10732.986159,-153.219100
200.431696,6957.935855,11621.233289,-4136.915689
200.432016,5477.523971,11917.315666,-4060.306139
200.432337,7179.997637,13915.871710,1608.800546
200.432658,9030.512492,14434.015869,3217.601092
200.432978,5625.565159,12139.377449,-1991.848295
200.433299,3330.926739,8142.265362,-2528.115143
200.433619,2146.597232,3552.988522,-612.876398
200.433940,2664.741391,592.164754,2145.067394
200.434261,3478.967927,2072.576638,4290.134789
200.434581,3256.906145,5847.626942,2298.286494
200.434902,3997.112087,8290.306550,-1302.362347
200.435222,3478.967927,9252.574275,76.609550
200.435543,4959.379811,7698.141797,2221.676944
200.435864,8438.347739,7105.977043,2221.676944
200.436184,8068.244768,9474.636058,0.000000
200.436505,5551.544565,12139.377449,-3830.477490
200.436825,6143.709319,13101.645173,-4136.915689
200.437146,6661.853478,9696.697840,-1225.752797
200.437467,8586.388927,6661.853478,2298.286494
200.437787,6365.771101,7476.080014,2298.286494
200.438108,3256.906145,9770.718434,842.705048
200.438428,666.185348,9400.615463,-229.828649
200.438749,2368.659014,3849.070898,1149.143247
200.439070,5329.482782,1184.329507,3294.210641
200.439390,4589.276840,2590.720797,4979.620737
200.439711,3256.906145,4663.297435,3907.087040
200.440031,1924.535449,7105.977043,-536.266849
200.440352,4441.235652,8512.368333,-2757.943793
200.440673,6957.935855,9104.533087,-1685.410096
200.440993,6883.915261,9326.594869,-919.314598
200.441314,6587.832884,8882.471304,1149.143247
200.441634,6291.750507,10807.006753,229.828649
200.441955,3701.029710,10362.883188,-2528.115143
200.442276,3775.050304,8290.306550,-2451.505594
200.442596,4811.338623,7846.182985,-229.828649
200.442917,4885.359217,9400.615463,1991.848295
200.443237,3997.112087,8882.471304,1838.629195
200.443558,1184.329507,4071.132681,-919.314598
200.443879,2664.741391,1628.453072,-689.485948
200.444199,3478.967927,2368.659014,3064.381992
200.444520,1554.432478,2960.823768,2374.896044
200.444840,4219.173869,5403.503377,-1608.800546
200.445161,7105.977043,9252.574275,-4519.963438
200.445481,8586.388927,12213.398043,-2834.553343
200.445802,8734.430116,12213.398043,229.828649
200.446123,7476.080014,11843.295072,536.266849
200.446443,6069.688724,10214.842000,-1378.971896
200.446764,5329.482782,8882.471304,-2374.896044
200.447084,5107.421000,9030.512492,-3983.696590
200.447405,5329.482782,10140.821405,-3447.429741
200.447726,6735.874072,10510.924376,-612.876398
200.448046,7105.977043,10214.842000,1378.971896
200.448367,4071.132681,7772.162391,2374.896044
200.448687,2072.576638,5033.400406,2911.162892
200.449008,1850.514855,3701.029710,3447.429741
200.449329,1776.494261,3701.029710,2528.115143
200.449649,4367.215058,6513.812290,1149.143247
200.449970,7328.038826,11547.212695,-1762.019645
200.450290,7031.956449,14878.139434,-2911.162892
200.450611,7698.141797,14878.139434,-1762.019645
200.450932,6661.853478,11843.295072,-1991.848295
200.451252,6217.729913,10066.800811,-3600.648841
200.451573,7031.956449,11103.089130,-1991.848295
200.451893,6291.750507,10066.800811,1532.190996
200.452214,6143.709319,9474.636058,3600.648841
200.452535,5107.421000,9696.697840,2834.553343
200.452855,2664.741391,8142.265362,1302.362347
200.453176,962.267725,4293.194464,1685.410096
200.453496,1702.473667,2664.741391,1149.143247
200.453817,4737.318029,2886.803174,-1838.629195
200.454138,4515.256246,4219.173869,-3064.381992
200.454458,5181.441594,6365.771101,-1915.238745
200.454779,5847.626942,10066.800811,1149.143247
200.455099,7328.038826,13471.748144,2604.724693
200.455420,6365.771101,14285.974681,0.000000
200.455741,3849.070898,10584.944971,-3753.867940
200.456061,5107.421000,6143.709319,306.438199
200.456382,7624.121203,7105.977043,6205.373534
200.456702,3478.967927,6143.709319,3447.429741
200.457023,370.102971,4589.276840,-3907.087040
200.457344,2590.720797,5551.544565,-7048.078582
200.457664,4071.132681,6439.791695,-2374.896044
200.457985,3330.926739,3923.091493,4443.353888
200.458305,6143.709319,2812.782580,4979.620737
200.458626,6217.729913,3923.091493,1838.629195
200.458947,2294.638420,5551.544565,0.000000
200.459267,4145.153275,7402.059420,-306.438199
200.459588,8142.265362,10066.800811,-306.438199
200.459908,7920.203579,11769.274478,-689.485948
200.460229,7105.977043,10732.986159,0.000000
200.460550,7994.224174,9178.553681,-995.924147
200.460870,4663.297435,7105.977043,-306.438199
200.461191,3701.029710,6957.935855,766.095498
200.461511,4293.194464,6735.874072,-1302.362347
200.461832,3627.009116,6439.791695,-2911.162892
200.462152,1924.535449,6439.791695,-76.609550
200.462473,3923.091493,8734.430116,2987.772442
200.462794,6513.812290,8660.409521,4903.011187
200.463114,2886.803174,7179.997637,1378.971896
200.463435,3182.885551,7328.038826,-3140.991542
200.463755,4145.153275,9622.677246,-3907.087040
200.464076,4811.338623,9992.780217,-842.705048
200.464397,8142.265362,9326.594869,1302.362347
200.464717,7698.141797,9992.780217,1838.629195
200.465038,3849.070898,12361.439231,1455.581446
200.465358,4811.338623,14137.933492,1225.752797
200.465679,5625.565159,13175.665768,0.000000
200.466000,4071.132681,9474.636058,-383.047749
200.466320,4589.276840,6439.791695,76.609550
200.466641,4885.359217,5551.544565,76.609550
200.466961,4145.153275,5847.626942,1225.752797
200.467282,3108.864956,6587.832884,2145.067394
200.467603,4515.256246,6735.874072,-1225.752797
200.467923,3997.112087,5403.503377,-2451.505594
200.468244,4071.132681,6513.812290,76.609550
200.468564,8364.327145,10881.027347,1685.410096
200.468885,9030.512492,13101.645173,153.219100
200.469206,6217.729913,13027.624579,-2221.676944
200.469526,7105.977043,11769.274478,-3140.991542
200.469847,6217.729913,8438.347739,-842.705048
200.470167,6143.709319,5255.462188,1455.581446
200.470488,5033.400406,4885.359217,76.609550
200.470809,5625.565159,6883.915261,-1915.238745
200.471129,3997.112087,7846.182985,-1149.143247
200.471450,3923.091493,6513.812290,612.876398
200.471770,4885.359217,6143.709319,1149.143247
200.472091,4071.132681,6513.812290,2298.286494
200.472412,1628.453072,4737.318029,1838.629195
200.472732,2516.700203,3256.906145,-2298.286494
200.473053,5551.544565,6513.812290,-2451.505594
200.473373,5847.626942,8586.388927,-1378.971896
200.473694,7105.977043,9844.739029,-2528.115143
200.474015,7402.059420,11399.171507,-3830.477490
200.474335,6661.853478,12879.583391,-612.876398
200.474656,5773.606348,11769.274478,2604.724693
200.474976,6513.812290,9474.636058,2681.334243
200.475297,3775.050304,8290.306550,1302.362347
200.475618,740.205942,6513.812290,1608.800546
200.475938,1554.432478,3478.967927,842.705048
200.476259,3923.091493,3256.906145,-459.657299
200.476579,3701.029710,4885.359217,-153.219100
200.476900,3997.112087,8142.265362,612.876398
200.477220,3775.050304,7846.182985,-229.828649
200.477541,3775.050304,5699.585753,-229.828649
200.477862,6217.729913,6809.894666,459.657299
200.478182,9474.636058,10955.047942,306.438199
200.478503,7698.141797,12731.542202,-1532.190996
200.478823,4811.338623,12879.583391,-2221.676944
200.479144,7031.956449,11917.315666,-1838.629195
200.479465,7328.038826,9696.697840,-1225.752797
200.479785,5107.421000,8142.265362,-76.609550
200.480106,4663.297435,7920.203579,0.000000
200.480426,2812.782580,7772.162391,-1302.362347
200.480747,1184.329507,6069.688724,76.609550
200.481068,3256.906145,3923.091493,2451.505594
200.481388,4737.318029,4737.318029,4136.915689
200.481709,3478.967927,6439.791695,2681.334243
200.482029,1184.329507,7328.038826,-1838.629195
200.482350,3997.112087,7402.059420,-3983.696590
200.482671,6883.915261,7476.080014,-2068.457845
200.482991,7920.203579,9178.553681,995.924147
200.483312,7624.121203,12213.398043,306.438199
200.483632,6661.853478,13915.871710,-2987.772442
200.483953,5551.544565,12657.521608,-4060.306139
200.484274,6217.729913,9400.615463,-612.876398
200.484594,6143.709319,7105.977043,1838.629195
200.484915,5033.400406,6513.812290,2374.896044
200.485235,4293.194464,7624.121203,842.705048
200.485556,1332.370696,5699.585753,-1455.581446
200.485877,3478.967927,3849.070898,-2757.943793
200.486197,4737.318029,4367.215058,-1225.752797
200.486518,5551.544565,5551.544565,1762.019645
200.486838,3552.988522,5329.482782,1838.629195
200.487159,6217.729913,7328.038826,-306.438199
200.487480,7254.018232,10214.842000,-2068.457845
200.487800,6735.874072,11029.068536,-3064.381992
200.488121,7846.182985,10955.047942,-2987.772442
200.488442,7476.080014,11103.089130,-1685.410096
200.488762,7105.977043,11769.274478,0.000000
200.489083,7476.080014,12139.377449,1378.971896
200.489404,4737.318029,9844.739029,383.047749
200.489725,2146.597232,7698.141797,1762.019645
200.490045,1628.453072,5329.482782,229.828649
200.490366,518.144159,2072.576638,-2298.286494
200.490687,1924.535449,1702.473667,-383.047749
200.491007,3404.947333,4959.379811,2298.286494
200.491328,2960.823768,7772.162391,1072.533697
200.491649,3404.947333,10066.800811,0.000000
200.491969,4145.153275,11399.171507,-2451.505594
200.492290,5847.626942,11325.150913,-3217.601092
200.492611,6217.729913,11621.233289,-766.095498
200.492931,7105.977043,11399.171507,-306.438199
200.493252,7550.100608,11251.130318,-995.924147
200.493573,5255.462188,10362.883188,-536.266849
200.493894,4663.297435,9548.656652,76.609550
200.494214,5773.606348,10658.965565,0.000000
200.494535,3034.844362,8142.265362,1532.190996
200.494856,1998.556043,4145.153275,1762.019645
200.495176,2442.679609,962.267725,1072.533697
200.495497,4663.297435,3330.926739,1072.533697
200.495818,2886.803174,4293.194464,1991.848295
200.496138,4441.235652,5255.462188,-689.485948
200.496459,6957.935855,7254.018232,-3677.258390
200.496780,6809.894666,11325.150913,-2451.505594
200.497100,8290.306550,11029.068536,76.609550
200.497421,12065.356855,11991.336260,229.828649
200.497742,9770.718434,11399.171507,0.000000
200.498063,5995.668130,8808.450710,-919.314598
200.498383,5625.565159,6439.791695,-2374.896044
200.498704,6809.894666,6957.935855,-1532.190996
200.499025,3849.070898,7105.977043,2374.896044
200.499345,5181.441594,7328.038826,1149.143247
200.499666,5921.647536,6365.771101,-1915.238745
200.499987,1924.535449,2664.741391,-536.266849
200.500307,74.020594,1184.329507,3217.601092
200.500628,3775.050304,4367.215058,3294.210641
200.500949,1036.288319,6291.750507,-1302.362347
200.501269,2220.617826,8956.491898,-3447.429741
200.501590,6957.935855,13175.665768,-4213.525239
200.501911,8290.306550,15840.407159,-1532.190996
200.502232,5329.482782,14211.954086,0.000000
200.502552,6143.709319,12879.583391,76.609550
200.502873,4737.318029,11547.212695,-459.657299
200.503194,3182.885551,9548.656652,1685.410096
200.503514,4071.132681,6217.729913,1455.581446
200.503835,3552.988522,4737.318029,-995.924147
200.504156,1110.308913,4589.276840,0.000000
200.504476,3478.967927,5329.482782,2451.505594
200.504797,5773.606348,6217.729913,1302.362347
200.505118,3997.112087,5255.462188,0.000000
200.505438,3627.009116,5329.482782,-1225.752797
200.505759,4145.153275,5551.544565,-2681.334243
200.506080,4293.194464,6365.771101,-1532.190996
200.506401,7105.977043,10140.821405,-153.219100
200.506721,11769.274478,13323.706956,-4903.011187
200.507042,10214.842000,15248.242405,-7124.688131
200.507363,5403.503377,14285.974681,-4749.792088
200.507683,5255.462188,10955.047942,536.266849
200.508004,7550.100608,8068.244768,3983.696590
200.508325,4737.318029,5625.565159,2528.115143
200.508645,2960.823768,4811.338623,-1608.800546
200.508966,4663.297435,6809.894666,-2068.457845
200.509287,1850.514855,6143.709319,766.095498
200.509607,1702.473667,3627.009116,3217.601092
200.509928,5921.647536,4589.276840,2068.457845
200.510249,3775.050304,5995.668130,459.657299
200.510570,1332.370696,6217.729913,-689.485948
200.510890,5477.523971,8068.244768,-1532.190996
200.511211,7550.100608,9918.759623,-3447.429741
200.511532,6513.812290,11399.171507,-4060.306139
200.511852,9992.780217,14063.912898,-2911.162892
200.512173,11177.109724,16210.510130,-612.876398
200.512494,7179.997637,14434.015869,1608.800546
200.512814,5921.647536,10584.944971,2451.505594
200.513135,4885.359217,7031.956449,229.828649
200.513456,1036.288319,3404.947333,1991.848295
200.513776,2146.597232,2442.679609,3907.087040
200.514097,3997.112087,2294.638420,2221.676944
200.514418,2220.617826,3108.864956,919.314598
200.514739,1332.370696,5625.565159,2374.896044
200.515059,4441.235652,7772.162391,1149.143247
200.515380,4293.194464,7772.162391,-536.266849
200.515701,4885.359217,7772.162391,-1915.238745
200.516021,8512.368333,11177.109724,-1455.581446
200.516342,9104.533087,13249.686362,-1532.190996
200.516663,4293.194464,10881.027347,-2374.896044
200.516983,5477.523971,9474.636058,-3524.039291
200.517304,7846.182985,11029.068536,-2451.505594
200.517625,5921.647536,11103.089130,383.047749
200.517946,4515.256246,8660.409521,1149.143247
200.518266,3701.029710,5921.647536,229.828649
200.518587,3256.906145,3330.926739,1685.410096
200.518908,962.267725,-814.226536,3370.820191
200.519228,3108.864956,0.000000,3830.477490
200.519549,2590.720797,4293.194464,2298.286494
200.519870,444.123565,6957.935855,383.047749
200.520190,5107.421000,7476.080014,-2528.115143
200.520511,7920.203579,8142.265362,-2451.505594
200.520832,6291.750507,10436.903782,-1072.533697
200.521152,6217.729913,12287.418637,-2451.505594
200.521473,5329.482782,11769.274478,-5592.497135
200.521794,4663.297435,11029.068536,-3140.991542
200.522115,7550.100608,11621.233289,2451.505594
200.522435,7105.977043,11547.212695,2221.676944
200.522756,3627.009116,11103.089130,383.047749
200.523077,1258.350101,9918.759623,-1532.190996
200.523397,1702.473667,4811.338623,-1762.019645
200.523718,3775.050304,1776.494261,689.485948
200.524039,4885.359217,2146.597232,3294.210641
200.524359,4367.215058,4885.359217,2145.067394
200.524680,2960.823768,7920.203579,-1225.752797
200.525001,4885.359217,10362.883188,-1608.800546
200.525321,8290.306550,12435.459826,306.438199
200.525642,9992.780217,12509.480420,2604.724693
200.525963,9474.636058,12287.418637,1762.019645
200.526284,6809.894666,11917.315666,-1072.533697
200.526604,5699.585753,11029.068536,-1302.362347
200.526925,6439.791695,8882.471304,-459.657299
200.527246,6809.894666,6809.894666,-919.314598
200.527566,7698.141797,7846.182985,-842.705048
200.527887,5403.503377,8216.285956,153.219100
200.528208,2664.741391,5255.462188,306.438199
200.528528,3923.091493,3775.050304,1608.800546
200.528849,5255.462188,3775.050304,3064.381992
200.529170,4219.173869,3478.967927,1838.629195
200.529490,5329.482782,6365.771101,-1838.629195
200.529811,7402.059420,11917.315666,-2681.334243
200.530132,6883.915261,13989.892304,-1072.533697
200.530453,5699.585753,10362.883188,459.657299
200.530773,8142.265362,7328.038826,306.438199
200.531094,5477.523971,6217.729913,459.657299
200.531415,2442.679609,7031.956449,-1302.362347
200.531735,2590.720797,8068.244768,-3830.477490
200.532056,2590.720797,8364.327145,-2451.505594
200.532377,3256.906145,9326.594869,2604.724693
200.532697,5699.585753,9622.677246,3907.087040
200.533018,1702.473667,6439.791695,-536.266849
200.533339,-740.205942,3478.967927,-1838.629195
200.533659,1406.391290,4367.215058,0.000000
200.533980,4367.215058,4959.379811,1838.629195
200.534301,3701.029710,4959.379811,3140.991542
200.534622,5699.585753,7550.100608,1838.629195
200.534942,7550.100608,10510.924376,-459.657299
200.535263,5181.441594,11399.171507,-766.095498
200.535584,4737.318029,9696.697840,-1455.581446
200.535904,8956.491898,9400.615463,-2221.676944
200.536225,8068.244768,8586.388927,-536.266849
200.536546,7698.141797,8142.265362,1685.410096
200.536866,7031.956449,8734.430116,306.438199
200.537187,3701.029710,7772.162391,-995.924147
200.537508,3182.885551,6439.791695,-536.266849
200.537828,4441.235652,5329.482782,0.000000
200.538149,5329.482782,4885.359217,-459.657299
200.538470,5255.462188,5773.606348,76.609550
200.538791,4737.318029,5255.462188,0.000000
200.539111,3552.988522,7179.997637,-1072.533697
200.539432,5181.441594,11103.089130,229.828649
200.539753,5995.668130,12213.398043,919.314598
200.540073,8364.327145,11843.295072,-689.485948
200.540394,7105.977043,12213.398043,0.000000
200.540715,5329.482782,11769.274478,459.657299
200.541035,3997.112087,8660.409521,0.000000
200.541356,4959.379811,7254.018232,689.485948
200.541677,3108.864956,6735.874072,536.266849
200.541997,2368.659014,5995.668130,-1225.752797
200.542318,2368.659014,5995.668130,-2145.067394
200.542639,1850.514855,6809.894666,-689.485948
200.542960,4515.256246,7105.977043,1302.362347
200.543280,7105.977043,7994.224174,76.609550
200.543601,4885.359217,7328.038826,-1302.362347
200.543922,3923.091493,6587.832884,-689.485948
200.544242,7105.977043,8142.265362,536.266849
200.544563,7846.182985,10066.800811,-306.438199
200.544884,6661.853478,9992.780217,-2221.676944
200.545204,7994.224174,10658.965565,-3983.696590
200.545525,8512.368333,8438.347739,-3217.601092
200.545846,5551.544565,7105.977043,0.000000
200.546167,5773.606348,9326.594869,1685.410096
200.546487,5477.523971,10066.800811,153.219100
200.546808,2368.659014,8734.430116,-842.705048
200.547129,3256.906145,7031.956449,459.657299
200.547449,4959.379811,6291.750507,1838.629195
200.547770,1850.514855,3701.029710,2987.772442
200.548091,2146.597232,4219.173869,3064.381992
200.548411,3849.070898,7179.997637,0.000000
200.548732,2516.700203,9770.718434,-2221.676944
200.549053,4441.235652,10584.944971,-1838.629195
200.549373,7105.977043,10214.842000,-919.314598
200.549694,7772.162391,11695.253884,3140.991542
200.550015,6735.874072,11473.192101,4519.963438
200.550336,5255.462188,10288.862594,-1532.190996
200.550656,4885.359217,9696.697840,-3677.258390
200.550977,4293.194464,9474.636058,0.000000
200.551298,4737.318029,6217.729913,2528.115143
200.551618,5847.626942,5551.544565,383.047749
200.551939,3775.050304,6661.853478,0.000000
200.552260,1924.535449,5255.462188,0.000000
200.552580,2664.741391,2960.823768,0.000000
200.552901,4515.256246,3849.070898,2451.505594
200.553222,3997.112087,5551.544565,2604.724693
200.553542,6661.853478,5995.668130,229.828649
200.553863,9326.594869,9400.615463,-2681.334243
200.554184,6439.791695,12213.398043,-3217.601092
200.554505,6513.812290,11991.336260,-1608.800546
200.554825,11103.089130,10584.944971,-995.924147
200.555146,8956.491898,7624.121203,-689.485948
200.555467,5477.523971,5773.606348,0.000000
200.555787,3552.988522,6365.771101,-1762.019645
200.556108,4293.194464,7179.997637,-1149.143247
200.556429,3701.029710,7772.162391,2451.505594
200.556749,4811.338623,8068.244768,3677.258390
200.557070,3997.112087,5921.647536,1225.752797
200.557391,740.205942,3627.009116,0.000000
200.557711,1332.370696,3552.988522,1838.629195
200.558032,3997.112087,3775.050304,2145.067394
200.558353,3552.988522,4959.379811,-383.047749
200.558674,6587.832884,10732.986159,-2145.067394
200.558994,7994.224174,15618.345376,-3983.696590
200.559315,6291.750507,15026.180623,-3370.820191
200.559636,5625.565159,11325.150913,-383.047749
200.559956,6217.729913,9178.553681,459.657299
200.560277,5995.668130,9918.759623,459.657299
200.560598,3775.050304,9622.677246,-1685.410096
200.560918,1776.494261,7105.977043,-4596.572988
200.561239,3552.988522,8216.285956,-2451.505594
200.561560,5181.441594,9178.553681,4290.134789
200.561880,3478.967927,6069.688724,3983.696590
200.562201,3182.885551,2442.679609,0.000000
200.562522,2516.700203,3552.988522,-1302.362347
200.562843,4293.194464,5329.482782,0.000000
200.563163,6587.832884,8290.306550,842.705048
200.563484,9696.697840,13989.892304,-1762.019645
200.563805,7846.182985,15692.365970,-3983.696590
200.564125,7846.182985,13915.871710,-3370.820191
200.564446,9474.636058,12139.377449,459.657299
200.564767,5625.565159,9770.718434,2681.334243
200.565087,4737.318029,7476.080014,1072.533697
200.565408,5107.421000,7031.956449,-1762.019645
200.565729,3034.844362,5921.647536,-2374.896044
200.566049,2516.700203,3552.988522,919.314598
200.566370,4737.318029,3108.864956,3677.258390
200.566691,3775.050304,2664.741391,1532.190996
200.567012,2812.782580,6291.750507,-459.657299
200.567332,5255.462188,10807.006753,-2757.943793
200.567653,7179.997637,11177.109724,-2528.115143
200.567974,8438.347739,12509.480420,1072.533697
200.568294,7179.997637,13027.624579,1838.629195
200.568615,3849.070898,11177.109724,-536.266849
200.568936,3478.967927,9104.533087,-383.047749
200.569256,5107.421000,8808.450710,459.657299
200.569577,3849.070898,7624.121203,306.438199
200.569898,2072.576638,6217.729913,229.828649
200.570218,1406.391290,5403.503377,-459.657299
200.570539,2368.659014,5699.585753,-306.438199
200.570860,2738.761985,4441.235652,2374.896044
200.571181,3997.112087,3404.947333,2298.286494
200.571501,4441.235652,3849.070898,-229.828649
200.571822,4071.132681,6513.812290,-306.438199
200.572143,4959.379811,7920.203579,-536.266849
200.572463,8660.409521,11103.089130,-1915.238745
200.572784,8660.409521,12879.583391,-2681.334243
200.573105,5995.668130,10584.944971,-2757.943793
200.573425,6217.729913,7402.059420,-1685.410096
200.573746,7476.080014,8142.265362,-229.828649
200.574067,4441.235652,9770.718434,1225.752797
200.574388,3849.070898,8512.368333,766.095498
200.574708,2294.638420,5625.565159,-3217.601092
200.575029,3182.885551,3997.112087,-2145.067394
200.575350,3256.906145,5033.400406,2298.286494
200.575670,5847.626942,4959.379811,3677.258390
200.575991,6513.812290,5847.626942,1072.533697
200.576312,4959.379811,9696.697840,-1532.190996
200.576632,4515.256246,10881.027347,-2374.896044
200.576953,6587.832884,9474.636058,-842.705048
200.577274,7994.224174,9474.636058,1149.143247
200.577594,7105.977043,10732.986159,1225.752797
200.577915,6661.853478,12509.480420,-1072.533697
200.578236,6957.935855,12583.501014,-1302.362347
200.578557,4219.173869,11843.295072,2374.896044
200.578877,3997.112087,9770.718434,4749.792088
200.579198,4145.153275,6439.791695,2451.505594
200.579519,592.164754,3997.112087,-1915.238745
200.579839,1406.391290,4737.318029,-536.266849
200.580160,4811.338623,5625.565159,1915.238745
200.580481,3478.967927,4145.153275,1149.143247
200.580801,3552.988522,5181.441594,-612.876398
200.581122,6587.832884,10732.986159,-2528.115143
200.581443,7328.038826,14804.118840,-3064.381992
200.581763,5921.647536,14730.098246,-1532.190996
200.582084,6143.709319,11251.130318,-1072.533697
200.582405,8142.265362,7698.141797,0.000000
200.582726,7624.121203,7179.997637,2911.162892
200.583046,3034.844362,7698.141797,1072.533697
200.583367,2960.823768,9844.739029,-1915.238745
200.583688,1850.514855,8290.306550,-3217.601092
200.584008,2368.659014,2886.803174,-689.485948
200.584329,2960.823768,-1998.556043,1302.362347
200.584650,5625.565159,1480.411884,3217.601092
200.584970,4293.194464,6957.935855,2374.896044
200.585291,3627.009116,10288.862594,-3370.820191
200.585612,5625.565159,10732.986159,-5898.935335
200.585932,8364.327145,10881.027347,-1685.410096
200.586253,7698.141797,8068.244768,2451.505594
200.586574,9104.533087,6291.750507,2221.676944
200.586895,5921.647536,6883.915261,-2528.115143
200.587215,2664.741391,7698.141797,-6128.763984
200.587536,5329.482782,8882.471304,-4903.011187
200.587857,6439.791695,7476.080014,-919.314598
200.588177,5921.647536,7402.059420,2145.067394
200.588498,6365.771101,10362.883188,1608.800546
200.588819,3256.906145,10436.903782,-766.095498
200.589139,1554.432478,6735.874072,0.000000
200.589460,4367.215058,4959.379811,2604.724693
200.589781,5107.421000,5107.421000,2528.115143
200.590101,2812.782580,7105.977043,-153.219100
200.590422,2442.679609,10288.862594,-2068.457845
200.590743,4589.276840,12657.521608,-2068.457845
200.591064,4959.379811,10881.027347,-229.828649
200.591384,5403.503377,7698.141797,-229.828649
200.591705,7105.977043,7772.162391,-2221.676944
200.592026,6365.771101,11251.130318,-1378.971896
200.592346,5699.585753,13989.892304,995.924147
200.592667,6217.729913,11917.315666,1072.533697
200.592988,6809.894666,8290.306550,1608.800546
200.593309,6735.874072,7920.203579,3140.991542
200.593629,4589.276840,7698.141797,2681.334243
200.593950,2294.638420,6217.729913,0.000000
200.594271,3478.967927,6661.853478,-1302.362347
200.594591,2590.720797,5403.503377,0.000000
200.594912,4515.256246,6587.832884,1838.629195
200.595233,5329.482782,9548.656652,1991.848295
200.595554,2960.823768,11473.192101,-536.266849
200.595874,4071.132681,9474.636058,-2298.286494
200.596195,5995.668130,6957.935855,-1915.238745
200.596516,6069.688724,5329.482782,76.609550
200.596836,5995.668130,5699.585753,1455.581446
200.597157,6217.729913,9474.636058,-1072.533697
200.597478,6809.894666,11325.150913,-4903.011187
200.597799,4515.256246,8586.388927,-4826.401637
200.598119,7328.038826,5107.421000,-1378.971896
200.598440,7402.059420,4811.338623,2757.943793
200.598761,5255.462188,5625.565159,3753.867940
200.599081,2960.823768,7105.977043,306.438199
200.599402,3108.864956,8364.327145,-2528.115143
200.599723,2368.659014,5773.606348,-536.266849
200.600043,5107.421000,5477.523971,2987.772442
200.600364,4219.173869,5033.400406,2604.724693
200.600685,1998.556043,6513.812290,-536.266849
200.601006,2664.741391,8512.368333,-2298.286494
200.601326,3849.070898,7031.956449,-2221.676944
200.601647,4219.173869,5773.606348,-2068.457845
200.601968,6513.812290,7624.121203,-383.047749
200.602288,7550.100608,11029.068536,-766.095498
200.602609,5995.668130,12805.562797,-1915.238745
200.602930,7179.997637,11917.315666,-1838.629195
200.603251,8438.347739,10066.800811,-1455.581446
200.603571,7550.100608,7105.977043,459.657299
200.603892,5921.647536,5625.565159,2068.457845
200.604213,4219.173869,8660.409521,612.876398
200.604533,4737.318029,10510.924376,842.705048
200.604854,4885.359217,9548.656652,2757.943793
200.605175,4441.235652,7031.956449,2911.162892
200.605496,4219.173869,6957.935855,3677.258390
200.605816,1998.556043,7254.018232,3370.820191
200.606137,1110.308913,5625.565159,-229.828649
200.606458,3701.029710,5477.523971,-1608.800546
200.606778,5551.544565,7179.997637,0.000000
200.607099,7105.977043,10584.944971,-153.219100
200.607420,7254.018232,12805.562797,-3447.429741
200.607740,7402.059420,14582.057057,-4290.134789
200.608061,8290.306550,13027.624579,-3140.991542
200.608382,7624.121203,9030.512492,-2681.334243
200.608703,5625.565159,5181.441594,-766.095498
200.609023,5847.626942,7328.038826,2528.115143
200.609344,4589.276840,9252.574275,2987.772442
200.609665,3552.988522,9252.574275,536.266849
200.609985,1998.556043,6957.935855,-842.705048
200.610306,2294.638420,4737.318029,612.876398
200.610627,2516.700203,2738.761985,2987.772442
200.610948,1554.432478,1554.432478,2987.772442
200.611268,1628.453072,3034.844362,0.000000
200.611589,3478.967927,6809.894666,-3677.258390
200.611910,5625.565159,10510.924376,-4213.525239
200.612230,7920.203579,13397.727550,-2451.505594
200.612551,7772.162391,15618.345376,-1838.629195
200.612872,9030.512492,15100.201217,-1685.410096
200.613193,7920.203579,12583.501014,-995.924147
200.613513,5847.626942,8216.285956,842.705048
200.613834,5995.668130,6069.688724,2145.067394
200.614155,4885.359217,6513.812290,2834.553343
200.614475,2146.597232,4737.318029,2987.772442
200.614796,1998.556043,4219.173869,2068.457845
200.615117,2516.700203,2886.803174,1838.629195
200.615438,2960.823768,2294.638420,2911.162892
200.615758,4885.359217,3849.070898,3294.210641
200.616079,6513.812290,7846.182985,1991.848295
200.616400,4367.215058,9622.677246,-995.924147
200.616720,4811.338623,10362.883188,-2451.505594
200.617041,8956.491898,11991.336260,-2374.896044
200.617362,8068.244768,13175.665768,-2451.505594
200.617682,6957.935855,11991.336260,-3064.381992
200.618003,8142.265362,9992.780217,-4366.744339
200.618324,5477.523971,7624.121203,-3524.039291
200.618645,4071.132681,6735.874072,536.266849
200.618965,6143.709319,8364.327145,2681.334243
200.619286,4737.318029,8290.306550,1991.848295
200.619607,2516.700203,6069.688724,766.095498
200.619927,2220.617826,2738.761985,536.266849
200.620248,3256.906145,222.061783,2068.457845
200.620569,2664.741391,1110.308913,4060.306139
200.620890,2960.823768,5033.400406,2374.896044
200.621210,3256.906145,8660.409521,-2451.505594
200.621531,4441.235652,10881.027347,-4903.011187
200.621852,5921.647536,10584.944971,-4366.744339
200.622172,6513.812290,9918.759623,-2451.505594
200.622493,7105.977043,11547.212695,-995.924147
200.622814,7179.997637,13693.809927,-2911.162892
200.623135,3256.906145,11473.192101,-4290.134789
200.623455,4293.194464,6735.874072,-2451.505594
200.623776,6587.832884,6365.771101,383.047749
200.624097,4071.132681,6661.853478,842.705048
200.624417,2368.659014,7772.162391,76.609550
200.624738,5107.421000,8734.430116,-536.266849
200.625059,4219.173869,6217.729913,1302.362347
200.625380,3775.050304,2960.823768,4290.134789
200.625700,4737.318029,2590.720797,2911.162892
200.626021,3701.029710,5995.668130,-1225.752797
200.626342,4367.215058,11399.171507,-2221.676944
200.626662,9252.574275,15618.345376,-1608.800546
200.626983,10955.047942,15322.262999,-2451.505594
200.627304,8216.285956,12509.480420,-1608.800546
200.627624,7476.080014,10658.965565,1072.533697
200.627945,7105.977043,11473.192101,0.000000
200.628266,3256.906145,9696.697840,-1225.752797
200.628587,3923.091493,8142.265362,-1302.362347
200.628907,6143.709319,7328.038826,-612.876398
200.629228,5255.462188,7994.224174,3830.477490
200.629549,1998.556043,7550.100608,5132.839837
200.629869,1702.473667,5477.523971,306.438199
200.630190,2368.659014,5403.503377,-1608.800546
200.630511,1036.288319,4663.297435,766.095498
200.630832,4367.215058,5477.523971,2911.162892
200.631152,6957.935855,10288.862594,2451.505594
200.631473,4885.359217,13397.727550,229.828649
200.631794,5107.421000,11547.212695,-1455.581446
200.632114,7105.977043,9474.636058,-3907.087040
200.632435,6365.771101,8512.368333,-1762.019645
200.632756,5921.647536,8216.285956,2068.457845
200.633077,5995.668130,8956.491898,1302.362347
200.633397,3849.070898,8216.285956,-1302.362347
200.633718,2738.761985,6143.709319,-612.876398
200.634039,4737.318029,3182.885551,1838.629195
200.634359,5477.523971,1406.391290,1762.019645
200.634680,2368.659014,1480.411884,383.047749
200.635001,3923.091493,3701.029710,-2221.676944
200.635321,5329.482782,5995.668130,-2528.115143
200.635642,6217.729913,6439.791695,1149.143247
200.635963,8586.388927,7550.100608,4290.134789
200.636284,9326.594869,9918.759623,1302.362347
200.636604,4663.297435,10584.944971,-2757.943793
200.636925,3627.009116,9326.594869,-2374.896044
200.637246,5995.668130,7772.162391,-383.047749
200.637566,7476.080014,6587.832884,1915.238745
200.637887,5551.544565,7698.141797,1225.752797
200.638208,4737.318029,9622.677246,-1149.143247
200.638529,2442.679609,9770.718434,-2374.896044
