#time,accel_x,accel_y,accel_z
520.277951,4811.338623,8142.265362,-153.219100
520.278272,4885.359217,8216.285956,-229.828649
520.278593,4959.379811,8290.306550,0.000000
520.278913,5107.421000,7920.203579,-153.219100
520.279234,5033.400406,8438.347739,-153.219100
520.279554,4959.379811,8512.368333,0.000000
520.279875,4885.359217,8142.265362,76.609550
520.280196,5107.421000,7994.224174,-153.219100
520.280516,4959.379811,8068.244768,-153.219100
520.280837,5329.482782,8660.409521,-306.438199
520.281158,4959.379811,7994.224174,-306.438199
520.281478,5033.400406,7846.182985,0.000000
520.281799,5181.441594,7920.203579,0.000000
520.282119,5181.441594,8142.265362,76.609550
520.282440,4885.359217,8068.244768,0.000000
520.282761,4885.359217,7994.224174,-459.657299
520.283081,5033.400406,8142.265362,229.828649
520.283402,5107.421000,7994.224174,0.000000
520.283722,4959.379811,7846.182985,-612.876398
520.284043,5033.400406,7772.162391,-306.438199
520.284364,5033.400406,8068.244768,-229.828649
520.284684,4959.379811,7920.203579,0.000000
520.285005,4959.379811,7920.203579,0.000000
520.285326,5033.400406,8142.265362,-306.438199
520.285646,4885.359217,7994.224174,76.609550
520.285967,5181.441594,8216.285956,0.000000
520.286287,4959.379811,8216.285956,-76.609550
520.286608,4885.359217,7920.203579,-229.828649
520.286929,4811.338623,8142.265362,0.000000
520.287249,4959.379811,8068.244768,-459.657299
520.287570,5033.400406,7994.224174,-306.438199
520.287891,4737.318029,7994.224174,0.000000
520.288211,4885.359217,8068.244768,-76.609550
520.288532,5403.503377,7994.224174,-229.828649
520.288852,4737.318029,8586.388927,-306.438199
520.289173,5033.400406,8142.265362,-153.219100
520.289494,4441.235652,7698.141797,-383.047749
520.289814,4441.235652,7402.059420,-612.876398
520.290135,4367.215058,7772.162391,0.000000
520.290455,4515.256246,8734.430116,0.000000
520.290776,4737.318029,9622.677246,-995.924147
520.291097,4589.276840,10066.800811,-1302.362347
520.291417,4589.276840,9474.636058,-1225.752797
520.291738,4367.215058,9252.574275,-383.047749
520.292059,2960.823768,8586.388927,689.485948
520.292379,2886.803174,8660.409521,689.485948
520.292700,2590.720797,9104.533087,459.657299
520.293020,2516.700203,8956.491898,0.000000
520.293341,2664.741391,8438.347739,-536.266849
520.293662,3330.926739,8956.491898,-536.266849
520.293982,3256.906145,9918.759623,76.609550
520.294303,2886.803174,9622.677246,459.657299
520.294624,2442.679609,8734.430116,459.657299
520.294944,2368.659014,8586.388927,229.828649
520.295265,2516.700203,9622.677246,-766.095498
520.295585,1850.514855,10881.027347,-766.095498
520.295906,1702.473667,11917.315666,-1532.190996
520.296227,1480.411884,11917.315666,-1685.410096
520.296547,1036.288319,11547.212695,-766.095498
520.296868,296.082377,11251.130318,-1149.143247
520.297188,-296.082377,11917.315666,-1378.971896
520.297509,-1480.411884,12509.480420,-766.095498
520.297830,-1628.453072,13027.624579,919.314598
520.298150,-1554.432478,12361.439231,1915.238745
520.298471,-962.267725,11621.233289,1685.410096
520.298792,-1258.350101,12139.377449,1762.019645
520.299112,-2368.659014,12583.501014,689.485948
520.299433,-2886.803174,11325.150913,-229.828649
520.299753,-1776.494261,10214.842000,-842.705048
520.300074,-888.247130,9844.739029,153.219100
520.300395,-740.205942,9918.759623,995.924147
520.300715,-370.102971,10881.027347,842.705048
520.301036,222.061783,11769.274478,-229.828649
520.301357,814.226536,12065.356855,-1072.533697
520.301677,1702.473667,11251.130318,-1149.143247
520.301998,2146.597232,10066.800811,-459.657299
520.302318,3034.844362,10436.903782,306.438199
520.302639,2516.700203,10362.883188,-306.438199
520.302960,2072.576638,9474.636058,-2374.896044
520.303280,1924.535449,8882.471304,-2451.505594
520.303601,2220.617826,9400.615463,-842.705048
520.303921,2220.617826,9844.739029,76.609550
520.304242,1776.494261,10362.883188,153.219100
520.304563,1480.411884,10881.027347,-306.438199
520.304883,1406.391290,11103.089130,-612.876398
520.305204,592.164754,10584.944971,459.657299
520.305525,-74.020594,9844.739029,383.047749
520.305845,-148.041188,9548.656652,459.657299
520.306166,0.000000,9474.636058,766.095498
520.306486,-148.041188,10140.821405,842.705048
520.306807,-740.205942,10881.027347,995.924147
520.307128,592.164754,11325.150913,1378.971896
520.307448,888.247130,11399.171507,1072.533697
520.307769,888.247130,10955.047942,76.609550
520.308090,1184.329507,10732.986159,-612.876398
520.308410,1036.288319,10214.842000,-689.485948
520.308731,1406.391290,10362.883188,-536.266849
520.309051,1702.473667,9696.697840,76.609550
520.309372,1702.473667,8956.491898,0.000000
520.309693,2294.638420,8882.471304,76.609550
520.310013,2294.638420,10214.842000,306.438199
520.310334,1924.535449,10658.965565,0.000000
520.310655,2442.679609,10658.965565,-612.876398
520.310975,3256.906145,10140.821405,-612.876398
520.311296,3256.906145,10140.821405,-306.438199
520.311616,3182.885551,9474.636058,-995.924147
520.311937,2664.741391,9844.739029,-995.924147
520.312258,2146.597232,10658.965565,-306.438199
520.312578,1406.391290,11177.109724,0.000000
520.312899,1036.288319,10955.047942,-383.047749
520.313219,1036.288319,11177.109724,-1455.581446
520.313540,148.041188,10807.006753,-2145.067394
520.313861,-1184.329507,10658.965565,-1532.190996
520.314181,-1480.411884,9844.739029,-766.095498
520.314502,-814.226536,9770.718434,1149.143247
520.314823,-296.082377,11029.068536,2221.676944
520.315143,-444.123565,12435.459826,2145.067394
520.315464,0.000000,13471.748144,1225.752797
520.315784,-370.102971,13841.851115,383.047749
520.316105,444.123565,12953.603985,-383.047749
520.316426,1036.288319,10658.965565,-229.828649
520.316746,888.247130,9548.656652,0.000000
520.317067,370.102971,8956.491898,-229.828649
520.317388,-888.247130,9326.594869,-1149.143247
520.317708,-1480.411884,9474.636058,-2451.505594
520.318029,-1036.288319,10584.944971,-1378.971896
520.318349,-296.082377,12213.398043,-766.095498
520.318670,666.185348,13471.748144,0.000000
520.318991,962.267725,13915.871710,76.609550
520.319311,444.123565,13841.851115,-459.657299
520.319632,518.144159,13471.748144,-919.314598
520.319952,370.102971,11843.295072,-383.047749
520.320273,370.102971,9548.656652,0.000000
520.320594,1702.473667,7624.121203,229.828649
520.320914,2072.576638,8068.244768,459.657299
520.321235,1258.350101,9622.677246,0.000000
520.321556,370.102971,10584.944971,229.828649
520.321876,888.247130,9770.718434,306.438199
520.322197,1258.350101,8734.430116,229.828649
520.322517,1924.535449,7402.059420,229.828649
520.322838,1924.535449,8290.306550,229.828649
520.323159,1554.432478,11251.130318,-766.095498
520.323479,740.205942,13767.830521,-1532.190996
520.323800,592.164754,13619.789333,-2451.505594
520.324121,2146.597232,12435.459826,-2221.676944
520.324441,1850.514855,12139.377449,-383.047749
520.324762,74.020594,12213.398043,153.219100
520.325082,0.000000,12287.418637,-306.438199
520.325403,-370.102971,11917.315666,229.828649
520.325724,-1332.370696,10436.903782,995.924147
520.326044,-592.164754,8068.244768,2145.067394
520.326365,-1406.391290,7105.977043,2451.505594
520.326685,-2516.700203,7624.121203,1532.190996
520.327006,-1480.411884,9622.677246,919.314598
520.327327,74.020594,11399.171507,0.000000
520.327647,1998.556043,12583.501014,-1302.362347
520.327968,2516.700203,12879.583391,-919.314598
520.328289,2368.659014,11917.315666,-1378.971896
520.328609,814.226536,10214.842000,-2221.676944
520.328930,888.247130,8882.471304,-1149.143247
520.329250,2146.597232,9474.636058,536.266849
520.329571,2368.659014,10881.027347,229.828649
520.329892,1554.432478,11991.336260,-995.924147
520.330212,1480.411884,12361.439231,-2451.505594
520.330533,1036.288319,11621.233289,-2451.505594
520.330854,444.123565,9474.636058,-1915.238745
520.331174,-592.164754,7624.121203,-1225.752797
520.331495,74.020594,8438.347739,0.000000
520.331815,-518.144159,11843.295072,1225.752797
520.332136,-2294.638420,14211.954086,1149.143247
520.332457,-1850.514855,15026.180623,0.000000
520.332777,-1406.391290,15026.180623,0.000000
520.333098,-1776.494261,13841.851115,842.705048
520.333418,-1480.411884,12065.356855,1149.143247
520.333739,-1554.432478,11029.068536,995.924147
520.334060,-222.061783,10214.842000,76.609550
520.334380,-518.144159,9844.739029,1072.533697
520.334701,-592.164754,8586.388927,1302.362347
520.335022,740.205942,9178.553681,1149.143247
520.335342,1702.473667,9400.615463,1762.019645
520.335663,3627.009116,9178.553681,1915.238745
520.335983,6513.812290,9474.636058,383.047749
520.336304,5699.585753,9400.615463,-1762.019645
520.336625,6587.832884,9548.656652,-3140.991542
520.336945,6069.688724,9104.533087,-2757.943793
520.337266,3552.988522,7920.203579,-1991.848295
520.337587,4737.318029,7328.038826,-1072.533697
520.337907,6735.874072,8808.450710,-612.876398
520.338228,5033.400406,9622.677246,-1455.581446
520.338548,3997.112087,10510.924376,-842.705048
520.338869,3552.988522,10140.821405,-1762.019645
520.339189,2442.679609,8438.347739,-995.924147
520.339510,1184.329507,7105.977043,459.657299
520.339830,2442.679609,8216.285956,383.047749
520.340151,2442.679609,10066.800811,-383.047749
520.340471,2146.597232,10955.047942,-842.705048
520.340792,1776.494261,10140.821405,-229.828649
520.341112,1036.288319,8882.471304,1378.971896
520.341433,2294.638420,8512.368333,4596.572988
520.341753,1702.473667,9696.697840,4903.011187
520.342074,2146.597232,10140.821405,1378.971896
520.342394,3775.050304,9252.574275,-919.314598
520.342715,2960.823768,7179.997637,-1225.752797
520.343035,3182.885551,3997.112087,0.000000
520.343356,5995.668130,3478.967927,2834.553343
520.343676,8142.265362,6587.832884,2451.505594
520.343997,7328.038826,9178.553681,459.657299
520.344317,7846.182985,9696.697840,-3294.210641
520.344638,9770.718434,8808.450710,-4213.525239
520.344958,9474.636058,8142.265362,-1455.581446
520.345279,9770.718434,7328.038826,689.485948
520.345599,8734.430116,6217.729913,-919.314598
520.345920,6513.812290,6365.771101,-3753.867940
520.346240,4441.235652,6661.853478,-3140.991542
520.346561,3627.009116,6291.750507,-1838.629195
520.346881,4663.297435,7254.018232,0.000000
520.347202,6217.729913,8660.409521,1149.143247
520.347522,5847.626942,10584.944971,1225.752797
520.347843,3701.029710,10510.924376,76.609550
520.348163,1924.535449,9992.780217,0.000000
520.348484,1184.329507,9548.656652,995.924147
520.348804,1776.494261,8882.471304,1762.019645
520.349125,2664.741391,8808.450710,1302.362347
520.349445,2220.617826,9474.636058,-1302.362347
520.349766,2072.576638,10288.862594,-1455.581446
520.350086,1332.370696,11695.253884,76.609550
520.350407,1258.350101,11473.192101,1149.143247
520.350727,2738.761985,9622.677246,1685.410096
520.351048,4441.235652,8512.368333,1762.019645
520.351368,4441.235652,7698.141797,229.828649
520.351689,4293.194464,8216.285956,919.314598
520.352009,4737.318029,8290.306550,1072.533697
520.352330,5699.585753,6809.894666,-306.438199
520.352650,7846.182985,5625.565159,-1762.019645
520.352971,9326.594869,7031.956449,-3294.210641
520.353291,8216.285956,9326.594869,-3217.601092
520.353612,7402.059420,9474.636058,-1532.190996
520.353932,7698.141797,8438.347739,-1455.581446
520.354253,8142.265362,6809.894666,-153.219100
520.354573,7550.100608,6365.771101,-689.485948
520.354894,6513.812290,6587.832884,-842.705048
520.355214,4515.256246,7254.018232,-1455.581446
520.355535,3775.050304,8068.244768,-689.485948
520.355855,5181.441594,7994.224174,-229.828649
520.356176,5699.585753,7550.100608,-536.266849
520.356496,4959.379811,7846.182985,153.219100
520.356817,4663.297435,8512.368333,1378.971896
520.357137,2664.741391,8216.285956,2374.896044
520.357458,1628.453072,7402.059420,1915.238745
520.357778,2368.659014,7698.141797,2145.067394
520.358099,3404.947333,8956.491898,2068.457845
520.358419,3552.988522,9844.739029,766.095498
520.358740,3108.864956,9400.615463,0.000000
520.359060,3478.967927,8734.430116,-1149.143247
520.359381,3330.926739,8512.368333,-229.828649
520.359701,3775.050304,8364.327145,689.485948
520.360022,4811.338623,7624.121203,1072.533697
520.360342,6143.709319,7179.997637,919.314598
520.360663,6365.771101,7994.224174,612.876398
520.360983,5921.647536,9178.553681,0.000000
520.361304,5847.626942,8586.388927,-306.438199
520.361624,7254.018232,8216.285956,-689.485948
520.361945,7920.203579,6365.771101,-76.609550
520.362265,7550.100608,5033.400406,-612.876398
520.362586,7105.977043,5329.482782,-1455.581446
520.362906,5477.523971,6439.791695,-1762.019645
520.363227,5773.606348,7402.059420,-1991.848295
520.363547,6809.894666,7328.038826,-306.438199
520.363868,6587.832884,6957.935855,0.000000
520.364188,5773.606348,7994.224174,689.485948
520.364509,4737.318029,9770.718434,842.705048
520.364829,4219.173869,9992.780217,76.609550
520.365150,4515.256246,8586.388927,459.657299
520.365470,5033.400406,6809.894666,1225.752797
520.365791,4589.276840,6661.853478,842.705048
520.366111,2812.782580,8068.244768,306.438199
520.366432,2886.803174,9178.553681,-612.876398
520.366752,2960.823768,8882.471304,-766.095498
520.367073,4589.276840,7476.080014,0.000000
520.367393,5107.421000,6735.874072,1072.533697
520.367714,4959.379811,7402.059420,1762.019645
520.368034,3849.070898,7920.203579,459.657299
520.368355,4145.153275,8364.327145,-536.266849
520.368675,5329.482782,8956.491898,-1302.362347
520.368996,6661.853478,7920.203579,-1378.971896
520.369316,7105.977043,7328.038826,-612.876398
520.369637,7772.162391,7550.100608,0.000000
520.369957,6217.729913,8438.347739,-919.314598
520.370278,5773.606348,8216.285956,-1991.848295
520.370598,6735.874072,7031.956449,-1149.143247
520.370919,7031.956449,6143.709319,-383.047749
520.371239,8068.244768,6439.791695,0.000000
520.371560,6809.894666,7994.224174,-689.485948
520.371880,5033.400406,7328.038826,-2298.286494
520.372200,4589.276840,7105.977043,-1378.971896
520.372521,5329.482782,7105.977043,0.000000
520.372841,5181.441594,7772.162391,459.657299
520.373162,5107.421000,8882.471304,1149.143247
520.373482,4737.318029,9622.677246,-612.876398
520.373803,4441.235652,10288.862594,-1149.143247
520.374123,4071.132681,9548.656652,919.314598
520.374444,4293.194464,7772.162391,0.000000
520.374764,4441.235652,7698.141797,383.047749
520.375085,4219.173869,8586.388927,229.828649
520.375405,2886.803174,9030.512492,-536.266849
520.375726,3182.885551,8660.409521,-842.705048
520.376046,4737.318029,8586.388927,383.047749
520.376367,4811.338623,9622.677246,1532.190996
520.376687,4885.359217,8882.471304,1302.362347
520.377008,5255.462188,7402.059420,0.000000
520.377328,5181.441594,6217.729913,-1225.752797
520.377649,5847.626942,6143.709319,0.000000
520.377969,6365.771101,6735.874072,612.876398
520.378290,6365.771101,7994.224174,-383.047749
520.378610,7920.203579,9474.636058,-1915.238745
520.378931,8142.265362,8586.388927,-1608.800546
520.379251,7105.977043,6587.832884,-1302.362347
520.379572,7254.018232,5847.626942,-383.047749
520.379892,6143.709319,6513.812290,0.000000
520.380213,5551.544565,7031.956449,-842.705048
520.380533,6365.771101,7328.038826,-612.876398
520.380854,6439.791695,6957.935855,-1455.581446
520.381174,5699.585753,6809.894666,-842.705048
520.381495,4885.359217,7846.182985,-229.828649
520.381815,3997.112087,9030.512492,-229.828649
520.382136,4219.173869,9104.533087,383.047749
520.382456,5329.482782,8364.327145,1072.533697
520.382777,5255.462188,8438.347739,766.095498
520.383097,3404.947333,8364.327145,1149.143247
520.383418,3182.885551,8660.409521,842.705048
520.383738,3923.091493,9104.533087,0.000000
520.384059,3701.029710,8068.244768,0.000000
520.384379,4589.276840,7031.956449,459.657299
520.384700,3923.091493,6957.935855,1225.752797
520.385020,3552.988522,7994.224174,1532.190996
520.385341,3701.029710,9400.615463,919.314598
520.385661,4959.379811,9178.553681,-383.047749
520.385982,6661.853478,8364.327145,-383.047749
520.386302,6957.935855,8290.306550,153.219100
520.386623,5995.668130,7920.203579,0.000000
520.386943,5477.523971,8290.306550,-995.924147
520.387264,6291.750507,7920.203579,-1072.533697
520.387584,7031.956449,7031.956449,-766.095498
520.387905,6735.874072,5699.585753,-689.485948
520.388225,6217.729913,5181.441594,0.000000
520.388546,6069.688724,7105.977043,919.314598
520.388866,5033.400406,7772.162391,0.000000
520.389187,6365.771101,7031.956449,-1532.190996
520.389507,7624.121203,6957.935855,-1608.800546
520.389828,5773.606348,7179.997637,-689.485948
520.390148,5255.462188,9326.594869,612.876398
520.390469,5181.441594,9918.759623,842.705048
520.390789,4589.276840,9474.636058,-766.095498
520.391110,5551.544565,8142.265362,-229.828649
520.391430,5181.441594,7254.018232,0.000000
520.391751,4145.153275,6957.935855,0.000000
520.392071,3478.967927,8290.306550,536.266849
520.392392,3034.844362,8438.347739,1302.362347
520.392712,3849.070898,7328.038826,612.876398
520.393033,5403.503377,7105.977043,919.314598
520.393353,5107.421000,7179.997637,-229.828649
520.393674,3478.967927,8290.306550,-766.095498
520.393994,4071.132681,9548.656652,0.000000
520.394315,5329.482782,9326.594869,0.000000
520.394635,5847.626942,7920.203579,-306.438199
520.394956,5995.668130,7179.997637,-383.047749
520.395276,5625.565159,8660.409521,-1532.190996
520.395597,3775.050304,9696.697840,-1225.752797
520.395917,4737.318029,9474.636058,-1455.581446
520.396238,6365.771101,7624.121203,-1608.800546
520.396558,6365.771101,6291.750507,459.657299
520.396879,5625.565159,6217.729913,1378.971896
520.397199,4219.173869,6809.894666,306.438199
520.397520,3256.906145,7772.162391,-1302.362347
520.397840,5181.441594,8586.388927,-1455.581446
520.398161,6143.709319,8364.327145,-689.485948
520.398481,6069.688724,7772.162391,0.000000
520.398802,5995.668130,8660.409521,383.047749
520.399122,4441.235652,9992.780217,0.000000
520.399443,3997.112087,9400.615463,-995.924147
520.399763,4737.318029,7920.203579,-766.095498
520.400084,4441.235652,7550.100608,-842.705048
520.400404,4515.256246,8364.327145,0.000000
520.400725,4367.215058,9548.656652,995.924147
520.401045,3330.926739,9326.594869,-306.438199
520.401366,4293.194464,8512.368333,-1225.752797
520.401686,4145.153275,7328.038826,0.000000
520.402007,3404.947333,7328.038826,0.000000
520.402327,3775.050304,8216.285956,1072.533697
520.402648,4071.132681,9696.697840,689.485948
520.402968,4219.173869,10510.924376,-612.876398
520.403289,4811.338623,8512.368333,-842.705048
520.403609,6069.688724,7624.121203,0.000000
520.403930,5995.668130,7476.080014,766.095498
520.404250,4885.359217,8142.265362,383.047749
520.404571,5329.482782,8882.471304,-689.485948
520.404891,5255.462188,8512.368333,-1685.410096
520.405212,5995.668130,7105.977043,-536.266849
520.405532,6513.812290,6735.874072,459.657299
520.405853,5255.462188,6513.812290,229.828649
520.406173,4441.235652,7846.182985,0.000000
520.406494,5033.400406,8734.430116,-1149.143247
520.406814,4737.318029,8290.306550,-1455.581446
520.407135,5403.503377,8142.265362,0.000000
520.407455,5995.668130,9178.553681,1072.533697
520.407776,4071.132681,9844.739029,0.000000
520.408096,3182.885551,9474.636058,-1072.533697
520.408417,3775.050304,8290.306550,-1225.752797
520.408737,3923.091493,7031.956449,306.438199
520.409058,3775.050304,7031.956449,1072.533697
520.409378,5477.523971,7476.080014,1608.800546
520.409699,3997.112087,8438.347739,-306.438199
520.410019,3849.070898,7994.224174,-383.047749
520.410340,5329.482782,8364.327145,229.828649
520.410660,6069.688724,7920.203579,766.095498
520.410981,5107.421000,7994.224174,153.219100
520.411301,5995.668130,8734.430116,76.609550
520.411622,3775.050304,7624.121203,-1685.410096
520.411942,4811.338623,7328.038826,-766.095498
520.412263,6439.791695,7772.162391,536.266849
520.412583,5403.503377,8216.285956,612.876398
520.412904,5181.441594,8142.265362,-536.266849
520.413224,6291.750507,9178.553681,-612.876398
520.413545,4959.379811,8586.388927,-1302.362347
520.413865,4737.318029,6735.874072,-842.705048
520.414186,5477.523971,6365.771101,919.314598
520.414506,5181.441594,7476.080014,842.705048
520.414827,4293.194464,8808.450710,229.828649
520.415147,3701.029710,7994.224174,-1455.581446
520.415468,4737.318029,9030.512492,-2604.724693
520.415788,5033.400406,10658.965565,459.657299
520.416109,3997.112087,9622.677246,995.924147
520.416429,3330.926739,8364.327145,-766.095498
520.416750,3182.885551,8438.347739,-995.924147
520.417070,3330.926739,9326.594869,76.609550
520.417391,2886.803174,7994.224174,229.828649
520.417711,2738.761985,7920.203579,153.219100
520.418032,4293.194464,10066.800811,536.266849
520.418352,3478.967927,11103.089130,459.657299
520.418673,3330.926739,10066.800811,0.000000
520.418993,4589.276840,9030.512492,76.609550
520.419314,4589.276840,8216.285956,76.609550
520.419634,4145.153275,7772.162391,306.438199
520.419955,3627.009116,7698.141797,0.000000
520.420275,4219.173869,8586.388927,-153.219100
520.420596,5773.606348,9992.780217,306.438199
520.420916,5033.400406,8882.471304,-76.609550
520.421237,4441.235652,7328.038826,-1149.143247
520.421557,5329.482782,7994.224174,-919.314598
520.421878,4293.194464,8956.491898,0.000000
520.422198,4441.235652,9104.533087,-612.876398
520.422519,5181.441594,7550.100608,229.828649
520.422839,5329.482782,7550.100608,306.438199
520.423160,4811.338623,7920.203579,536.266849
520.423480,5033.400406,8142.265362,306.438199
520.423801,4959.379811,7994.224174,-689.485948
520.424121,5329.482782,7402.059420,-536.266849
520.424442,6069.688724,6735.874072,229.828649
520.424762,4959.379811,6217.729913,-306.438199
520.425083,5551.544565,6365.771101,-689.485948
520.425403,5551.544565,7772.162391,-1072.533697
520.425724,5625.565159,8142.265362,-1608.800546
520.426044,5625.565159,7254.018232,-766.095498
520.426365,5847.626942,6883.915261,0.000000
520.426685,5181.441594,7624.121203,153.219100
520.427006,5255.462188,9844.739029,459.657299
520.427326,5625.565159,9844.739029,-229.828649
520.427647,5773.606348,8216.285956,-1532.190996
520.427967,5625.565159,7105.977043,-383.047749
520.428288,5551.544565,6587.832884,766.095498
520.428608,5181.441594,7402.059420,1532.190996
520.428929,4737.318029,7476.080014,459.657299
520.429249,4737.318029,7624.121203,-919.314598
520.429570,6217.729913,7328.038826,-995.924147
520.429890,5995.668130,6439.791695,-612.876398
520.430211,5255.462188,6661.853478,766.095498
520.430531,5699.585753,8290.306550,689.485948
520.430852,5699.585753,10066.800811,0.000000
520.431172,4737.318029,8808.450710,-919.314598
520.431493,7105.977043,8142.265362,-612.876398
520.431813,6217.729913,8142.265362,0.000000
520.432134,4441.235652,8438.347739,-612.876398
520.432454,4367.215058,9770.718434,-1149.143247
520.432775,4589.276840,9252.574275,-995.924147
520.433095,4293.194464,7105.977043,-76.609550
520.433416,5921.647536,7402.059420,612.876398
520.433736,4145.153275,8808.450710,-76.609550
520.434057,1924.535449,10510.924376,-1762.019645
520.434377,2516.700203,10362.883188,-1302.362347
520.434698,3775.050304,8734.430116,-459.657299
520.435018,4367.215058,7920.203579,1762.019645
520.435338,4219.173869,8142.265362,1991.848295
520.435659,2812.782580,10510.924376,-612.876398
520.435979,2590.720797,11621.233289,-1685.410096
520.436300,3108.864956,10510.924376,-766.095498
520.436620,5255.462188,7772.162391,229.828649
520.436941,5255.462188,7254.018232,1225.752797
520.437261,4589.276840,8660.409521,1532.190996
520.437582,3256.906145,9400.615463,-536.266849
520.437902,3701.029710,8290.306550,-1378.971896
520.438223,4811.338623,7031.956449,-612.876398
520.438543,5995.668130,6957.935855,995.924147
520.438864,5477.523971,8142.265362,1915.238745
520.439184,4663.297435,9548.656652,689.485948
520.439505,4589.276840,9178.553681,-612.876398
520.439825,5477.523971,7772.162391,-1532.190996
520.440146,5181.441594,6291.750507,-459.657299
520.440466,4663.297435,6587.832884,306.438199
520.440787,5329.482782,8290.306550,919.314598
520.441108,4737.318029,8808.450710,-612.876398
520.441428,4589.276840,7624.121203,-1915.238745
520.441749,5995.668130,6513.812290,-612.876398
520.442069,5477.523971,6735.874072,689.485948
520.442390,3627.009116,7698.141797,1149.143247
520.442711,4737.318029,8290.306550,383.047749
520.443031,4811.338623,7698.141797,-536.266849
520.443352,4589.276840,6883.915261,-612.876398
520.443672,5921.647536,6513.812290,766.095498
520.443993,5625.565159,7698.141797,306.438199
520.444314,5847.626942,8512.368333,-689.485948
520.444634,6587.832884,9474.636058,-536.266849
520.444955,6291.750507,8216.285956,-1149.143247
520.445275,6513.812290,7105.977043,-383.047749
520.445596,6587.832884,6883.915261,1455.581446
520.445917,6143.709319,7254.018232,1455.581446
520.446237,5847.626942,7179.997637,536.266849
520.446558,5477.523971,6735.874072,-612.876398
520.446878,5551.544565,5551.544565,-229.828649
520.447199,5995.668130,6365.771101,919.314598
520.447520,6365.771101,8068.244768,2374.896044
520.447840,5773.606348,8586.388927,383.047749
520.448161,6143.709319,8734.430116,-1532.190996
520.448481,6217.729913,7846.182985,-1685.410096
520.448802,5403.503377,7254.018232,-306.438199
520.449123,5699.585753,7031.956449,919.314598
520.449443,5107.421000,7920.203579,0.000000
520.449764,4367.215058,7994.224174,-1915.238745
520.450084,5033.400406,8882.471304,-1685.410096
520.450405,5403.503377,8438.347739,-842.705048
520.450726,4959.379811,7846.182985,0.000000
520.451046,5033.400406,8882.471304,459.657299
520.451367,4071.132681,9178.553681,-306.438199
520.451687,4293.194464,8290.306550,-842.705048
520.452008,5477.523971,8068.244768,-612.876398
520.452329,5255.462188,7994.224174,306.438199
520.452649,5773.606348,8660.409521,995.924147
520.452970,5033.400406,9178.553681,-306.438199
520.453290,3034.844362,8586.388927,-1225.752797
520.453611,5181.441594,8660.409521,-383.047749
520.453932,5329.482782,7994.224174,919.314598
520.454252,4367.215058,7624.121203,1072.533697
520.454573,5181.441594,7624.121203,-459.657299
520.454893,4737.318029,8808.450710,-1149.143247
520.455214,4441.235652,9030.512492,-1072.533697
520.455535,4959.379811,8364.327145,383.047749
520.455855,4737.318029,7402.059420,1455.581446
520.456176,5329.482782,7698.141797,1302.362347
520.456496,5181.441594,9252.574275,536.266849
520.456817,4737.318029,8586.388927,-1991.848295
520.457138,4737.318029,8660.409521,-2528.115143
520.457458,5107.421000,7624.121203,-536.266849
520.457779,5329.482782,7254.018232,229.828649
520.458099,5107.421000,6957.935855,689.485948
520.458420,5033.400406,6957.935855,-229.828649
520.458741,5551.544565,8290.306550,-1149.143247
520.459061,5033.400406,7920.203579,-229.828649
520.459382,5847.626942,7402.059420,0.000000
520.459702,6661.853478,7920.203579,536.266849
520.460023,5921.647536,7698.141797,536.266849
520.460344,5625.565159,7476.080014,0.000000
520.460664,5921.647536,6661.853478,-689.485948
520.460985,5551.544565,6439.791695,-612.876398
520.461305,6069.688724,7994.224174,229.828649
520.461626,5477.523971,9178.553681,229.828649
520.461946,5403.503377,9548.656652,229.828649
520.462267,5699.585753,8660.409521,459.657299
520.462588,5847.626942,7031.956449,1149.143247
520.462908,4959.379811,5847.626942,1685.410096
520.463229,3997.112087,5773.606348,842.705048
520.463549,3997.112087,7105.977043,0.000000
520.463870,4885.359217,7994.224174,0.000000
520.464191,4959.379811,7402.059420,0.000000
520.464511,5329.482782,7328.038826,0.000000
520.464832,5625.565159,7179.997637,153.219100
520.465152,4515.256246,8956.491898,-76.609550
520.465473,5181.441594,9844.739029,-995.924147
520.465794,5625.565159,7772.162391,-995.924147
520.466114,6217.729913,6587.832884,-1072.533697
520.466435,5995.668130,7105.977043,0.000000
520.466755,4885.359217,8660.409521,-459.657299
520.467076,4219.173869,8438.347739,-1455.581446
520.467397,5107.421000,7994.224174,-1532.190996
520.467717,5921.647536,6957.935855,-153.219100
520.468038,5921.647536,6217.729913,689.485948
520.468358,5181.441594,7254.018232,842.705048
520.468679,4737.318029,9326.594869,-153.219100
520.469000,5033.400406,10732.986159,-612.876398
520.469320,5181.441594,9696.697840,0.000000
520.469641,6069.688724,7328.038826,0.000000
520.469961,5477.523971,7105.977043,1072.533697
520.470282,3775.050304,8734.430116,0.000000
520.470603,3701.029710,9326.594869,-995.924147
520.470923,3923.091493,8734.430116,-1685.410096
520.471244,5921.647536,7550.100608,-536.266849
520.471564,5477.523971,7328.038826,1072.533697
520.471885,3478.967927,8438.347739,689.485948
520.472206,3256.906145,9474.636058,153.219100
520.472526,4737.318029,9770.718434,-153.219100
520.472847,6143.709319,7624.121203,-76.609550
520.473167,6291.750507,6143.709319,-153.219100
520.473488,5329.482782,6587.832884,76.609550
520.473809,4811.338623,9326.594869,-689.485948
520.474129,3849.070898,10584.944971,-1378.971896
520.474450,6365.771101,8882.471304,-2221.676944
520.474770,7772.162391,6587.832884,-1762.019645
520.475091,6291.750507,6069.688724,-306.438199
520.475412,5181.441594,7846.182985,459.657299
520.475732,4219.173869,10066.800811,229.828649
520.476053,4071.132681,9178.553681,-1225.752797
520.476373,6143.709319,7624.121203,-995.924147
520.476694,6291.750507,6883.915261,0.000000
520.477015,4145.153275,7920.203579,229.828649
520.477335,3330.926739,9622.677246,842.705048
520.477656,3478.967927,9770.718434,0.000000
520.477976,4367.215058,8512.368333,459.657299
520.478297,5329.482782,6513.812290,1072.533697
520.478618,4293.194464,7179.997637,689.485948
520.478938,3849.070898,8882.471304,0.000000
520.479259,3404.947333,9918.759623,-229.828649
520.479579,4811.338623,7994.224174,-1378.971896
520.479900,6587.832884,5699.585753,0.000000
520.480221,6143.709319,5699.585753,1378.971896
520.480541,4885.359217,7846.182985,995.924147
520.480862,4293.194464,9326.594869,383.047749
520.481182,4441.235652,8734.430116,-1685.410096
520.481503,7328.038826,6513.812290,-1378.971896
520.481824,7624.121203,4959.379811,-229.828649
520.482144,7105.977043,6735.874072,229.828649
520.482465,5921.647536,9770.718434,612.876398
520.482785,4885.359217,9770.718434,-1991.848295
520.483106,5773.606348,7624.121203,-2374.896044
520.483427,7402.059420,5551.544565,-689.485948
520.483747,7476.080014,5995.668130,1225.752797
520.484068,6069.688724,8142.265362,2068.457845
520.484388,3701.029710,8512.368333,-306.438199
520.484709,4219.173869,8290.306550,-2451.505594
520.485030,5181.441594,7328.038826,-1225.752797
520.485350,5033.400406,7105.977043,1608.800546
520.485671,4663.297435,8068.244768,2221.676944
520.485991,3182.885551,9400.615463,536.266849
520.486312,2812.782580,9844.739029,-1072.533697
520.486633,4071.132681,9030.512492,-919.314598
520.486953,4515.256246,7994.224174,76.609550
520.487274,3849.070898,8142.265362,1608.800546
520.487594,3404.947333,9770.718434,919.314598
520.487915,2442.679609,9918.759623,0.000000
520.488236,2960.823768,9178.553681,-1072.533697
520.488556,4885.359217,7772.162391,-536.266849
520.488877,4515.256246,7550.100608,383.047749
520.489197,4441.235652,8142.265362,459.657299
520.489518,3256.906145,9104.533087,-766.095498
520.489839,4219.173869,9326.594869,-2374.896044
520.490159,5403.503377,8660.409521,-995.924147
520.490480,6143.709319,7994.224174,766.095498
520.490800,6661.853478,7994.224174,0.000000
520.491121,5921.647536,8068.244768,-766.095498
520.491442,5033.400406,9326.594869,-2221.676944
520.491762,5033.400406,8956.491898,-2528.115143
520.492083,4737.318029,7328.038826,-1225.752797
520.492403,6513.812290,6735.874072,689.485948
520.492724,7105.977043,7402.059420,1072.533697
520.493045,5329.482782,8586.388927,76.609550
520.493365,4293.194464,8660.409521,-1685.410096
520.493686,4071.132681,8142.265362,-1072.533697
520.494006,5181.441594,8364.327145,1838.629195
520.494327,4737.318029,7179.997637,1915.238745
520.494648,4959.379811,7328.038826,0.000000
520.494968,5329.482782,8882.471304,-1072.533697
520.495289,3478.967927,9104.533087,-1072.533697
520.495609,3034.844362,7846.182985,-842.705048
520.495930,4441.235652,7402.059420,229.828649
520.496251,4515.256246,8068.244768,919.314598
520.496571,4737.318029,9622.677246,153.219100
520.496892,3997.112087,10066.800811,-1532.190996
520.497212,3849.070898,9030.512492,-2911.162892
520.497533,5625.565159,7920.203579,-612.876398
520.497854,5921.647536,7105.977043,1302.362347
520.498174,5847.626942,7105.977043,1149.143247
520.498495,4737.318029,8290.306550,-306.438199
520.498815,4737.318029,8660.409521,-2221.676944
520.499136,5773.606348,8216.285956,-842.705048
520.499457,5921.647536,7179.997637,842.705048
520.499777,6883.915261,7402.059420,383.047749
520.500098,6587.832884,7994.224174,-306.438199
520.500418,4441.235652,8660.409521,-612.876398
520.500739,4737.318029,7920.203579,-459.657299
520.501060,5477.523971,6883.915261,919.314598
520.501380,5181.441594,7179.997637,536.266849
520.501701,4737.318029,9178.553681,0.000000
520.502021,4367.215058,9770.718434,-383.047749
520.502342,4441.235652,9400.615463,-842.705048
520.502663,3849.070898,7698.141797,536.266849
520.502983,3404.947333,6439.791695,995.924147
520.503304,3404.947333,7920.203579,536.266849
520.503624,2220.617826,9400.615463,0.000000
520.503945,3330.926739,9622.677246,-76.609550
520.504266,5847.626942,9178.553681,459.657299
520.504586,4589.276840,7476.080014,0.000000
520.504907,4663.297435,7772.162391,-306.438199
520.505227,4071.132681,9030.512492,-153.219100
520.505548,3182.885551,9844.739029,-383.047749
520.505869,5255.462188,8660.409521,229.828649
520.506189,6365.771101,7105.977043,383.047749
520.506510,5329.482782,6587.832884,153.219100
520.506830,5181.441594,8290.306550,383.047749
520.507151,4737.318029,8586.388927,-612.876398
520.507472,5847.626942,8216.285956,-1455.581446
520.507792,6661.853478,6587.832884,0.000000
520.508113,6217.729913,6439.791695,612.876398
520.508433,5847.626942,7105.977043,995.924147
520.508754,5033.400406,8882.471304,306.438199
520.509075,4885.359217,8808.450710,-1302.362347
520.509395,5625.565159,7402.059420,-1378.971896
520.509716,5403.503377,6513.812290,76.609550
520.510036,5847.626942,7328.038826,0.000000
520.510357,4515.256246,8364.327145,0.000000
520.510678,3997.112087,9696.697840,-689.485948
520.510998,4811.338623,9178.553681,-1225.752797
520.511319,4071.132681,7402.059420,-766.095498
520.511639,4589.276840,7179.997637,919.314598
520.511960,4071.132681,8290.306550,842.705048
520.512281,3182.885551,9030.512492,-153.219100
520.512601,3775.050304,9252.574275,-1685.410096
520.512922,4737.318029,8734.430116,-1225.752797
520.513242,4885.359217,7179.997637,-153.219100
520.513563,5329.482782,7846.182985,1072.533697
520.513884,4663.297435,8956.491898,153.219100
520.514204,4441.235652,9770.718434,-1455.581446
520.514525,6291.750507,9030.512492,-1149.143247
520.514845,6513.812290,7105.977043,-383.047749
520.515166,5699.585753,6217.729913,459.657299
520.515487,5995.668130,8290.306550,1302.362347
520.515807,4589.276840,9992.780217,0.000000
520.516128,4293.194464,9474.636058,-1532.190996
520.516448,6661.853478,7105.977043,0.000000
520.516769,5995.668130,5477.523971,153.219100
520.517090,4737.318029,6291.750507,536.266849
520.517410,4219.173869,8882.471304,995.924147
520.517731,4145.153275,9992.780217,0.000000
520.518051,5181.441594,9400.615463,-995.924147
520.518372,6809.894666,8142.265362,-306.438199
520.518693,5181.441594,7920.203579,-766.095498
520.519013,3552.988522,8586.388927,-1302.362347
520.519334,2960.823768,10362.883188,-306.438199
520.519654,3849.070898,9844.739029,-536.266849
520.519975,4737.318029,7772.162391,383.047749
520.520296,3997.112087,6809.894666,689.485948
520.520616,3108.864956,8216.285956,-229.828649
520.520937,2664.741391,10362.883188,536.266849
520.521257,2664.741391,10732.986159,0.000000
520.521578,4589.276840,8512.368333,0.000000
520.521899,5995.668130,6439.791695,1455.581446
520.522219,5033.400406,6957.935855,1915.238745
520.522540,3552.988522,8438.347739,842.705048
520.522860,3182.885551,9622.677246,-1225.752797
520.523181,4441.235652,8734.430116,-1455.581446
520.523502,6587.832884,6587.832884,229.828649
520.523822,8068.244768,4959.379811,1838.629195
520.524143,7179.997637,6513.812290,2145.067394
520.524463,4663.297435,8290.306550,-459.657299
520.524784,4737.318029,9326.594869,-2757.943793
520.525105,5255.462188,6883.915261,-2145.067394
520.525425,7994.224174,4959.379811,1072.533697
520.525746,9622.677246,5921.647536,2987.772442
520.526066,6513.812290,7402.059420,1072.533697
520.526387,4663.297435,8882.471304,-3217.601092
520.526708,5551.544565,7920.203579,-3370.820191
520.527028,6069.688724,6587.832884,-1149.143247
520.527349,7179.997637,6587.832884,2221.676944
520.527669,6069.688724,7105.977043,1915.238745
520.527990,3775.050304,8512.368333,-919.314598
520.528311,4071.132681,9252.574275,-1532.190996
520.528631,4737.318029,7402.059420,-766.095498
520.528952,5773.606348,6143.709319,306.438199
520.529272,6069.688724,7550.100608,1302.362347
520.529593,4589.276840,9696.697840,536.266849
520.529914,3923.091493,10362.883188,-995.924147
520.530234,4441.235652,9400.615463,-689.485948
520.530555,5255.462188,7920.203579,-383.047749
520.530875,5551.544565,7179.997637,1532.190996
520.531196,4589.276840,8290.306550,1608.800546
520.531517,4367.215058,9992.780217,306.438199
520.531837,3923.091493,9548.656652,0.000000
520.532158,4441.235652,7994.224174,-689.485948
520.532478,5403.503377,6883.915261,536.266849
520.532799,5181.441594,7254.018232,1302.362347
520.533120,4811.338623,9178.553681,919.314598
520.533440,4589.276840,9770.718434,-1225.752797
520.533761,4441.235652,7994.224174,-1838.629195
520.534081,4737.318029,6809.894666,-306.438199
520.534402,5847.626942,7105.977043,995.924147
520.534723,5773.606348,9030.512492,-536.266849
520.535043,5773.606348,10436.903782,-1915.238745
520.535364,5033.400406,10066.800811,-2221.676944
520.535684,6217.729913,8438.347739,-842.705048
520.536005,5625.565159,7254.018232,1455.581446
520.536326,3997.112087,6439.791695,1685.410096
520.536646,4293.194464,8290.306550,76.609550
520.536967,4589.276840,9622.677246,-1532.190996
520.537287,3627.009116,7772.162391,-1608.800546
520.537608,5403.503377,5995.668130,-383.047749
520.537929,6365.771101,6661.853478,1378.971896
520.538249,4885.359217,8142.265362,1225.752797
520.538570,3923.091493,9548.656652,-229.828649
520.538890,4441.235652,8882.471304,-689.485948
520.539211,5329.482782,7105.977043,459.657299
520.539531,5995.668130,6735.874072,2374.896044
520.539852,5847.626942,7105.977043,919.314598
520.540173,3849.070898,7920.203579,-2068.457845
520.540493,3775.050304,8216.285956,-2374.896044
520.540814,5255.462188,7031.956449,-995.924147
520.541134,6587.832884,5625.565159,995.924147
520.541455,6439.791695,5847.626942,1608.800546
520.541776,5773.606348,8142.265362,-766.095498
520.542096,5107.421000,9474.636058,-2068.457845
520.542417,5921.647536,8956.491898,-2451.505594
520.542737,7031.956449,6957.935855,-919.314598
520.543058,7179.997637,5699.585753,612.876398
520.543379,6291.750507,7550.100608,842.705048
520.543699,4367.215058,9104.533087,-1378.971896
520.544020,4219.173869,8808.450710,-2757.943793
520.544340,5403.503377,7624.121203,-1532.190996
520.544661,5773.606348,6439.791695,383.047749
520.544981,5033.400406,7105.977043,1149.143247
520.545302,5551.544565,9696.697840,766.095498
520.545623,4589.276840,10288.862594,-612.876398
520.545943,4737.318029,8808.450710,-1149.143247
520.546264,5551.544565,7179.997637,995.924147
520.546584,4441.235652,6809.894666,2145.067394
520.546905,3923.091493,8882.471304,1532.190996
520.547225,3627.009116,10140.821405,-383.047749
520.547546,3775.050304,9918.759623,-1608.800546
520.547867,5181.441594,8068.244768,-1072.533697
520.548187,3997.112087,5847.626942,306.438199
520.548508,4219.173869,6365.771101,919.314598
520.548828,4811.338623,8882.471304,1302.362347
520.549149,4589.276840,10288.862594,-306.438199
520.549470,5699.585753,9178.553681,-1532.190996
520.549790,6883.915261,7772.162391,-1225.752797
520.550111,6513.812290,7846.182985,-919.314598
520.550431,6809.894666,8734.430116,-153.219100
520.550752,6365.771101,8882.471304,-995.924147
520.551072,6439.791695,8290.306550,-2068.457845
520.551393,5847.626942,5847.626942,-1532.190996
520.551714,5551.544565,5255.462188,-229.828649
520.552034,5699.585753,7105.977043,995.924147
520.552355,4737.318029,9474.636058,919.314598
520.552675,5181.441594,9326.594869,-459.657299
520.552996,5773.606348,7328.038826,-1225.752797
520.553317,5403.503377,5773.606348,766.095498
520.553637,5181.441594,6957.935855,2451.505594
520.553958,4145.153275,8216.285956,1225.752797
520.554278,3997.112087,9252.574275,-1302.362347
520.554599,4885.359217,8808.450710,-1762.019645
520.554919,4589.276840,7105.977043,-536.266849
520.555240,4145.153275,7476.080014,1685.410096
520.555561,3701.029710,9400.615463,2374.896044
520.555881,2220.617826,10066.800811,0.000000
520.556202,2812.782580,9548.656652,-2374.896044
520.556522,4441.235652,7402.059420,-842.705048
520.556843,4441.235652,7254.018232,689.485948
520.557164,4293.194464,8290.306550,2145.067394
520.557484,3701.029710,9178.553681,1149.143247
520.557805,3849.070898,8956.491898,-1149.143247
520.558125,4737.318029,7624.121203,-1608.800546
520.558446,5181.441594,6439.791695,-459.657299
520.558766,4885.359217,6957.935855,919.314598
520.559087,4959.379811,9030.512492,306.438199
520.559408,5107.421000,9548.656652,-995.924147
520.559728,6957.935855,7698.141797,-1685.410096
520.560049,6365.771101,6217.729913,-689.485948
520.560369,5477.523971,6069.688724,459.657299
520.560690,5477.523971,7698.141797,766.095498
520.561010,5107.421000,8808.450710,-536.266849
520.561331,5995.668130,8364.327145,-2145.067394
520.561652,6883.915261,7402.059420,-1302.362347
520.561972,6069.688724,5551.544565,-612.876398
520.562293,5403.503377,6365.771101,689.485948
520.562613,4515.256246,8364.327145,1378.971896
520.562934,4515.256246,8660.409521,-76.609550
520.563255,5255.462188,7772.162391,-1302.362347
520.563575,5329.482782,7328.038826,-536.266849
520.563896,6069.688724,8216.285956,612.876398
520.564216,4441.235652,8808.450710,842.705048
520.564537,4219.173869,9252.574275,-766.095498
520.564857,5551.544565,8808.450710,-2068.457845
520.565178,4885.359217,7476.080014,-842.705048
520.565499,4663.297435,6883.915261,459.657299
520.565819,4811.338623,8068.244768,1149.143247
520.566140,3552.988522,10288.862594,-229.828649
520.566460,3701.029710,10584.944971,-1685.410096
520.566781,4811.338623,8734.430116,-1608.800546
520.567102,6069.688724,7994.224174,536.266849
520.567422,5847.626942,8512.368333,2068.457845
520.567743,4663.297435,8808.450710,1302.362347
520.568063,3552.988522,8438.347739,-1532.190996
520.568384,4589.276840,7920.203579,-1378.971896
520.568704,5847.626942,6587.832884,612.876398
520.569025,6291.750507,5921.647536,1915.238745
520.569346,5477.523971,7328.038826,-229.828649
520.569666,4589.276840,9622.677246,-2145.067394
520.569987,4663.297435,9844.739029,-2451.505594
520.570307,6217.729913,7920.203579,-1532.190996
520.570628,7402.059420,6365.771101,459.657299
520.570948,6587.832884,6883.915261,919.314598
520.571269,4737.318029,8586.388927,0.000000
520.571590,3627.009116,9696.697840,-2221.676944
520.571910,4293.194464,8808.450710,-2298.286494
520.572231,7105.977043,8068.244768,995.924147
520.572551,6217.729913,7179.997637,1302.362347
520.572872,3997.112087,7624.121203,-383.047749
520.573193,3701.029710,9030.512492,-1378.971896
520.573513,3552.988522,9326.594869,-1608.800546
520.573834,4145.153275,7920.203579,612.876398
520.574154,5033.400406,6513.812290,2374.896044
520.574475,4959.379811,7550.100608,2298.286494
520.574795,3256.906145,9622.677246,1149.143247
520.575116,2738.761985,10288.862594,-536.266849
520.575437,3923.091493,9474.636058,-1149.143247
520.575757,4737.318029,7994.224174,229.828649
520.576078,4811.338623,6957.935855,1149.143247
520.576398,4293.194464,7624.121203,689.485948
520.576719,3404.947333,9474.636058,-229.828649
520.577040,3108.864956,9844.739029,-766.095498
520.577360,4441.235652,8142.265362,306.438199
520.577681,5847.626942,7402.059420,842.705048
520.578001,5921.647536,7105.977043,1378.971896
520.578322,5033.400406,7920.203579,229.828649
520.578642,4145.153275,8142.265362,-1608.800546
520.578963,4219.173869,8512.368333,-1532.190996
520.579284,4663.297435,7105.977043,-536.266849
520.579604,6217.729913,5773.606348,0.000000
520.579925,7402.059420,7846.182985,612.876398
520.580245,5329.482782,9844.739029,-1378.971896
520.580566,3997.112087,9548.656652,-2681.334243
520.580887,4811.338623,8216.285956,-1072.533697
520.581207,5847.626942,7105.977043,1149.143247
520.581528,6143.709319,6809.894666,1991.848295
520.581848,5551.544565,8290.306550,306.438199
520.582169,3923.091493,9474.636058,-2298.286494
520.582489,3108.864956,9030.512492,-1915.238745
520.582810,4515.256246,7031.956449,612.876398
520.583131,5625.565159,6291.750507,2374.896044
520.583451,5107.421000,6957.935855,2145.067394
520.583772,3775.050304,9178.553681,383.047749
520.584092,3552.988522,9622.677246,-1302.362347
520.584413,3997.112087,8438.347739,-306.438199
520.584733,5477.523971,7846.182985,766.095498
520.585054,6217.729913,7105.977043,1685.410096
520.585375,5847.626942,8068.244768,919.314598
520.585695,4959.379811,8882.471304,-689.485948
520.586016,4515.256246,7920.203579,-1302.362347
520.586336,5255.462188,5921.647536,-1149.143247
520.586657,5773.606348,6439.791695,0.000000
520.586978,5921.647536,7328.038826,0.000000
520.587298,5625.565159,9770.718434,-1455.581446
520.587619,6291.750507,9696.697840,-1991.848295
520.587939,5477.523971,8290.306550,-1532.190996
520.588260,6217.729913,6809.894666,0.000000
520.588580,6069.688724,6883.915261,459.657299
520.588901,4885.359217,7772.162391,-383.047749
520.589222,5107.421000,9326.594869,-1685.410096
520.589542,5625.565159,9104.533087,-1149.143247
520.589863,4663.297435,8142.265362,-229.828649
520.590183,5773.606348,6957.935855,1072.533697
520.590504,4737.318029,7105.977043,995.924147
520.590825,3775.050304,8660.409521,-536.266849
520.591145,3775.050304,8660.409521,-689.485948
520.591466,3478.967927,7179.997637,459.657299
520.591786,3923.091493,7550.100608,842.705048
520.592107,4959.379811,9844.739029,1532.190996
520.592427,3923.091493,10658.965565,-459.657299
520.592748,3478.967927,10584.944971,-2681.334243
520.593069,4219.173869,9992.780217,-1225.752797
520.593389,4663.297435,7994.224174,229.828649
520.593710,4293.194464,6883.915261,1532.190996
520.594030,3923.091493,8216.285956,995.924147
520.594351,3256.906145,9252.574275,-459.657299
520.594671,3256.906145,8216.285956,-995.924147
520.594992,4589.276840,7031.956449,-306.438199
520.595313,4885.359217,6291.750507,229.828649
520.595633,4959.379811,6809.894666,689.485948
520.595954,5551.544565,8882.471304,-153.219100
520.596274,5107.421000,9178.553681,-1838.629195
520.596595,5403.503377,8586.388927,-1378.971896
520.596916,6513.812290,7920.203579,76.609550
520.597236,6587.832884,7920.203579,229.828649
520.597557,5181.441594,9326.594869,-459.657299
520.597877,5699.585753,9696.697840,-1072.533697
520.598198,6217.729913,7772.162391,-1532.190996
520.598518,5551.544565,5847.626942,-383.047749
520.598839,5329.482782,5699.585753,995.924147
520.599160,4441.235652,6661.853478,459.657299
520.599480,3997.112087,8068.244768,0.000000
520.599801,4663.297435,8660.409521,0.000000
520.600121,4959.379811,7846.182985,842.705048
520.600442,5181.441594,6957.935855,919.314598
520.600763,4071.132681,6809.894666,1072.533697
520.601083,3775.050304,9104.533087,459.657299
520.601404,4663.297435,9548.656652,-995.924147
520.601724,4737.318029,8660.409521,-1455.581446
520.602045,5847.626942,7031.956449,-612.876398
520.602365,6439.791695,7105.977043,919.314598
520.602686,3997.112087,8438.347739,459.657299
520.603007,3775.050304,9326.594869,-76.609550
520.603327,4811.338623,8734.430116,-689.485948
520.603648,4811.338623,6735.874072,-383.047749
520.603968,6069.688724,5329.482782,766.095498
520.604289,5699.585753,7031.956449,536.266849
520.604610,4515.256246,9770.718434,-1225.752797
520.604930,4737.318029,9696.697840,-1608.800546
520.605251,5847.626942,8142.265362,-842.705048
520.605571,7105.977043,6735.874072,842.705048
520.605892,5847.626942,7179.997637,2221.676944
520.606212,4441.235652,8216.285956,536.266849
520.606533,4737.318029,9252.574275,-1378.971896
520.606854,5107.421000,8438.347739,-1149.143247
520.607174,5921.647536,6661.853478,-536.266849
520.607495,6513.812290,5847.626942,536.266849
520.607815,4737.318029,7920.203579,229.828649
520.608136,3552.988522,10214.842000,-306.438199
520.608456,3701.029710,9992.780217,-766.095498
520.608777,4663.297435,8438.347739,-459.657299
520.609098,5403.503377,7402.059420,1072.533697
520.609418,4885.359217,8068.244768,1915.238745
520.609739,4589.276840,9992.780217,459.657299
520.610059,4219.173869,10066.800811,-2145.067394
520.610380,4515.256246,9326.594869,-2298.286494
520.610701,5847.626942,7476.080014,-612.876398
520.611021,5625.565159,5773.606348,1685.410096
520.611342,4885.359217,7920.203579,2145.067394
520.611662,4441.235652,9178.553681,1149.143247
520.611983,3552.988522,8216.285956,-1225.752797
520.612303,5329.482782,6513.812290,-1378.971896
520.612624,6439.791695,6143.709319,229.828649
520.612945,6439.791695,8068.244768,1225.752797
520.613265,5995.668130,8956.491898,536.266849
520.613586,4959.379811,8364.327145,-2221.676944
520.613906,5403.503377,7624.121203,-1915.238745
520.614227,5995.668130,6513.812290,153.219100
520.614548,5477.523971,6661.853478,1302.362347
520.614868,5625.565159,7920.203579,0.000000
520.615189,5625.565159,9326.594869,-1532.190996
520.615509,5255.462188,8216.285956,-1915.238745
520.615830,5329.482782,6291.750507,-919.314598
520.616150,6217.729913,5847.626942,1149.143247
520.616471,5773.606348,6513.812290,842.705048
520.616792,4737.318029,7550.100608,-383.047749
520.617112,5181.441594,9030.512492,-995.924147
520.617433,5403.503377,9326.594869,-1149.143247
520.617753,5107.421000,8068.244768,153.219100
520.618074,5625.565159,8068.244768,995.924147
520.618395,5625.565159,9474.636058,0.000000
520.618715,4293.194464,9622.677246,-1762.019645
520.619036,3701.029710,7698.141797,-1762.019645
520.619356,4071.132681,6661.853478,-153.219100
520.619677,4441.235652,7031.956449,1991.848295
520.619997,4145.153275,8512.368333,2604.724693
520.620318,4145.153275,9252.574275,0.000000
520.620639,4663.297435,8586.388927,-2374.896044
520.620959,4737.318029,6809.894666,-766.095498
520.621280,5033.400406,6439.791695,1302.362347
520.621600,6587.832884,8364.327145,1455.581446
520.621921,5477.523971,10510.924376,229.828649
520.622241,5625.565159,10436.903782,-2451.505594
520.622562,7254.018232,8586.388927,-2068.457845
520.622883,6143.709319,7476.080014,-229.828649
520.623203,6291.750507,7105.977043,1455.581446
520.623524,5551.544565,8290.306550,1225.752797
520.623844,4959.379811,8290.306550,-1685.410096
520.624165,5255.462188,7698.141797,-1838.629195
520.624486,5773.606348,5625.565159,-536.266849
520.624806,5995.668130,5995.668130,0.000000
520.625127,5181.441594,8068.244768,0.000000
520.625447,3923.091493,9992.780217,-306.438199
520.625768,5921.647536,10510.924376,-689.485948
520.626088,5773.606348,8216.285956,0.000000
520.626409,4737.318029,7328.038826,689.485948
520.626730,4589.276840,8586.388927,1149.143247
520.627050,2886.803174,9400.615463,76.609550
520.627371,3478.967927,9474.636058,-1225.752797
520.627691,5181.441594,7846.182985,-766.095498
520.628012,4589.276840,6291.750507,383.047749
520.628333,3997.112087,6809.894666,1302.362347
520.628653,3256.906145,7994.224174,1072.533697
520.628974,3478.967927,9918.759623,0.000000
520.629294,5033.400406,9104.533087,-842.705048
520.629615,5329.482782,7254.018232,459.657299
520.629935,6291.750507,7105.977043,1455.581446
520.630256,5847.626942,8512.368333,1838.629195
520.630577,3997.112087,9474.636058,-306.438199
520.630897,4811.338623,8808.450710,-2451.505594
520.631218,6661.853478,8068.244768,-2068.457845
520.631538,6365.771101,5921.647536,383.047749
520.631859,6439.791695,5329.482782,1685.410096
520.632179,6143.709319,6883.915261,1072.533697
520.632500,4885.359217,7994.224174,-995.924147
520.632821,4737.318029,7105.977043,-2221.676944
520.633141,6143.709319,5921.647536,-1225.752797
520.633462,6957.935855,6439.791695,1072.533697
520.633782,5995.668130,8290.306550,1302.362347
520.634103,5181.441594,9696.697840,-536.266849
520.634424,4663.297435,9104.533087,-3217.601092
520.634744,4219.173869,8142.265362,-995.924147
520.635065,5403.503377,7031.956449,1608.800546
520.635385,5477.523971,6883.915261,1762.019645
520.635706,3997.112087,8882.471304,153.219100
520.636026,4293.194464,9844.739029,-1149.143247
520.636347,4367.215058,8882.471304,-1225.752797
520.636668,5551.544565,7031.956449,459.657299
520.636988,6217.729913,6291.750507,1762.019645
520.637309,4959.379811,6809.894666,1225.752797
520.637629,3627.009116,8216.285956,-536.266849
520.637950,4071.132681,8734.430116,-2145.067394
520.638271,5699.585753,7476.080014,-1378.971896
520.638591,6809.894666,7476.080014,536.266849
520.638912,7105.977043,8216.285956,1608.800546
520.639232,5625.565159,9400.615463,-689.485948
520.639553,5551.544565,10288.862594,-2528.115143
520.639873,4959.379811,9252.574275,-2145.067394
520.640194,5181.441594,7179.997637,-383.047749
520.640515,5699.585753,5847.626942,1455.581446
520.640835,6069.688724,7328.038826,1225.752797
520.641156,3923.091493,9474.636058,-536.266849
520.641477,3923.091493,9622.677246,-1685.410096
520.641797,4959.379811,7550.100608,-1225.752797
520.642118,4441.235652,6587.832884,612.876398
520.642438,4737.318029,9104.533087,1762.019645
520.642759,4589.276840,11103.089130,459.657299
520.643080,3627.009116,10658.965565,-1532.190996
520.643400,4959.379811,9178.553681,-766.095498
520.643721,4071.132681,6883.915261,536.266849
520.644041,3256.906145,7402.059420,383.047749
520.644362,3404.947333,8808.450710,459.657299
520.644683,3182.885551,10362.883188,-1149.143247
520.645003,3701.029710,9622.677246,-1455.581446
520.645324,5255.462188,7105.977043,306.438199
520.645644,5107.421000,5995.668130,536.266849
520.645965,4145.153275,8216.285956,766.095498
520.646286,3108.864956,9548.656652,459.657299
520.646606,4293.194464,8734.430116,-919.314598
520.646927,5995.668130,6217.729913,-689.485948
520.647248,7031.956449,5255.462188,229.828649
520.647568,7254.018232,7328.038826,0.000000
520.647889,5181.441594,8808.450710,-1532.190996
520.648209,4663.297435,9326.594869,-3370.820191
520.648530,6883.915261,7105.977043,-1685.410096
520.648851,7328.038826,5625.565159,612.876398
520.649171,6069.688724,6217.729913,1685.410096
520.649492,4959.379811,7920.203579,459.657299
520.649812,3775.050304,9326.594869,-2145.067394
520.650133,4441.235652,8882.471304,-2604.724693
520.650454,4811.338623,7105.977043,-383.047749
520.650774,5773.606348,7254.018232,1685.410096
520.651095,4885.359217,8438.347739,2145.067394
520.651416,2368.659014,9918.759623,383.047749
520.651736,2590.720797,9030.512492,-1762.019645
520.652057,3552.988522,7402.059420,-306.438199
520.652377,4663.297435,6439.791695,1532.190996
520.652698,4663.297435,7105.977043,2068.457845
520.653019,4737.318029,9178.553681,383.047749
520.653339,4219.173869,9770.718434,-1838.629195
520.653660,4885.359217,9178.553681,-1838.629195
520.653980,5625.565159,6957.935855,0.000000
520.654301,6513.812290,6735.874072,2298.286494
520.654622,6587.832884,7920.203579,1762.019645
520.654942,5329.482782,8956.491898,-306.438199
520.655263,5699.585753,9548.656652,-2451.505594
520.655583,6069.688724,7994.224174,-1762.019645
520.655904,6365.771101,6291.750507,76.609550
520.656225,7105.977043,5255.462188,1762.019645
520.656545,6513.812290,7328.038826,153.219100
520.656866,5033.400406,9918.759623,-1455.581446
520.657187,4219.173869,9178.553681,-2145.067394
520.657507,5255.462188,6883.915261,-766.095498
520.657828,7031.956449,6809.894666,1838.629195
520.658148,5921.647536,7550.100608,1991.848295
520.658469,3552.988522,9104.533087,-306.438199
520.658790,3034.844362,9400.615463,-2681.334243
520.659110,3256.906145,8808.450710,-1378.971896
520.659431,4737.318029,7550.100608,1149.143247
520.659751,5329.482782,7698.141797,1915.238745
520.660072,3923.091493,9696.697840,0.000000
520.660393,2072.576638,11547.212695,-1685.410096
520.660713,1924.535449,10584.944971,-689.485948
520.661034,3478.967927,7254.018232,689.485948
520.661354,4959.379811,6069.688724,2911.162892
520.661675,5107.421000,8068.244768,2451.505594
520.661996,3182.885551,9770.718434,-1072.533697
520.662316,2368.659014,9178.553681,-2528.115143
520.662637,4737.318029,7550.100608,-612.876398
520.662958,6291.750507,7105.977043,1532.190996
520.663278,5181.441594,7031.956449,1072.533697
520.663599,5403.503377,7698.141797,-995.924147
520.663919,5773.606348,8882.471304,-2068.457845
520.664240,5699.585753,8216.285956,-842.705048
520.664561,6957.935855,5551.544565,1149.143247
520.664881,7920.203579,5403.503377,1225.752797
520.665202,6957.935855,7846.182985,-689.485948
520.665522,5551.544565,9918.759623,-2298.286494
520.665843,5477.523971,8216.285956,-3064.381992
520.666164,6883.915261,5773.606348,-1915.238745
520.666484,6365.771101,5329.482782,842.705048
520.666805,5107.421000,7105.977043,1378.971896
520.667125,4737.318029,9548.656652,-612.876398
520.667446,3997.112087,10732.986159,-1838.629195
520.667767,4219.173869,8512.368333,-1302.362347
520.668087,5107.421000,7254.018232,1225.752797
520.668408,3923.091493,7402.059420,2528.115143
520.668729,2220.617826,8956.491898,1455.581446
520.669049,2738.761985,10066.800811,0.000000
520.669370,2960.823768,8882.471304,-842.705048
520.669690,3256.906145,7031.956449,612.876398
520.670011,4145.153275,6513.812290,2451.505594
520.670332,4441.235652,8882.471304,1302.362347
520.670652,3034.844362,10807.006753,-766.095498
520.670973,2812.782580,10584.944971,-1685.410096
520.671293,5403.503377,8216.285956,-1072.533697
520.671614,5181.441594,6735.874072,1225.752797
520.671935,5181.441594,7105.977043,2068.457845
520.672255,4589.276840,8364.327145,153.219100
520.672576,3775.050304,9548.656652,-2221.676944
520.672896,5625.565159,8734.430116,-1762.019645
520.673217,7031.956449,6661.853478,-689.485948
520.673538,7402.059420,6439.791695,306.438199
520.673858,6883.915261,8290.306550,383.047749
520.674179,5403.503377,9400.615463,-689.485948
520.674500,5033.400406,8586.388927,-1455.581446
520.674820,5847.626942,5699.585753,-383.047749
520.675141,6439.791695,5181.441594,1149.143247
520.675461,6291.750507,7105.977043,689.485948
520.675782,4145.153275,9548.656652,-1378.971896
520.676103,3775.050304,10066.800811,-3370.820191
520.676423,4589.276840,9104.533087,-2145.067394
520.676744,5329.482782,6957.935855,1762.019645
520.677064,5107.421000,7624.121203,3600.648841
520.677385,3256.906145,8956.491898,1455.581446
520.677706,2738.761985,9918.759623,-995.924147
520.678026,3849.070898,10140.821405,-1532.190996
520.678347,4885.359217,7105.977043,306.438199
520.678667,5477.523971,5995.668130,1762.019645
520.678988,5551.544565,7994.224174,1608.800546
520.679309,3701.029710,9252.574275,-1072.533697
520.679629,3849.070898,8956.491898,-2221.676944
520.679950,5403.503377,8216.285956,-1685.410096
520.680271,5921.647536,6291.750507,612.876398
520.680591,6365.771101,7550.100608,1991.848295
520.680912,5181.441594,8734.430116,612.876398
520.681232,4515.256246,9178.553681,-1608.800546
520.681553,5773.606348,8512.368333,-1378.971896
520.681874,6661.853478,6513.812290,-459.657299
520.682194,7254.018232,5255.462188,229.828649
520.682515,7031.956449,6809.894666,153.219100
520.682835,5551.544565,8586.388927,-995.924147
520.683156,5255.462188,9104.533087,-1991.848295
520.683477,5181.441594,7328.038826,-1225.752797
520.683797,6513.812290,5403.503377,0.000000
520.684118,7328.038826,6291.750507,766.095498
520.684439,4959.379811,8512.368333,459.657299
520.684759,3256.906145,9770.718434,-2374.896044
520.685080,3775.050304,8882.471304,-1532.190996
520.685400,5033.400406,6957.935855,842.705048
520.685721,5921.647536,7031.956449,2604.724693
520.686042,5181.441594,8512.368333,1685.410096
520.686362,2812.782580,10436.903782,-1991.848295
520.686683,2220.617826,11103.089130,-2298.286494
520.687003,3478.967927,7846.182985,536.266849
520.687324,5255.462188,6069.688724,2987.772442
520.687645,5329.482782,6883.915261,3064.381992
520.687965,2590.720797,8438.347739,-995.924147
520.688286,2368.659014,10288.862594,-3524.039291
520.688606,4219.173869,9400.615463,-1991.848295
520.688927,5921.647536,7698.141797,612.876398
520.689248,7920.203579,7179.997637,2451.505594
520.689568,5329.482782,8142.265362,536.266849
520.689889,4145.153275,9474.636058,-1378.971896
520.690210,5181.441594,9178.553681,-1225.752797
520.690530,5477.523971,7105.977043,-306.438199
520.690851,6439.791695,5107.421000,383.047749
520.691171,7105.977043,7105.977043,383.047749
520.691492,5255.462188,9696.697840,-766.095498
520.691813,4811.338623,10066.800811,-1302.362347
520.692133,6069.688724,7920.203579,-766.095498
520.692454,5699.585753,5773.606348,-459.657299
520.692774,4737.318029,6439.791695,919.314598
520.693095,4441.235652,8068.244768,1532.190996
520.693416,3997.112087,9844.739029,-1225.752797
520.693736,4811.338623,9104.533087,-1149.143247
520.694057,4811.338623,6957.935855,-153.219100
520.694377,5107.421000,6291.750507,229.828649
520.694698,4293.194464,7994.224174,1302.362347
520.695019,2812.782580,10436.903782,459.657299
520.695339,3627.009116,10584.944971,-995.924147
520.695660,4959.379811,8068.244768,-383.047749
520.695981,5107.421000,6957.935855,612.876398
520.696301,4589.276840,7476.080014,1149.143247
520.696622,3849.070898,9252.574275,153.219100
520.696942,2960.823768,10140.821405,-1532.190996
520.697263,4145.153275,8364.327145,-995.924147
520.697584,5773.606348,6809.894666,689.485948
520.697904,5625.565159,6735.874072,842.705048
520.698225,5107.421000,7624.121203,0.000000
520.698545,3997.112087,9622.677246,-766.095498
520.698866,4663.297435,9178.553681,-1149.143247
520.699187,5255.462188,6809.894666,0.000000
520.699507,6439.791695,6291.750507,689.485948
520.699828,5773.606348,7550.100608,383.047749
520.700148,4737.318029,9474.636058,-842.705048
520.700469,5107.421000,9252.574275,-1915.238745
520.700790,6143.709319,7402.059420,-1149.143247
520.701110,6587.832884,5033.400406,459.657299
520.701431,5773.606348,5181.441594,1072.533697
520.701752,5477.523971,7402.059420,383.047749
520.702072,3849.070898,9992.780217,-1378.971896
520.702393,5033.400406,9474.636058,-2145.067394
520.702713,7105.977043,7105.977043,-1072.533697
520.703034,6735.874072,6661.853478,689.485948
520.703355,5255.462188,7698.141797,2374.896044
520.703675,4145.153275,10066.800811,383.047749
520.703996,3182.885551,9992.780217,-2068.457845
520.704316,4589.276840,7698.141797,-1378.971896
520.704637,7328.038826,6291.750507,1149.143247
520.704958,6069.688724,7031.956449,1225.752797
520.705278,3775.050304,8512.368333,76.609550
520.705599,3849.070898,9474.636058,-1378.971896
520.705919,5255.462188,8512.368333,-1685.410096
520.706240,5847.626942,6439.791695,0.000000
520.706561,6439.791695,5995.668130,1225.752797
520.706881,5403.503377,7105.977043,-536.266849
520.707202,3923.091493,9400.615463,-995.924147
520.707523,4441.235652,9770.718434,-1072.533697
520.707843,6069.688724,8586.388927,-842.705048
520.708164,7105.977043,6365.771101,76.609550
520.708484,5773.606348,6513.812290,-536.266849
520.708805,5477.523971,8882.471304,-1455.581446
520.709126,4663.297435,9622.677246,-1149.143247
520.709446,4737.318029,8734.430116,-1149.143247
520.709767,5625.565159,6143.709319,-689.485948
520.710087,5699.585753,6143.709319,306.438199
520.710408,4811.338623,8438.347739,459.657299
520.710729,3404.947333,9770.718434,-383.047749
520.711049,3849.070898,8734.430116,-1915.238745
520.711370,4885.359217,6957.935855,-1302.362347
520.711691,5477.523971,7031.956449,766.095498
520.712011,5181.441594,8660.409521,1685.410096
520.712332,3997.112087,9992.780217,0.000000
520.712652,4219.173869,9918.759623,-1608.800546
520.712973,5255.462188,9030.512492,-1455.581446
520.713294,5255.462188,7254.018232,383.047749
520.713614,5329.482782,7550.100608,2298.286494
520.713935,5403.503377,8586.388927,1378.971896
520.714255,5255.462188,9844.739029,-766.095498
520.714576,4441.235652,7772.162391,-1838.629195
520.714897,4737.318029,5033.400406,-1225.752797
520.715217,6513.812290,5403.503377,1072.533697
520.715538,5551.544565,7698.141797,1685.410096
520.715858,3552.988522,8882.471304,153.219100
520.716179,6069.688724,9696.697840,-2145.067394
520.716500,6143.709319,7920.203579,-2068.457845
520.716820,5773.606348,7031.956449,76.609550
520.717141,6365.771101,7402.059420,1072.533697
520.717462,5403.503377,8882.471304,0.000000
520.717782,3627.009116,8734.430116,-1762.019645
520.718103,4441.235652,9178.553681,-1685.410096
520.718423,4737.318029,7550.100608,-766.095498
520.718744,4737.318029,7179.997637,689.485948
520.719065,3701.029710,8142.265362,1378.971896
520.719385,3182.885551,9622.677246,-1072.533697
520.719706,3552.988522,9770.718434,-1838.629195
520.720026,3775.050304,7920.203579,-689.485948
520.720347,4293.194464,7254.018232,766.095498
520.720668,4885.359217,8882.471304,2681.334243
520.720988,2960.823768,10584.944971,1378.971896
520.721309,2738.761985,10881.027347,-1149.143247
520.721629,3923.091493,8734.430116,-689.485948
520.721950,4811.338623,6957.935855,995.924147
520.722271,5773.606348,6291.750507,2374.896044
520.722591,5033.400406,6513.812290,766.095498
520.722912,4145.153275,7846.182985,-1762.019645
520.723233,4589.276840,8512.368333,-2451.505594
520.723553,5403.503377,7550.100608,-459.657299
520.723874,7105.977043,6439.791695,1455.581446
520.724194,6883.915261,7328.038826,1455.581446
520.724515,5995.668130,9400.615463,-995.924147
520.724836,5181.441594,9844.739029,-2681.334243
520.725156,5181.441594,8068.244768,-2451.505594
520.725477,6439.791695,6661.853478,-459.657299
520.725797,7179.997637,6513.812290,1072.533697
520.726118,6735.874072,7920.203579,1225.752797
520.726439,4885.359217,8068.244768,-2451.505594
520.726759,3997.112087,7031.956449,-2451.505594
520.727080,5329.482782,6735.874072,536.266849
520.727400,5921.647536,6069.688724,2374.896044
520.727721,5181.441594,6809.894666,1302.362347
520.728042,6809.894666,8364.327145,-1149.143247
520.728362,5033.400406,9326.594869,-2604.724693
520.728683,3849.070898,7772.162391,-2145.067394
520.729004,6069.688724,6587.832884,842.705048
520.729324,6587.832884,6513.812290,2528.115143
520.729645,4885.359217,8660.409521,459.657299
520.729965,5329.482782,10214.842000,-995.924147
520.730286,4071.132681,9918.759623,-2757.943793
520.730607,4811.338623,8364.327145,-1072.533697
520.730927,5625.565159,7105.977043,2145.067394
520.731248,6069.688724,7624.121203,1991.848295
520.731568,5033.400406,9030.512492,459.657299
520.731889,3034.844362,8290.306550,-1762.019645
520.732210,3923.091493,7254.018232,-2221.676944
520.732530,4515.256246,7105.977043,229.828649
520.732851,4219.173869,7402.059420,1072.533697
520.733171,5329.482782,9030.512492,0.000000
520.733492,5181.441594,9918.759623,-1225.752797
520.733813,3701.029710,10510.924376,-1225.752797
520.734133,4959.379811,7994.224174,306.438199
520.734454,5107.421000,7254.018232,536.266849
520.734775,4737.318029,9474.636058,-919.314598
520.735095,3849.070898,9992.780217,-1302.362347
520.735416,5033.400406,9992.780217,-1762.019645
520.735736,5477.523971,8142.265362,0.000000
520.736057,4071.132681,6143.709319,1608.800546
520.736378,4145.153275,6587.832884,842.705048
520.736698,3701.029710,9030.512492,-612.876398
520.737019,3034.844362,10362.883188,-536.266849
520.737339,5255.462188,8956.491898,0.000000
520.737660,6069.688724,7328.038826,383.047749
520.737981,5329.482782,7254.018232,919.314598
520.738301,3701.029710,8734.430116,306.438199
520.738622,3256.906145,9992.780217,-1149.143247
520.738943,4737.318029,9252.574275,-1608.800546
520.739263,4663.297435,7179.997637,153.219100
520.739584,5255.462188,6513.812290,1149.143247
520.739904,5329.482782,8512.368333,689.485948
520.740225,3182.885551,10584.944971,-306.438199
520.740546,2960.823768,9400.615463,-2068.457845
520.740866,4959.379811,6735.874072,-536.266849
520.741187,5181.441594,6143.709319,1378.971896
520.741507,4663.297435,7328.038826,2145.067394
520.741828,4663.297435,9178.553681,612.876398
520.742149,4293.194464,9992.780217,-1608.800546
520.742469,4737.318029,7994.224174,-1225.752797
520.742790,6513.812290,5551.544565,919.314598
520.743110,6809.894666,5033.400406,1532.190996
520.743431,5329.482782,7031.956449,306.438199
520.743752,4589.276840,8734.430116,-995.924147
520.744072,5033.400406,8290.306550,-2221.676944
520.744393,6957.935855,5625.565159,-383.047749
520.744714,7920.203579,4589.276840,1302.362347
520.745034,6661.853478,6957.935855,1378.971896
520.745355,5329.482782,8882.471304,-612.876398
520.745675,4367.215058,9548.656652,-2681.334243
520.745996,6735.874072,8068.244768,-2145.067394
520.746317,7550.100608,5921.647536,306.438199
520.746637,6957.935855,5551.544565,1302.362347
520.746958,4959.379811,8290.306550,459.657299
520.747279,3775.050304,10955.047942,-1762.019645
520.747599,2738.761985,9992.780217,-2604.724693
520.747920,4811.338623,7105.977043,-459.657299
520.748240,6513.812290,6513.812290,2221.676944
520.748561,4663.297435,8216.285956,2451.505594
520.748882,2516.700203,10140.821405,1072.533697
520.749202,2516.700203,10288.862594,-459.657299
520.749523,3627.009116,8290.306550,-612.876398
520.749843,4737.318029,7254.018232,1225.752797
520.750164,4959.379811,7698.141797,1378.971896
520.750485,4219.173869,9474.636058,-536.266849
520.750805,3404.947333,11251.130318,-1915.238745
520.751126,3923.091493,9474.636058,-1991.848295
520.751447,5255.462188,7179.997637,0.000000
520.751767,5847.626942,6661.853478,1838.629195
520.752088,4959.379811,9030.512492,842.705048
520.752408,4441.235652,11621.233289,-689.485948
520.752729,3997.112087,9992.780217,-2374.896044
520.753050,4959.379811,6957.935855,-1915.238745
520.753370,6439.791695,5255.462188,919.314598
520.753691,6587.832884,6587.832884,2298.286494
520.754011,4737.318029,8956.491898,459.657299
520.754332,4663.297435,8808.450710,-2374.896044
520.754653,4589.276840,8364.327145,-2757.943793
520.754973,5847.626942,7920.203579,0.000000
520.755294,6143.709319,7550.100608,1608.800546
520.755615,6439.791695,8734.430116,536.266849
520.755935,4737.318029,9474.636058,-1915.238745
520.756256,4219.173869,8586.388927,-2451.505594
520.756576,3923.091493,6439.791695,-1302.362347
520.756897,4737.318029,6291.750507,1149.143247
520.757218,5699.585753,7698.141797,2374.896044
520.757538,5255.462188,9696.697840,766.095498
520.757859,3997.112087,10214.842000,-1072.533697
520.758180,4663.297435,8068.244768,-1072.533697
520.758500,4737.318029,5921.647536,995.924147
520.758821,5477.523971,5847.626942,2451.505594
520.759141,4737.318029,6957.935855,1302.362347
520.759462,5255.462188,7994.224174,-919.314598
520.759783,5921.647536,7698.141797,-1838.629195
520.760103,6069.688724,6587.832884,-383.047749
520.760424,6217.729913,6809.894666,919.314598
520.760744,6217.729913,8068.244768,459.657299
520.761065,5107.421000,8512.368333,-766.095498
520.761386,6365.771101,8364.327145,-1685.410096
520.761706,6439.791695,7254.018232,-1072.533697
520.762027,6809.894666,6957.935855,766.095498
520.762348,6809.894666,6883.915261,1225.752797
520.762668,6217.729913,8882.471304,-612.876398
520.762989,5403.503377,10066.800811,-2145.067394
520.763309,5255.462188,9178.553681,-1915.238745
520.763630,5033.400406,7402.059420,229.828649
520.763951,4959.379811,6143.709319,1608.800546
520.764271,3108.864956,6661.853478,1378.971896
520.764592,2664.741391,8438.347739,0.000000
520.764913,3330.926739,9178.553681,-1072.533697
520.765233,3775.050304,8882.471304,-536.266849
520.765554,4145.153275,7846.182985,995.924147
520.765874,4811.338623,9178.553681,1762.019645
520.766195,4737.318029,10140.821405,383.047749
520.766516,3478.967927,10658.965565,-612.876398
520.766836,3923.091493,8660.409521,-1072.533697
520.767157,4663.297435,7920.203579,459.657299
520.767477,4071.132681,7624.121203,2145.067394
520.767798,4071.132681,8290.306550,153.219100
520.768119,5033.400406,9548.656652,-1991.848295
520.768439,4515.256246,9474.636058,-2834.553343
520.768760,4293.194464,6809.894666,-995.924147
520.769081,5625.565159,5403.503377,1838.629195
520.769401,5477.523971,6735.874072,1685.410096
520.769722,4219.173869,8734.430116,306.438199
520.770042,4367.215058,10288.862594,-1762.019645
520.770363,5033.400406,9030.512492,-2911.162892
520.770684,6217.729913,7624.121203,-536.266849
520.771004,7328.038826,7402.059420,1302.362347
520.771325,6291.750507,8734.430116,0.000000
520.771645,4219.173869,9474.636058,-2451.505594
520.771966,4071.132681,8290.306550,-2298.286494
520.772287,5403.503377,6439.791695,-1072.533697
520.772607,5995.668130,6143.709319,1072.533697
520.772928,5329.482782,7994.224174,1149.143247
520.773249,3997.112087,9992.780217,-459.657299
520.773569,2886.803174,9844.739029,-1378.971896
520.773890,3627.009116,7698.141797,0.000000
520.774210,4959.379811,6439.791695,2145.067394
520.774531,5477.523971,7476.080014,3217.601092
520.774852,3923.091493,9992.780217,76.609550
520.775172,4441.235652,11177.109724,-1838.629195
520.775493,5255.462188,9622.677246,-1532.190996
520.775814,6143.709319,7179.997637,919.314598
520.776134,7031.956449,6069.688724,2681.334243
520.776455,5625.565159,6513.812290,612.876398
520.776775,4219.173869,8142.265362,-1685.410096
520.777096,5255.462188,7402.059420,-1991.848295
520.777417,7031.956449,5921.647536,-766.095498
520.777737,8216.285956,4441.235652,1225.752797
520.778058,7328.038826,5773.606348,919.314598
520.778378,5995.668130,8216.285956,-1608.800546
520.778699,5329.482782,9400.615463,-2757.943793
520.779020,6217.729913,8512.368333,-1838.629195
520.779340,7994.224174,7550.100608,459.657299
520.779661,7994.224174,7105.977043,1685.410096
520.779982,5699.585753,8438.347739,766.095498
520.780302,4663.297435,8882.471304,-1532.190996
520.780623,3923.091493,8512.368333,-1838.629195
520.780943,4293.194464,6217.729913,-306.438199
520.781264,5107.421000,4441.235652,1378.971896
520.781585,5181.441594,5995.668130,995.924147
520.781905,3404.947333,9474.636058,0.000000
520.782226,2146.597232,11177.109724,-1072.533697
520.782547,2664.741391,9474.636058,-612.876398
520.782867,4589.276840,7994.224174,1762.019645
520.783188,5255.462188,8142.265362,3600.648841
520.783508,4589.276840,9918.759623,1302.362347
520.783829,3478.967927,10881.027347,-2298.286494
520.784150,2886.803174,10214.842000,-2451.505594
520.784470,4663.297435,8068.244768,-459.657299
520.784791,5921.647536,6661.853478,2221.676944
520.785111,5699.585753,6291.750507,1762.019645
520.785432,4663.297435,7920.203579,-229.828649
520.785753,3627.009116,8216.285956,-1915.238745
520.786073,4367.215058,6809.894666,-1302.362347
520.786394,6587.832884,5773.606348,842.705048
520.786715,7402.059420,6957.935855,1378.971896
520.787035,6291.750507,8882.471304,-995.924147
520.787356,5699.585753,10807.006753,-3217.601092
520.787676,4293.194464,9770.718434,-3524.039291
520.787997,5181.441594,7624.121203,-689.485948
520.788318,6661.853478,7402.059420,1838.629195
520.788638,5847.626942,9844.739029,1302.362347
520.788959,3552.988522,11103.089130,-1225.752797
520.789279,3627.009116,9770.718434,-2145.067394
520.789600,3849.070898,6809.894666,-1225.752797
520.789921,4219.173869,4737.318029,1455.581446
520.790241,4589.276840,5403.503377,2374.896044
520.790562,4219.173869,8216.285956,995.924147
520.790883,3182.885551,9992.780217,-919.314598
520.791203,3997.112087,10140.821405,-689.485948
520.791524,5921.647536,8068.244768,153.219100
520.791844,5773.606348,7846.182985,766.095498
520.792165,5255.462188,8808.450710,536.266849
520.792486,5255.462188,10881.027347,-1072.533697
520.792806,4515.256246,10510.924376,-1991.848295
520.793127,4293.194464,7624.121203,-766.095498
520.793448,6809.894666,6217.729913,766.095498
520.793768,5773.606348,6809.894666,153.219100
520.794089,3997.112087,8142.265362,-842.705048
520.794409,5403.503377,7994.224174,-1838.629195
520.794730,6291.750507,6217.729913,0.000000
520.795051,6735.874072,3997.112087,1225.752797
520.795371,7550.100608,5255.462188,1838.629195
520.795692,6143.709319,8882.471304,-842.705048
520.796012,4515.256246,11251.130318,-3294.210641
520.796333,5329.482782,10362.883188,-2451.505594
520.796654,7402.059420,7624.121203,-383.047749
520.796974,8586.388927,6217.729913,2145.067394
520.797295,5403.503377,6513.812290,1685.410096
520.797616,3330.926739,8068.244768,-1915.238745
520.797936,3034.844362,9696.697840,-2451.505594
520.798257,3404.947333,8734.430116,229.828649
520.798577,5699.585753,5403.503377,2528.115143
520.798898,7920.203579,5551.544565,3140.991542
520.799219,4663.297435,8734.430116,536.266849
520.799539,2368.659014,9992.780217,-2757.943793
520.799860,2960.823768,8512.368333,-1762.019645
520.800181,5107.421000,6291.750507,766.095498
520.800501,5995.668130,5921.647536,3217.601092
520.800822,6143.709319,8808.450710,1838.629195
520.801142,4145.153275,11029.068536,-2451.505594
520.801463,3034.844362,11029.068536,-3064.381992
520.801784,4959.379811,7105.977043,-1072.533697
520.802104,7402.059420,4811.338623,1225.752797
520.802425,7179.997637,5699.585753,2451.505594
520.802745,4737.318029,7994.224174,229.828649
520.803066,4589.276840,9474.636058,-2604.724693
520.803387,5329.482782,8660.409521,-1915.238745
520.803707,6957.935855,6809.894666,612.876398
520.804028,7550.100608,5921.647536,2374.896044
520.804349,5625.565159,7772.162391,842.705048
520.804669,3034.844362,10362.883188,-1915.238745
520.804990,2294.638420,10066.800811,-2528.115143
520.805310,4515.256246,7550.100608,-919.314598
520.805631,6069.688724,5921.647536,1685.410096
520.805952,5551.544565,7846.182985,1838.629195
520.806272,4663.297435,10436.903782,0.000000
520.806593,2812.782580,11325.150913,-1608.800546
520.806913,2812.782580,9622.677246,-995.924147
520.807234,4367.215058,6439.791695,1608.800546
520.807555,5625.565159,5551.544565,2451.505594
520.807875,4959.379811,8290.306550,1532.190996
520.808196,2960.823768,10510.924376,-995.924147
520.808517,2590.720797,10362.883188,-2604.724693
520.808837,4145.153275,9030.512492,-842.705048
520.809158,5699.585753,7031.956449,1915.238745
520.809478,6217.729913,7550.100608,2374.896044
520.809799,5403.503377,8660.409521,-383.047749
520.810120,4367.215058,9622.677246,-2221.676944
520.810440,4515.256246,7624.121203,-1072.533697
520.810761,6365.771101,5403.503377,995.924147
520.811082,8290.306550,5107.421000,1991.848295
520.811402,6957.935855,7328.038826,0.000000
520.811723,4737.318029,8660.409521,-3217.601092
520.812043,4885.359217,7550.100608,-3294.210641
520.812364,6809.894666,6439.791695,-689.485948
520.812685,8142.265362,6587.832884,1532.190996
520.813005,7550.100608,8512.368333,0.000000
520.813326,5329.482782,10881.027347,-2451.505594
520.813646,3034.844362,10140.821405,-3140.991542
520.813967,3108.864956,7105.977043,-766.095498
520.814288,5033.400406,5181.441594,2221.676944
520.814608,4885.359217,6735.874072,2757.943793
520.814929,3034.844362,8068.244768,-76.609550
520.815250,2960.823768,9400.615463,-2987.772442
520.815570,3701.029710,8364.327145,-2451.505594
520.815891,4071.132681,6809.894666,536.266849
520.816211,5699.585753,7402.059420,2757.943793
520.816532,5255.462188,9474.636058,1532.190996
520.816853,4293.194464,11473.192101,-842.705048
520.817173,4737.318029,10658.965565,-1225.752797
520.817494,4293.194464,8142.265362,-536.266849
520.817814,5181.441594,6291.750507,766.095498
520.818135,5625.565159,8438.347739,1149.143247
520.818456,4663.297435,9474.636058,-766.095498
520.818776,5477.523971,8808.450710,-2221.676944
520.819097,6735.874072,6513.812290,-1149.143247
520.819418,6217.729913,4737.318029,842.705048
520.819738,5181.441594,5699.585753,1532.190996
520.820059,5699.585753,9104.533087,612.876398
520.820379,6217.729913,10140.821405,-1762.019645
520.820700,6513.812290,8660.409521,-1532.190996
520.821021,6957.935855,7402.059420,-306.438199
520.821341,5847.626942,7105.977043,0.000000
520.821662,3552.988522,8586.388927,-383.047749
520.821983,3997.112087,10066.800811,-2068.457845
520.822303,4071.132681,9844.739029,-1991.848295
520.822624,4663.297435,7179.997637,0.000000
520.822944,4589.276840,6883.915261,1915.238745
520.823265,3478.967927,8068.244768,1455.581446
520.823586,2294.638420,9918.759623,-229.828649
520.823906,2738.761985,10658.965565,-1302.362347
520.824227,3849.070898,8956.491898,-1072.533697
520.824547,4589.276840,7624.121203,1915.238745
520.824868,2886.803174,7994.224174,2834.553343
520.825189,2516.700203,9548.656652,1072.533697
520.825509,1924.535449,10658.965565,-306.438199
520.825830,2664.741391,9622.677246,-766.095498
520.826151,5107.421000,7772.162391,306.438199
520.826471,5403.503377,6735.874072,1685.410096
520.826792,5107.421000,8142.265362,1225.752797
520.827112,4293.194464,9770.718434,-459.657299
520.827433,3775.050304,8882.471304,-2604.724693
520.827754,5995.668130,6069.688724,-1378.971896
520.828074,7772.162391,4367.215058,1532.190996
520.828395,7031.956449,4737.318029,1838.629195
520.828716,5847.626942,7920.203579,-459.657299
520.829036,4811.338623,9918.759623,-3370.820191
520.829357,5625.565159,9178.553681,-3294.210641
520.829677,8956.491898,6661.853478,76.609550
520.829998,9030.512492,4737.318029,1991.848295
520.830319,6809.894666,5551.544565,536.266849
520.830639,4219.173869,8586.388927,-1608.800546
520.830960,3997.112087,9400.615463,-2757.943793
520.831280,4589.276840,7105.977043,-689.485948
520.831601,8068.244768,4663.297435,1991.848295
520.831922,7994.224174,5329.482782,2528.115143
520.832242,4589.276840,8142.265362,-459.657299
520.832563,2146.597232,9548.656652,-2451.505594
520.832884,3108.864956,9252.574275,-1685.410096
520.833204,4737.318029,6809.894666,842.705048
520.833525,5995.668130,7179.997637,3524.039291
520.833845,5255.462188,9918.759623,1685.410096
520.834166,2442.679609,12435.459826,-1838.629195
520.834487,1998.556043,11917.315666,-2068.457845
520.834807,3552.988522,8364.327145,-306.438199
520.835128,5995.668130,5995.668130,2451.505594
520.835448,5329.482782,5921.647536,3217.601092
520.835769,4145.153275,8882.471304,76.609550
520.836090,2590.720797,10436.903782,-2068.457845
520.836410,3627.009116,8216.285956,-1685.410096
520.836731,6069.688724,5625.565159,0.000000
520.837052,8216.285956,5255.462188,1915.238745
520.837372,7105.977043,9252.574275,536.266849
520.837693,4663.297435,11029.068536,-2911.162892
520.838013,5033.400406,10288.862594,-4060.306139
520.838334,6735.874072,8290.306550,-1991.848295
520.838655,7476.080014,7624.121203,1608.800546
520.838975,7550.100608,8142.265362,1302.362347
520.839296,5625.565159,9770.718434,-1302.362347
520.839617,4737.318029,10214.842000,-1915.238745
520.839937,3330.926739,6809.894666,-536.266849
520.840258,4885.359217,3701.029710,995.924147
520.840578,5329.482782,5033.400406,2451.505594
520.840899,4589.276840,9104.533087,1455.581446
520.841220,2368.659014,11843.295072,-1608.800546
520.841540,3478.967927,9696.697840,-2298.286494
520.841861,4589.276840,7105.977043,0.000000
520.842181,4663.297435,7031.956449,3064.381992
520.842502,4737.318029,8586.388927,2451.505594
520.842823,3256.906145,10584.944971,-1072.533697
520.843143,2812.782580,10214.842000,-2834.553343
520.843464,4589.276840,8142.265362,-766.095498
520.843785,4959.379811,5847.626942,1762.019645
520.844105,5329.482782,6809.894666,1838.629195
520.844426,4737.318029,9030.512492,229.828649
520.844746,4219.173869,9622.677246,-2451.505594
520.845067,5329.482782,8068.244768,-1762.019645
520.845388,5921.647536,5551.544565,1072.533697
520.845708,7031.956449,5033.400406,2374.896044
520.846029,6217.729913,7031.956449,2145.067394
520.846350,5403.503377,9326.594869,-1149.143247
520.846670,4737.318029,8660.409521,-2451.505594
520.846991,6217.729913,6217.729913,-1302.362347
520.847312,7254.018232,6069.688724,612.876398
520.847632,6809.894666,6513.812290,995.924147
520.847953,5847.626942,7772.162391,-1072.533697
520.848274,5847.626942,9104.533087,-2987.772442
520.848594,5107.421000,8808.450710,-1302.362347
520.848915,5181.441594,6439.791695,1302.362347
520.849235,5847.626942,6587.832884,2298.286494
520.849556,5255.462188,8882.471304,995.924147
520.849877,3256.906145,10140.821405,-536.266849
520.850197,2886.803174,8660.409521,-1532.190996
520.850518,3552.988522,6291.750507,0.000000
520.850839,4219.173869,6661.853478,2681.334243
520.851159,3849.070898,8512.368333,2451.505594
520.851480,3034.844362,10658.965565,-1302.362347
520.851801,3478.967927,11473.192101,-2298.286494
520.852121,4441.235652,9326.594869,-612.876398
520.852442,5033.400406,5847.626942,2221.676944
520.852763,5181.441594,5403.503377,2604.724693
520.853083,5033.400406,9400.615463,383.047749
520.853404,2590.720797,11103.089130,-2987.772442
520.853724,3775.050304,9326.594869,-3753.867940
520.854045,7550.100608,7254.018232,-1072.533697
520.854366,7846.182985,6661.853478,1838.629195
520.854686,6513.812290,8290.306550,1685.410096
520.855007,4663.297435,9770.718434,-1532.190996
520.855328,3923.091493,9104.533087,-3600.648841
520.855648,5551.544565,7031.956449,-1149.143247
520.855969,7550.100608,5847.626942,1762.019645
520.856290,6439.791695,6883.915261,766.095498
520.856610,4959.379811,9326.594869,-1608.800546
520.856931,3478.967927,9918.759623,-2987.772442
520.857252,4441.235652,8142.265362,-1149.143247
520.857572,5255.462188,5699.585753,1991.848295
520.857893,5477.523971,6217.729913,2221.676944
520.858214,5255.462188,9548.656652,0.000000
520.858534,2294.638420,12065.356855,-3064.381992
520.858855,2442.679609,10288.862594,-2834.553343
520.859175,4885.359217,7698.141797,153.219100
520.859496,5995.668130,7402.059420,2834.553343
520.859817,3552.988522,8882.471304,2757.943793
520.860137,1924.535449,9326.594869,-842.705048
520.860458,2072.576638,9622.677246,-2987.772442
520.860779,3404.947333,8512.368333,-306.438199
520.861099,4959.379811,6439.791695,3064.381992
520.861420,6957.935855,7031.956449,2834.553343
520.861741,6217.729913,9326.594869,153.219100
520.862061,4663.297435,9992.780217,-2221.676944
520.862382,4737.318029,7105.977043,-2604.724693
520.862703,7031.956449,4219.173869,383.047749
520.863023,8364.327145,4737.318029,2451.505594
520.863344,8734.430116,7624.121203,1608.800546
520.863664,7254.018232,9474.636058,-2374.896044
520.863985,6365.771101,8808.450710,-4673.182538
520.864306,6587.832884,6661.853478,-2374.896044
520.864626,7624.121203,5181.441594,1455.581446
520.864947,7624.121203,4959.379811,2451.505594
520.865268,6365.771101,7550.100608,459.657299
520.865588,4959.379811,9474.636058,-1991.848295
520.865909,3849.070898,8956.491898,-1991.848295
520.866230,4441.235652,6069.688724,306.438199
520.866550,5625.565159,5699.585753,1685.410096
520.866871,5477.523971,7105.977043,1532.190996
520.867192,3775.050304,9252.574275,-766.095498
520.867512,1924.535449,9104.533087,-2374.896044
520.867833,2516.700203,7402.059420,-306.438199
520.868154,4663.297435,6439.791695,2451.505594
520.868474,5107.421000,7550.100608,2451.505594
520.868795,4737.318029,10214.842000,-306.438199
520.869115,3552.988522,11547.212695,-2911.162892
520.869436,3478.967927,9844.739029,-2451.505594
520.869757,4959.379811,6809.894666,1302.362347
520.870077,5847.626942,6291.750507,2911.162892
520.870398,5773.606348,7994.224174,995.924147
520.870719,3478.967927,9474.636058,-2451.505594
520.871039,3034.844362,9326.594869,-2604.724693
520.871360,5255.462188,7179.997637,76.609550
520.871681,6735.874072,6587.832884,3064.381992
520.872001,6809.894666,7476.080014,1915.238745
520.872322,6365.771101,9474.636058,-1991.848295
520.872643,5255.462188,9992.780217,-3907.087040
520.872963,4737.318029,7476.080014,-2221.676944
520.873284,5995.668130,5403.503377,1455.581446
520.873604,6883.915261,7402.059420,1991.848295
520.873925,4589.276840,10362.883188,-383.047749
520.874246,3923.091493,11029.068536,-3217.601092
520.874566,5107.421000,10066.800811,-3524.039291
520.874887,3997.112087,7476.080014,-306.438199
520.875208,3997.112087,5921.647536,2451.505594
520.875528,4145.153275,8290.306550,2221.676944
520.875849,2590.720797,10362.883188,-459.657299
520.876170,2442.679609,11695.253884,-1225.752797
520.876490,3404.947333,9326.594869,-306.438199
520.876811,2812.782580,6513.812290,1072.533697
520.877132,3552.988522,7476.080014,2681.334243
520.877452,3552.988522,9474.636058,995.924147
520.877773,3404.947333,9696.697840,-1838.629195
520.878093,4145.153275,7846.182985,-1608.800546
520.878414,5625.565159,6365.771101,-229.828649
520.878735,6365.771101,7328.038826,1455.581446
520.879055,5625.565159,9178.553681,919.314598
520.879376,6217.729913,10658.965565,-2068.457845
520.879697,6217.729913,8882.471304,-2604.724693
520.880017,5921.647536,6513.812290,-612.876398
520.880338,7105.977043,4737.318029,1685.410096
520.880659,7179.997637,5477.523971,842.705048
520.880979,6439.791695,8586.388927,-1685.410096
520.881300,5403.503377,9474.636058,-3294.210641
520.881621,5329.482782,7254.018232,-2451.505594
520.881941,6661.853478,5107.421000,689.485948
520.882262,7179.997637,5107.421000,2911.162892
520.882583,5773.606348,7994.224174,1608.800546
520.882903,4219.173869,9178.553681,-2298.286494
520.883224,3997.112087,8142.265362,-3064.381992
520.883544,5847.626942,6365.771101,0.000000
520.883865,7031.956449,6957.935855,3217.601092
520.884186,5551.544565,7698.141797,1915.238745
520.884506,4293.194464,9178.553681,-1915.238745
520.884827,4367.215058,9400.615463,-3524.039291
520.885148,3701.029710,7105.977043,-306.438199
520.885468,4737.318029,4737.318029,2451.505594
520.885789,5921.647536,5995.668130,2451.505594
520.886110,4959.379811,9844.739029,0.000000
520.886430,4293.194464,11991.336260,-2451.505594
520.886751,5033.400406,10584.944971,-2374.896044
520.887072,5551.544565,7179.997637,-229.828649
520.887392,6439.791695,6291.750507,2987.772442
520.887713,4737.318029,7254.018232,2987.772442
520.888033,4071.132681,9326.594869,-995.924147
520.888354,4071.132681,9474.636058,-2757.943793
520.888675,4737.318029,7772.162391,-1149.143247
520.888995,5921.647536,6069.688724,1302.362347
520.889316,5773.606348,6883.915261,2451.505594
520.889637,4515.256246,8882.471304,-306.438199
520.889957,4367.215058,9844.739029,-2681.334243
520.890278,4663.297435,8364.327145,-2221.676944
520.890599,5477.523971,7105.977043,0.000000
520.890919,5847.626942,6143.709319,1838.629195
520.891240,5107.421000,8512.368333,383.047749
520.891561,4219.173869,11695.253884,-2451.505594
520.891881,3775.050304,10658.965565,-2604.724693
520.892202,4811.338623,8290.306550,-995.924147
520.892523,5255.462188,6957.935855,1072.533697
520.892843,3775.050304,7105.977043,1455.581446
520.893164,2368.659014,8586.388927,-383.047749
520.893484,2368.659014,9400.615463,-2068.457845
520.893805,2960.823768,9326.594869,-842.705048
520.894126,3478.967927,7624.121203,1532.190996
520.894446,3997.112087,7550.100608,1838.629195
520.894767,5255.462188,9844.739029,-153.219100
520.895088,4515.256246,11473.192101,-766.095498
520.895408,2590.720797,9474.636058,-1762.019645
520.895729,4071.132681,6365.771101,-536.266849
520.896050,5921.647536,6439.791695,1302.362347
520.896370,4737.318029,8808.450710,1685.410096
520.896691,4737.318029,10584.944971,-1302.362347
520.897012,5255.462188,9918.759623,-3983.696590
520.897332,5033.400406,7772.162391,-2451.505594
520.897653,6217.729913,5477.523971,2374.896044
520.897973,6587.832884,5477.523971,4290.134789
520.898294,5995.668130,7476.080014,1072.533697
520.898615,4885.359217,9696.697840,-2145.067394
520.898935,4811.338623,9178.553681,-3140.991542
520.899256,5773.606348,6217.729913,-2221.676944
520.899577,7328.038826,4959.379811,1915.238745
520.899897,7994.224174,6735.874072,1762.019645
520.900218,6439.791695,9104.533087,-689.485948
520.900539,4219.173869,8882.471304,-3370.820191
520.900859,4959.379811,7624.121203,-2911.162892
520.901180,7105.977043,7402.059420,536.266849
520.901501,7031.956449,7031.956449,2681.334243
520.901821,6661.853478,8142.265362,536.266849
520.902142,5847.626942,9104.533087,-2068.457845
520.902463,3775.050304,8216.285956,-1838.629195
520.902783,3627.009116,5477.523971,153.219100
520.903104,4959.379811,4145.153275,2145.067394
520.903424,4885.359217,6883.915261,1455.581446
520.903745,4219.173869,10436.903782,-842.705048
520.904066,3627.009116,11251.130318,-2528.115143
520.904386,4737.318029,9992.780217,-842.705048
520.904707,5551.544565,7402.059420,2451.505594
520.905028,5699.585753,6661.853478,2911.162892
520.905348,3997.112087,8216.285956,383.047749
520.905669,2516.700203,9844.739029,-2374.896044
520.905990,2960.823768,10140.821405,-1915.238745
520.906310,4663.297435,7550.100608,612.876398
520.906631,6365.771101,5995.668130,2221.676944
520.906952,6217.729913,7624.121203,1072.533697
520.907272,3923.091493,9622.677246,-2145.067394
520.907593,2738.761985,9474.636058,-3447.429741
520.907913,3701.029710,6957.935855,-1072.533697
520.908234,6069.688724,5477.523971,2374.896044
520.908555,6809.894666,7031.956449,2681.334243
520.908875,5329.482782,10214.842000,-536.266849
520.909196,3627.009116,11991.336260,-4596.572988
520.909517,3256.906145,9844.739029,-3370.820191
520.909837,5699.585753,6957.935855,612.876398
520.910158,7105.977043,6513.812290,2528.115143
520.910479,6439.791695,8216.285956,842.705048
520.910799,3552.988522,9622.677246,-2068.457845
520.911120,2590.720797,8956.491898,-2757.943793
520.911441,4293.194464,6587.832884,383.047749
520.911761,6143.709319,6661.853478,3753.867940
520.912082,5995.668130,9326.594869,2681.334243
520.912403,4219.173869,11843.295072,-1072.533697
520.912723,2812.782580,11103.089130,-3217.601092
520.913044,3404.947333,7920.203579,-1149.143247
520.913364,4885.359217,4663.297435,2451.505594
520.913685,5181.441594,5847.626942,3370.820191
520.914006,4219.173869,9474.636058,306.438199
520.914326,3108.864956,11843.295072,-2834.553343
520.914647,3701.029710,10066.800811,-2451.505594
520.914968,7624.121203,7624.121203,1532.190996
520.915288,7550.100608,5477.523971,3447.429741
520.915609,5329.482782,5033.400406,1532.190996
520.915930,4589.276840,8216.285956,-2145.067394
520.916250,3404.947333,9844.739029,-3447.429741
520.916571,4145.153275,7476.080014,-842.705048
520.916892,8068.244768,5033.400406,919.314598
520.917212,7698.141797,6735.874072,153.219100
520.917533,4737.318029,9252.574275,-1838.629195
520.917853,3552.988522,9770.718434,-2451.505594
520.918174,4811.338623,7328.038826,-1302.362347
520.918495,6809.894666,5255.462188,1455.581446
520.918815,7328.038826,5551.544565,2987.772442
520.919136,5773.606348,8216.285956,-612.876398
520.919457,4071.132681,10955.047942,-3370.820191
520.919777,3404.947333,10140.821405,-1915.238745
520.920098,5699.585753,6365.771101,536.266849
520.920419,7254.018232,4441.235652,2604.724693
520.920739,4515.256246,5847.626942,1455.581446
520.921060,3330.926739,9548.656652,-2298.286494
520.921381,3108.864956,11103.089130,-2911.162892
520.921701,3552.988522,9548.656652,-842.705048
520.922022,6883.915261,6587.832884,2221.676944
520.922343,7254.018232,6291.750507,3447.429741
520.922663,5033.400406,9548.656652,766.095498
520.922984,1924.535449,10807.006753,-1378.971896
520.923304,2590.720797,9178.553681,-2145.067394
520.923625,5995.668130,6291.750507,229.828649
520.923946,6809.894666,5477.523971,3064.381992
520.924266,6069.688724,8216.285956,1685.410096
520.924587,5107.421000,11029.068536,-1378.971896
520.924908,3256.906145,10807.006753,-3140.991542
520.925228,4145.153275,6809.894666,-1378.971896
520.925549,6143.709319,3923.091493,1302.362347
520.925870,7105.977043,5847.626942,2298.286494
520.926190,5329.482782,10140.821405,459.657299
520.926511,3256.906145,11917.315666,-2987.772442
520.926832,4441.235652,9474.636058,-2911.162892
520.927152,6439.791695,6587.832884,-612.876398
520.927473,6809.894666,6365.771101,1915.238745
520.927793,5551.544565,9178.553681,1225.752797
520.928114,2664.741391,11177.109724,-1685.410096
520.928435,2590.720797,10881.027347,-2145.067394
520.928755,3108.864956,7254.018232,689.485948
520.929076,4293.194464,5181.441594,3753.867940
520.929397,5181.441594,7105.977043,3983.696590
520.929717,3108.864956,10658.965565,76.609550
520.930038,1776.494261,11029.068536,-2911.162892
520.930359,4293.194464,8586.388927,-2221.676944
520.930679,5625.565159,5107.421000,612.876398
520.931000,6069.688724,4737.318029,2834.553343
520.931321,6439.791695,7698.141797,1072.533697
520.931641,4441.235652,10955.047942,-2298.286494
520.931962,4441.235652,10658.965565,-3140.991542
520.932282,6365.771101,7402.059420,-689.485948
520.932603,8364.327145,6069.688724,1915.238745
520.932924,7994.224174,7772.162391,2528.115143
520.933244,5403.503377,8586.388927,0.000000
520.933565,3701.029710,7402.059420,-3983.696590
520.933886,4515.256246,4811.338623,-2451.505594
520.934206,5403.503377,3478.967927,2068.457845
520.934527,6661.853478,4811.338623,3140.991542
520.934848,6735.874072,8142.265362,612.876398
520.935168,6217.729913,10584.944971,-3217.601092
520.935489,4959.379811,9548.656652,-3907.087040
520.935810,5181.441594,5921.647536,-995.924147
520.936130,7105.977043,5847.626942,2604.724693
520.936451,5921.647536,7550.100608,2145.067394
520.936772,3923.091493,9696.697840,-1608.800546
520.937092,4663.297435,10214.842000,-3600.648841
520.937413,3775.050304,8808.450710,-1532.190996
520.937733,4737.318029,6809.894666,2068.457845
520.938054,5625.565159,6513.812290,3983.696590
520.938375,4811.338623,7772.162391,766.095498
520.938695,3330.926739,9622.677246,-1915.238745
520.939016,3404.947333,9770.718434,-1762.019645
520.939337,3404.947333,7105.977043,-153.219100
520.939657,4811.338623,6883.915261,2145.067394
520.939978,5107.421000,8882.471304,3294.210641
520.940299,4145.153275,11473.192101,-1378.971896
520.940619,3775.050304,10658.965565,-2298.286494
520.940940,4293.194464,8438.347739,-1225.752797
520.941261,7031.956449,6957.935855,306.438199
520.941581,6883.915261,7624.121203,1225.752797
520.941902,5403.503377,9474.636058,-1532.190996
520.942222,5329.482782,10066.800811,-3064.381992
520.942543,5773.606348,7772.162391,-1149.143247
520.942864,6809.894666,5403.503377,2298.286494
520.943184,8290.306550,4515.256246,3370.820191
520.943505,6587.832884,6809.894666,995.924147
520.943826,5773.606348,9474.636058,-2451.505594
520.944146,6513.812290,7846.182985,-1915.238745
520.944467,9104.533087,5033.400406,766.095498
520.944788,10362.883188,3108.864956,3217.601092
520.945108,9178.553681,2812.782580,2145.067394
520.945429,7698.141797,5773.606348,-1915.238745
520.945750,7254.018232,7402.059420,-4060.306139
520.946071,8660.409521,5551.544565,-1762.019645
520.946391,12287.418637,3627.009116,612.876398
520.946712,12509.480420,3478.967927,2298.286494
520.947033,9696.697840,6217.729913,-536.266849
520.947353,7624.121203,7994.224174,-4213.525239
520.947674,7105.977043,6661.853478,-3907.087040
520.947995,8438.347739,3849.070898,76.609550
520.948315,9548.656652,2664.741391,3447.429741
520.948636,9178.553681,4589.276840,2451.505594
520.948957,7031.956449,7846.182985,-1378.971896
520.949278,6069.688724,8586.388927,-3524.039291
520.949598,7105.977043,6069.688724,-1608.800546
520.949919,9030.512492,4145.153275,2298.286494
520.950240,10214.842000,4293.194464,3294.210641
520.950560,8734.430116,6513.812290,1225.752797
520.950881,6957.935855,7624.121203,-1991.848295
520.951202,7105.977043,6069.688724,-1991.848295
520.951522,8956.491898,3404.947333,766.095498
520.951843,11769.274478,2220.617826,3064.381992
520.952164,11251.130318,3552.988522,1762.019645
520.952485,10214.842000,5329.482782,-1762.019645
520.952805,10732.986159,5477.523971,-3064.381992
520.953126,12139.377449,4367.215058,-1302.362347
520.953447,13841.851115,3182.885551,995.924147
520.953767,14285.974681,4589.276840,1302.362347
520.954088,11917.315666,5773.606348,-689.485948
520.954409,9992.780217,6661.853478,-2451.505594
520.954729,10288.862594,5477.523971,-1302.362347
520.955050,9844.739029,4663.297435,-383.047749
520.955371,9400.615463,5107.421000,766.095498
520.955691,8290.306550,6513.812290,612.876398
520.956012,5995.668130,7105.977043,-842.705048
520.956333,4811.338623,5995.668130,-842.705048
520.956654,6069.688724,5625.565159,76.609550
520.956974,7624.121203,7402.059420,1455.581446
520.957295,6661.853478,9030.512492,1762.019645
520.957616,5921.647536,9474.636058,0.000000
520.957936,6217.729913,8364.327145,-306.438199
520.958257,6513.812290,7105.977043,1532.190996
520.958578,6365.771101,5329.482782,2145.067394
520.958898,7624.121203,4367.215058,383.047749
520.959219,9844.739029,5773.606348,-766.095498
520.959540,9178.553681,6513.812290,-1149.143247
520.959861,9992.780217,5107.421000,0.000000
520.960181,11843.295072,4071.132681,1532.190996
520.960502,11917.315666,3552.988522,2451.505594
520.960823,11251.130318,2664.741391,612.876398
520.961143,12509.480420,2220.617826,-2298.286494
520.961464,12731.542202,2442.679609,-3753.867940
520.961785,13323.706956,4737.318029,-1915.238745
520.962105,13545.768739,6513.812290,-306.438199
520.962426,12731.542202,6809.894666,-1991.848295
520.962747,11029.068536,5847.626942,-1915.238745
520.963068,9178.553681,4515.256246,-1149.143247
520.963388,7402.059420,3478.967927,229.828649
520.963709,6735.874072,2960.823768,919.314598
520.964030,6883.915261,4293.194464,536.266849
520.964350,7402.059420,6587.832884,0.000000
520.964671,6883.915261,7846.182985,-919.314598
520.964992,6365.771101,7994.224174,-383.047749
520.965312,5551.544565,7402.059420,0.000000
520.965633,5477.523971,6587.832884,1149.143247
520.965954,6217.729913,5551.544565,1838.629195
520.966275,6735.874072,5921.647536,1149.143247
520.966595,7402.059420,6587.832884,0.000000
520.966916,8438.347739,6883.915261,76.609550
520.967237,9400.615463,6957.935855,306.438199
520.967557,10658.965565,6957.935855,0.000000
520.967878,11473.192101,6291.750507,76.609550
520.968199,11547.212695,5107.421000,0.000000
520.968519,11547.212695,3775.050304,229.828649
520.968840,11473.192101,2812.782580,842.705048
520.969161,10510.924376,2960.823768,383.047749
520.969482,11177.109724,3775.050304,-536.266849
520.969802,11103.089130,5329.482782,-1762.019645
520.970123,11399.171507,6439.791695,-2068.457845
520.970444,11473.192101,7105.977043,-1991.848295
520.970764,10881.027347,7105.977043,-766.095498
520.971085,9326.594869,6069.688724,306.438199
520.971406,7698.141797,5181.441594,1072.533697
520.971726,7105.977043,5181.441594,1072.533697
520.972047,6365.771101,5699.585753,383.047749
520.972368,6439.791695,6069.688724,-383.047749
520.972688,7179.997637,5847.626942,-766.095498
520.973009,7624.121203,5625.565159,-1378.971896
520.973330,7624.121203,4737.318029,-229.828649
520.973651,7698.141797,4737.318029,383.047749
520.973971,7624.121203,5107.421000,1149.143247
520.974292,7698.141797,5403.503377,1072.533697
520.974613,8808.450710,5255.462188,536.266849
520.974933,10362.883188,5107.421000,-153.219100
520.975254,11325.150913,6143.709319,-1072.533697
520.975575,11103.089130,6957.935855,-842.705048
520.975895,10807.006753,7254.018232,-1608.800546
520.976216,11473.192101,7105.977043,-2068.457845
520.976537,11251.130318,6069.688724,-842.705048
520.976858,10881.027347,5181.441594,0.000000
520.977178,9844.739029,3849.070898,842.705048
520.977499,9252.574275,2368.659014,1149.143247
520.977820,9474.636058,1184.329507,1532.190996
520.978140,9918.759623,1628.453072,689.485948
520.978461,9770.718434,2664.741391,0.000000
520.978782,10214.842000,4367.215058,-1608.800546
520.979102,10584.944971,6217.729913,-2374.896044
520.979423,10955.047942,7105.977043,-1991.848295
520.979744,11177.109724,7402.059420,-1838.629195
520.980065,10955.047942,8142.265362,-1149.143247
520.980385,10214.842000,8290.306550,-459.657299
520.980706,8956.491898,7624.121203,612.876398
520.981027,8142.265362,6291.750507,995.924147
520.981347,7846.182985,5107.421000,2451.505594
520.981668,7179.997637,4071.132681,2451.505594
520.981989,7328.038826,3997.112087,2221.676944
520.982309,6883.915261,4293.194464,1685.410096
520.982630,7476.080014,3849.070898,306.438199
520.982951,8290.306550,3552.988522,153.219100
520.983272,9104.533087,4515.256246,76.609550
520.983592,9992.780217,6439.791695,0.000000
520.983913,10881.027347,7920.203579,-689.485948
520.984234,11399.171507,8734.430116,-1149.143247
520.984554,11695.253884,8216.285956,-689.485948
520.984875,11251.130318,7328.038826,-153.219100
520.985196,10436.903782,5847.626942,76.609550
520.985516,9400.615463,4959.379811,0.000000
520.985837,9400.615463,3330.926739,-306.438199
520.986158,9474.636058,2368.659014,-383.047749
520.986479,9918.759623,2220.617826,306.438199
520.986799,9918.759623,3404.947333,689.485948
520.987120,9474.636058,5921.647536,383.047749
520.987441,9104.533087,7179.997637,536.266849
520.987761,8882.471304,7624.121203,689.485948
520.988082,7994.224174,7254.018232,995.924147
520.988403,6957.935855,7105.977043,1378.971896
520.988723,5477.523971,6957.935855,0.000000
520.989044,4219.173869,7105.977043,-612.876398
520.989365,4293.194464,7031.956449,-1149.143247
520.989685,5181.441594,6883.915261,-995.924147
520.990006,4885.359217,7772.162391,-229.828649
520.990327,4737.318029,9030.512492,1072.533697
520.990648,4959.379811,10140.821405,2374.896044
520.990968,5699.585753,10140.821405,2987.772442
520.991289,6365.771101,9696.697840,4826.401637
520.991610,6439.791695,8290.306550,3983.696590
520.991930,5625.565159,7328.038826,3217.601092
520.992251,5181.441594,7179.997637,3370.820191
520.992572,5625.565159,7772.162391,2911.162892
520.992892,7031.956449,9178.553681,3064.381992
520.993213,7624.121203,9918.759623,3370.820191
520.993534,7624.121203,9252.574275,3677.258390
520.993855,7031.956449,8512.368333,4826.401637
520.994175,7105.977043,7550.100608,5286.058936
520.994496,6957.935855,7179.997637,4979.620737
520.994817,7328.038826,7476.080014,4060.306139
520.995137,7624.121203,8216.285956,3907.087040
520.995458,7328.038826,9030.512492,4136.915689
520.995779,7772.162391,9400.615463,5515.887586
520.996099,7624.121203,9548.656652,7277.907231
520.996420,6661.853478,9178.553681,7354.516781
520.996741,6217.729913,7920.203579,7354.516781
520.997062,5625.565159,7105.977043,7201.297681
520.997382,5477.523971,5773.606348,7354.516781
520.997703,4959.379811,5033.400406,7660.954980
520.998024,5477.523971,5699.585753,7354.516781
520.998344,5329.482782,7328.038826,6818.249932
520.998665,5551.544565,8290.306550,6665.030833
520.998986,5107.421000,8068.244768,6588.421283
520.999306,5551.544565,7402.059420,7354.516781
520.999627,4959.379811,6957.935855,8273.831378
520.999948,4145.153275,6513.812290,7890.783629
521.000269,3997.112087,6143.709319,7431.126331
521.000589,3552.988522,6069.688724,7201.297681
521.000910,3330.926739,5773.606348,6588.421283
521.001231,3478.967927,5551.544565,6281.983084
521.001551,2886.803174,5625.565159,6435.202183
521.001872,3034.844362,5551.544565,6435.202183
521.002193,3478.967927,6069.688724,7354.516781
521.002513,3849.070898,6439.791695,7201.297681
521.002834,3478.967927,6735.874072,7201.297681
521.003155,4071.132681,7031.956449,7201.297681
521.003476,4145.153275,6883.915261,6128.763984
521.003796,4293.194464,6143.709319,5132.839837
521.004117,4071.132681,5625.565159,5132.839837
521.004438,4071.132681,4885.359217,4213.525239
521.004758,3627.009116,4589.276840,4366.744339
521.005079,3404.947333,4737.318029,3447.429741
521.005400,3404.947333,5773.606348,2604.724693
521.005720,4589.276840,7328.038826,2528.115143
521.006041,4885.359217,8512.368333,3064.381992
521.006362,5625.565159,9548.656652,3907.087040
521.006682,5847.626942,10214.842000,3677.258390
521.007003,5921.647536,10807.006753,2987.772442
521.007324,6291.750507,10584.944971,4213.525239
521.007645,5699.585753,10955.047942,6128.763984
521.007965,4959.379811,10510.924376,6511.811733
521.008286,4441.235652,9770.718434,6741.640382
521.008607,3923.091493,8142.265362,6588.421283
521.008927,2812.782580,5403.503377,5515.887586
521.009248,2368.659014,2442.679609,3753.867940
521.009569,2960.823768,1480.411884,1608.800546
521.009889,4515.256246,3404.947333,-229.828649
521.010210,6439.791695,7846.182985,-1149.143247
521.010531,8586.388927,12287.418637,-2221.676944
521.010852,11177.109724,17024.736666,-2834.553343
521.011172,11399.171507,18949.272115,-1378.971896
521.011493,11399.171507,18431.127956,1149.143247
521.011814,9696.697840,15618.345376,3217.601092
521.012134,7624.121203,11547.212695,4979.620737
521.012455,6069.688724,7994.224174,6511.811733
521.012776,4737.318029,6513.812290,7737.564530
521.013096,1332.370696,5403.503377,6052.154434
521.013417,296.082377,6069.688724,4213.525239
521.013738,1554.432478,5699.585753,3294.210641
521.014059,2664.741391,4663.297435,3753.867940
521.014379,4441.235652,5403.503377,3907.087040
521.014700,6809.894666,8586.388927,4136.915689
521.015021,6883.915261,12805.562797,2451.505594
521.015341,6365.771101,16210.510130,1838.629195
521.015662,7402.059420,16580.613101,1685.410096
521.015983,9844.739029,15766.386565,2221.676944
521.016303,7994.224174,12953.603985,3753.867940
521.016624,4663.297435,7624.121203,5132.839837
521.016945,5181.441594,4589.276840,6741.640382
521.017266,2590.720797,3404.947333,7277.907231
521.017586,1406.391290,5477.523971,5592.497135
521.017907,3627.009116,6809.894666,4213.525239
521.018228,5773.606348,7254.018232,4979.620737
521.018548,4589.276840,5921.647536,7048.078582
521.018869,5773.606348,5847.626942,10035.851024
521.019190,6365.771101,8068.244768,10495.508323
521.019510,4367.215058,11325.150913,7967.393179
521.019831,2368.659014,11547.212695,4903.011187
521.020152,3849.070898,9326.594869,2987.772442
521.020473,5329.482782,7105.977043,4136.915689
521.020793,4367.215058,5181.441594,8427.050478
521.021114,5107.421000,7105.977043,10648.727422
521.021435,962.267725,8586.388927,7890.783629
521.021755,518.144159,8956.491898,4903.011187
521.022076,1776.494261,6513.812290,5669.106685
521.022397,3552.988522,2960.823768,6894.859482
521.022717,3552.988522,1258.350101,8656.879127
521.023038,5921.647536,4219.173869,9346.365076
521.023359,5403.503377,7476.080014,6128.763984
521.023679,3404.947333,9992.780217,4749.792088
521.024000,3775.050304,8142.265362,5362.668486
521.024321,4885.359217,5699.585753,6205.373534
521.024642,3701.029710,4811.338623,7737.564530
521.024962,2886.803174,4737.318029,9269.755526
521.025283,5329.482782,7179.997637,9039.926876
521.025604,3552.988522,9622.677246,7737.564530
521.025924,2590.720797,11547.212695,5362.668486
521.026245,4145.153275,10214.842000,3217.601092
521.026566,5181.441594,8808.450710,2987.772442
521.026886,2294.638420,4737.318029,5209.449386
521.027207,3627.009116,2072.576638,7354.516781
521.027528,5995.668130,3997.112087,8273.831378
521.027849,4145.153275,6957.935855,7201.297681
521.028169,1036.288319,6069.688724,3677.258390
521.028490,4145.153275,7624.121203,2834.553343
521.028811,5625.565159,10807.006753,4826.401637
521.029131,4441.235652,11991.336260,6588.421283
521.029452,6735.874072,10288.862594,5286.058936
521.029773,8068.244768,9400.615463,2528.115143
521.030093,4663.297435,8216.285956,229.828649
521.030414,3256.906145,5625.565159,689.485948
521.030735,6809.894666,6291.750507,1455.581446
521.031056,6365.771101,8882.471304,3753.867940
521.031376,5255.462188,11325.150913,5209.449386
521.031697,6883.915261,12287.418637,4136.915689
521.032018,7402.059420,11547.212695,1838.629195
521.032338,4737.318029,10288.862594,2221.676944
521.032659,4663.297435,8586.388927,3064.381992
521.032980,5477.523971,7105.977043,2987.772442
521.033300,3330.926739,7031.956449,2374.896044
521.033621,3849.070898,7772.162391,3064.381992
521.033942,5773.606348,9696.697840,1608.800546
521.034263,5107.421000,11029.068536,-306.438199
521.034583,4515.256246,12065.356855,76.609550
521.034904,5625.565159,11251.130318,842.705048
521.035225,6661.853478,9474.636058,2451.505594
521.035545,5551.544565,8808.450710,3600.648841
521.035866,4071.132681,8142.265362,1915.238745
521.036187,3775.050304,7994.224174,-995.924147
521.036507,5329.482782,8660.409521,-1991.848295
521.036828,5847.626942,8808.450710,-306.438199
521.037149,5773.606348,7328.038826,1378.971896
521.037470,6735.874072,7920.203579,1608.800546
521.037790,5995.668130,9400.615463,1532.190996
521.038111,3775.050304,8734.430116,383.047749
521.038432,5107.421000,7476.080014,229.828649
521.038752,6661.853478,7105.977043,612.876398
521.039073,6143.709319,7994.224174,1838.629195
521.039394,6439.791695,9178.553681,1991.848295
521.039714,5551.544565,9400.615463,-383.047749
521.040035,3182.885551,8068.244768,-766.095498
521.040356,3108.864956,7624.121203,1149.143247
521.040676,4145.153275,7328.038826,1685.410096
521.040997,3701.029710,7550.100608,1532.190996
521.041318,2960.823768,8142.265362,1302.362347
521.041639,3034.844362,8586.388927,0.000000
521.041959,2664.741391,7772.162391,-766.095498
521.042280,2442.679609,6291.750507,76.609550
521.042601,4959.379811,6957.935855,383.047749
521.042921,5995.668130,9104.533087,1072.533697
521.043242,5181.441594,10214.842000,919.314598
521.043563,4811.338623,10436.903782,-383.047749
521.043883,4737.318029,9622.677246,0.000000
521.044203,4589.276840,8512.368333,3907.087040
521.044524,5995.668130,7105.977043,4903.011187
521.044845,6365.771101,6513.812290,2451.505594
521.045165,3627.009116,6587.832884,-306.438199
521.045486,3108.864956,5847.626942,-689.485948
521.045807,4811.338623,4737.318029,1072.533697
521.046127,5699.585753,5551.544565,2298.286494
521.046448,6735.874072,6809.894666,1455.581446
521.046769,6143.709319,8438.347739,-1991.848295
521.047090,4589.276840,9474.636058,-2221.676944
521.047410,4737.318029,9178.553681,1608.800546
521.047731,5551.544565,8068.244768,3830.477490
521.048052,7476.080014,8142.265362,1608.800546
521.048372,6291.750507,8956.491898,-919.314598
521.048693,3701.029710,8882.471304,-2451.505594
521.049014,3478.967927,7772.162391,-1532.190996
521.049334,4737.318029,5921.647536,2528.115143
521.049655,4737.318029,5329.482782,2757.943793
521.049976,5107.421000,6513.812290,842.705048
521.050297,3552.988522,9178.553681,-1302.362347
521.050617,2590.720797,10510.924376,-919.314598
521.050938,4367.215058,8882.471304,689.485948
521.051259,5773.606348,7994.224174,1685.410096
521.051579,5477.523971,8512.368333,1532.190996
521.051900,5033.400406,10214.842000,229.828649
521.052221,3701.029710,11177.109724,-1149.143247
521.052541,1702.473667,8660.409521,-1302.362347
521.052862,3108.864956,7105.977043,612.876398
521.053183,5255.462188,7031.956449,2145.067394
521.053504,4737.318029,7920.203579,1302.362347
521.053824,4737.318029,9770.718434,-459.657299
521.054145,3849.070898,9474.636058,-1762.019645
521.054466,1924.535449,5847.626942,-1991.848295
521.054786,3849.070898,3330.926739,306.438199
521.055107,7846.182985,5107.421000,1072.533697
521.055428,7772.162391,8364.327145,-1762.019645
521.055748,5995.668130,9992.780217,-4673.182538
521.056069,6069.688724,10436.903782,-4903.011187
521.056390,7031.956449,9474.636058,-919.314598
521.056710,7920.203579,8364.327145,2298.286494
521.057031,8364.327145,8956.491898,76.609550
521.057352,5921.647536,9326.594869,-4060.306139
521.057673,2960.823768,7994.224174,-3677.258390
521.057993,4293.194464,5625.565159,-612.876398
521.058314,6365.771101,3923.091493,995.924147
521.058635,5921.647536,6143.709319,0.000000
521.058955,5033.400406,9474.636058,-3064.381992
521.059276,3034.844362,10510.924376,-4826.401637
521.059597,3256.906145,9030.512492,-2145.067394
521.059917,5995.668130,7402.059420,1991.848295
521.060238,6365.771101,6809.894666,2604.724693
521.060559,5107.421000,9030.512492,-229.828649
521.060880,4071.132681,11695.253884,-4136.915689
521.061200,2738.761985,10807.006753,-4596.572988
521.061521,3849.070898,7105.977043,-2145.067394
521.061842,6513.812290,4367.215058,612.876398
521.062162,7624.121203,6661.853478,383.047749
521.062483,5699.585753,10584.944971,-1302.362347
521.062804,3552.988522,11621.233289,-3907.087040
521.063124,4737.318029,9992.780217,-3217.601092
521.063445,6291.750507,6883.915261,1225.752797
521.063766,7920.203579,6069.688724,3294.210641
521.064087,6809.894666,7179.997637,0.000000
521.064407,4293.194464,8216.285956,-4060.306139
521.064728,3923.091493,7476.080014,-4519.963438
521.065049,5403.503377,6217.729913,-2451.505594
521.065369,6365.771101,6069.688724,842.705048
521.065690,7105.977043,8734.430116,536.266849
521.066011,7105.977043,11991.336260,-2757.943793
521.066331,4959.379811,11547.212695,-3600.648841
521.066652,4515.256246,8882.471304,-842.705048
521.066973,6661.853478,6809.894666,2298.286494
521.067294,6809.894666,6735.874072,1762.019645
521.067614,4663.297435,7994.224174,-459.657299
521.067935,3552.988522,9326.594869,-2757.943793
521.068256,3478.967927,8512.368333,-1915.238745
521.068576,4219.173869,6587.832884,2834.553343
521.068897,5403.503377,4811.338623,4673.182538
521.069218,5033.400406,7254.018232,536.266849
521.069538,3478.967927,9622.677246,-2528.115143
521.069859,3404.947333,9548.656652,-2528.115143
521.070180,5181.441594,7550.100608,0.000000
521.070501,6735.874072,6809.894666,2451.505594
521.070821,6809.894666,8216.285956,2451.505594
521.071142,5847.626942,10658.965565,-536.266849
521.071463,3627.009116,10732.986159,-2757.943793
521.071783,2590.720797,7105.977043,-1532.190996
521.072104,4441.235652,4145.153275,1225.752797
521.072425,5847.626942,4367.215058,3524.039291
521.072745,4737.318029,6883.915261,1225.752797
521.073066,3849.070898,9474.636058,-2757.943793
521.073387,3552.988522,9178.553681,-3294.210641
521.073707,4293.194464,6069.688724,0.000000
521.074028,6735.874072,4441.235652,3064.381992
521.074349,7328.038826,5921.647536,1991.848295
521.074670,4737.318029,9474.636058,-1608.800546
521.074990,3330.926739,10436.903782,-3447.429741
521.075311,5329.482782,8808.450710,-1302.362347
521.075632,7105.977043,7624.121203,2221.676944
521.075952,6957.935855,7624.121203,3064.381992
521.076273,5403.503377,8660.409521,0.000000
521.076594,3849.070898,8660.409521,-2757.943793
521.076914,2960.823768,6809.894666,-766.095498
521.077235,4737.318029,4071.132681,1991.848295
521.077556,6365.771101,3182.885551,2834.553343
521.077877,6069.688724,5995.668130,383.047749
521.078197,4737.318029,9622.677246,-2911.162892
521.078518,3997.112087,9918.759623,-3677.258390
521.078839,5329.482782,7402.059420,-1991.848295
521.079159,7328.038826,5921.647536,766.095498
521.079480,7328.038826,7402.059420,1608.800546
521.079801,6735.874072,9992.780217,-1532.190996
521.080121,4737.318029,11621.233289,-5439.278036
521.080442,3923.091493,9770.718434,-4979.620737
521.080763,5107.421000,6735.874072,-536.266849
521.081084,7402.059420,4811.338623,2451.505594
521.081404,6587.832884,6735.874072,306.438199
521.081725,2960.823768,7920.203579,-3677.258390
521.082046,2072.576638,6735.874072,-6205.373534
521.082366,3997.112087,6735.874072,-3064.381992
521.082687,5255.462188,6365.771101,1072.533697
521.083008,7105.977043,8660.409521,1762.019645
521.083328,7698.141797,11917.315666,-2528.115143
521.083649,4441.235652,12213.398043,-5592.497135
521.083970,2590.720797,9178.553681,-2987.772442
521.084291,5551.544565,7031.956449,459.657299
521.084611,6661.853478,8142.265362,1072.533697
521.084932,3997.112087,10140.821405,-1608.800546
521.085253,4071.132681,11843.295072,-5132.839837
521.085573,4589.276840,10658.965565,-4136.915689
521.085894,3923.091493,7550.100608,766.095498
521.086215,5847.626942,5329.482782,2145.067394
521.086535,6217.729913,6809.894666,-306.438199
521.086856,3923.091493,10214.842000,-3753.867940
521.087177,4367.215058,11621.233289,-2451.505594
521.087498,6883.915261,9918.759623,-1225.752797
521.087818,7402.059420,7772.162391,612.876398
521.088139,7328.038826,9104.533087,1991.848295
521.088460,5995.668130,10732.986159,-459.657299
521.088780,4367.215058,10584.944971,-3370.820191
521.089101,4145.153275,9030.512492,-2374.896044
521.089422,5403.503377,6365.771101,383.047749
521.089742,6735.874072,4737.318029,2451.505594
521.090063,5995.668130,6809.894666,1225.752797
521.090384,5033.400406,10658.965565,-1991.848295
521.090704,4737.318029,11547.212695,-3064.381992
521.091025,4663.297435,8364.327145,-919.314598
521.091346,6069.688724,5921.647536,3140.991542
521.091667,6735.874072,6513.812290,4903.011187
521.091987,5699.585753,8586.388927,1608.800546
521.092308,3404.947333,9326.594869,-2451.505594
521.092629,2886.803174,7994.224174,-1991.848295
521.092949,5181.441594,6587.832884,2604.724693
521.093270,6143.709319,6069.688724,4903.011187
521.093591,4293.194464,6217.729913,2451.505594
521.093911,3552.988522,7994.224174,-612.876398
521.094232,3256.906145,8142.265362,-1532.190996
521.094553,2516.700203,5847.626942,306.438199
521.094874,4663.297435,4145.153275,2604.724693
521.095194,7254.018232,5625.565159,1685.410096
521.095515,5773.606348,8956.491898,-229.828649
521.095836,3627.009116,11103.089130,-1532.190996
521.096156,4515.256246,9474.636058,-612.876398
