#time,accel_x,accel_y,accel_z
541.316643,5033.400406,8142.265362,0.000000
541.316964,5033.400406,7920.203579,-153.219100
541.317284,4811.338623,7994.224174,0.000000
541.317605,5107.421000,8068.244768,0.000000
541.317926,4959.379811,7846.182985,-229.828649
541.318247,5255.462188,8216.285956,-383.047749
541.318567,5033.400406,8142.265362,0.000000
541.318888,5255.462188,7920.203579,383.047749
541.319209,4959.379811,8068.244768,-306.438199
541.319529,5107.421000,7846.182985,0.000000
541.319850,4885.359217,8216.285956,-229.828649
541.320171,5107.421000,8216.285956,-153.219100
541.320492,5255.462188,8068.244768,0.000000
541.320812,5181.441594,7994.224174,-229.828649
541.321133,5033.400406,8068.244768,-76.609550
541.321454,4885.359217,8068.244768,-229.828649
541.321774,4959.379811,7994.224174,0.000000
541.322095,4811.338623,8364.327145,-229.828649
541.322416,5033.400406,8142.265362,-153.219100
541.322737,5181.441594,8068.244768,76.609550
541.323057,5033.400406,7994.224174,-229.828649
541.323378,5181.441594,8068.244768,-153.219100
541.323699,4663.297435,7994.224174,0.000000
541.324019,4737.318029,8216.285956,-229.828649
541.324340,5181.441594,7698.141797,-229.828649
541.324661,4885.359217,7994.224174,-229.828649
541.324982,4885.359217,7994.224174,0.000000
541.325302,4885.359217,7994.224174,0.000000
541.325623,4959.379811,7920.203579,0.000000
541.325944,4885.359217,7772.162391,76.609550
541.326264,5033.400406,7994.224174,-306.438199
541.326585,5107.421000,7772.162391,-229.828649
541.326906,5033.400406,7624.121203,-383.047749
541.327227,5033.400406,8068.244768,76.609550
541.327547,5033.400406,8290.306550,0.000000
541.327868,4811.338623,7698.141797,-306.438199
541.328189,4441.235652,7624.121203,-383.047749
541.328509,4145.153275,7328.038826,0.000000
541.328830,4219.173869,7994.224174,-306.438199
541.329151,4515.256246,9326.594869,-612.876398
541.329472,4441.235652,9696.697840,-1072.533697
541.329792,4663.297435,10140.821405,-1378.971896
541.330113,4441.235652,9474.636058,-919.314598
541.330434,3923.091493,8734.430116,-229.828649
541.330754,2960.823768,8438.347739,612.876398
541.331075,2590.720797,9622.677246,919.314598
541.331396,2738.761985,9474.636058,153.219100
541.331717,2516.700203,8808.450710,-76.609550
541.332037,2516.700203,8290.306550,-612.876398
541.332358,3034.844362,9030.512492,-689.485948
541.332679,3182.885551,9548.656652,153.219100
541.332999,2368.659014,9178.553681,459.657299
541.333320,2368.659014,8586.388927,76.609550
541.333641,2590.720797,9474.636058,0.000000
541.333962,2072.576638,11029.068536,-995.924147
541.334282,1628.453072,11991.336260,-1378.971896
541.334603,1702.473667,12139.377449,-1149.143247
541.334924,1628.453072,11695.253884,-689.485948
541.335244,444.123565,10807.006753,-919.314598
541.335565,-370.102971,10732.986159,-1225.752797
541.335886,-1184.329507,11473.192101,-1225.752797
541.336207,-1776.494261,12731.542202,0.000000
541.336527,-1332.370696,12435.459826,612.876398
541.336848,-888.247130,12065.356855,1302.362347
541.337169,-666.185348,12509.480420,1378.971896
541.337489,-1406.391290,12731.542202,2145.067394
541.337810,-2516.700203,12065.356855,1072.533697
541.338131,-1924.535449,10584.944971,153.219100
541.338452,-1184.329507,9548.656652,0.000000
541.338772,-1036.288319,9400.615463,229.828649
541.339093,-666.185348,9622.677246,536.266849
541.339414,0.000000,10584.944971,229.828649
541.339734,296.082377,11325.150913,-842.705048
541.340055,962.267725,11325.150913,-1608.800546
541.340376,1998.556043,10807.006753,-842.705048
541.340697,2812.782580,10584.944971,0.000000
541.341017,3256.906145,11103.089130,229.828649
541.341338,2590.720797,10436.903782,-919.314598
541.341659,2294.638420,9400.615463,-2451.505594
541.341979,2368.659014,8956.491898,-1762.019645
541.342300,2072.576638,9400.615463,-689.485948
541.342621,2072.576638,9548.656652,-229.828649
541.342942,1776.494261,9992.780217,-229.828649
541.343262,1110.308913,10881.027347,-383.047749
541.343583,0.000000,11917.315666,-459.657299
541.343904,0.000000,10881.027347,766.095498
541.344224,-592.164754,9696.697840,766.095498
541.344545,-444.123565,9770.718434,1149.143247
541.344866,-370.102971,10066.800811,919.314598
541.345187,-518.144159,10362.883188,459.657299
541.345507,-296.082377,10658.965565,1072.533697
541.345828,592.164754,11177.109724,1455.581446
541.346149,1332.370696,11325.150913,995.924147
541.346469,1184.329507,11843.295072,0.000000
541.346790,1332.370696,11177.109724,-919.314598
541.347111,1480.411884,10510.924376,-1225.752797
541.347432,1702.473667,9400.615463,-306.438199
541.347752,1406.391290,8290.306550,-383.047749
541.348073,1406.391290,8364.327145,76.609550
541.348394,2072.576638,9474.636058,0.000000
541.348714,2516.700203,10362.883188,-536.266849
541.349035,2590.720797,11103.089130,-229.828649
541.349356,3034.844362,11029.068536,-766.095498
541.349677,3775.050304,10510.924376,-842.705048
541.349997,2886.803174,9992.780217,-766.095498
541.350318,2442.679609,9252.574275,-689.485948
541.350639,2220.617826,9844.739029,-766.095498
541.350959,1332.370696,10510.924376,-459.657299
541.351280,1036.288319,11547.212695,459.657299
541.351601,1110.308913,12139.377449,-689.485948
541.351922,370.102971,11473.192101,-1838.629195
541.352242,-666.185348,10066.800811,-1608.800546
541.352563,-1480.411884,9178.553681,-995.924147
541.352884,-1554.432478,8808.450710,383.047749
541.353204,-1184.329507,9992.780217,1302.362347
541.353525,-592.164754,10881.027347,1915.238745
541.353846,444.123565,12953.603985,995.924147
541.354167,666.185348,14063.912898,689.485948
541.354487,1258.350101,14137.933492,383.047749
541.354808,2072.576638,12287.418637,-229.828649
541.355129,2072.576638,10436.903782,-612.876398
541.355449,888.247130,9548.656652,-612.876398
541.355770,0.000000,8956.491898,-612.876398
541.356091,-888.247130,9030.512492,-1225.752797
541.356412,-962.267725,9474.636058,-1532.190996
541.356732,-666.185348,10658.965565,-1532.190996
541.357053,74.020594,11547.212695,-612.876398
541.357374,1110.308913,12731.542202,0.000000
541.357694,666.185348,13767.830521,-153.219100
541.358015,592.164754,13323.706956,0.000000
541.358336,962.267725,12953.603985,76.609550
541.358657,888.247130,11399.171507,-306.438199
541.358977,1480.411884,9474.636058,-1378.971896
541.359298,1850.514855,8734.430116,-612.876398
541.359619,1554.432478,9474.636058,0.000000
541.359939,888.247130,10140.821405,919.314598
541.360260,592.164754,9696.697840,842.705048
541.360581,518.144159,8956.491898,1302.362347
541.360902,-370.102971,8290.306550,459.657299
541.361222,518.144159,8956.491898,229.828649
541.361543,1258.350101,10881.027347,229.828649
541.361864,1258.350101,13249.686362,-766.095498
541.362184,370.102971,13989.892304,-1838.629195
541.362505,814.226536,13397.727550,-2145.067394
541.362826,370.102971,12509.480420,-919.314598
541.363147,0.000000,12435.459826,0.000000
541.363467,-370.102971,11769.274478,76.609550
541.363788,-444.123565,10807.006753,76.609550
541.364109,0.000000,10288.862594,1302.362347
541.364429,-666.185348,9844.739029,2145.067394
541.364750,-1258.350101,9474.636058,1838.629195
541.365071,-1850.514855,8586.388927,1225.752797
541.365391,-1554.432478,8586.388927,612.876398
541.365712,-370.102971,9178.553681,536.266849
541.366033,814.226536,10362.883188,-306.438199
541.366354,2146.597232,12435.459826,-306.438199
541.366674,1184.329507,13619.789333,-995.924147
541.366995,444.123565,12287.418637,-2451.505594
541.367316,1406.391290,9696.697840,-2068.457845
541.367636,2516.700203,7846.182985,-383.047749
541.367957,3552.988522,9400.615463,1532.190996
541.368278,2516.700203,11325.150913,459.657299
541.368599,1036.288319,12435.459826,-2528.115143
541.368919,1332.370696,11991.336260,-3140.991542
541.369240,1998.556043,10881.027347,-1455.581446
541.369561,1036.288319,6883.915261,-689.485948
541.369881,222.061783,5921.647536,-383.047749
541.370202,0.000000,8586.388927,-229.828649
541.370523,-1332.370696,12657.521608,0.000000
541.370844,-1702.473667,14730.098246,459.657299
541.371164,-666.185348,15248.242405,459.657299
541.371485,518.144159,15396.283594,612.876398
541.371806,-962.267725,13471.748144,1532.190996
541.372126,-2294.638420,11029.068536,229.828649
541.372447,-2220.617826,9474.636058,-536.266849
541.372768,-592.164754,10066.800811,229.828649
541.373089,0.000000,9400.615463,1149.143247
541.373409,296.082377,8660.409521,919.314598
541.373730,592.164754,8734.430116,459.657299
541.374051,1554.432478,9992.780217,1838.629195
541.374371,2590.720797,11843.295072,1991.848295
541.374692,3182.885551,12139.377449,0.000000
541.375013,4589.276840,11251.130318,-1991.848295
541.375334,5921.647536,10584.944971,-1915.238745
541.375654,2812.782580,9104.533087,-1991.848295
541.375975,740.205942,6735.874072,-1762.019645
541.376296,2812.782580,7772.162391,-995.924147
541.376616,2220.617826,10807.006753,-459.657299
541.376937,1702.473667,12287.418637,-919.314598
541.377258,2664.741391,12657.521608,-1838.629195
541.377579,888.247130,11103.089130,-2068.457845
541.377899,-1554.432478,10584.944971,-689.485948
541.378220,-1924.535449,10140.821405,1378.971896
541.378541,-888.247130,9622.677246,612.876398
541.378861,-518.144159,11399.171507,459.657299
541.379182,-888.247130,13101.645173,-383.047749
541.379503,-1776.494261,13545.768739,-1608.800546
541.379823,-2442.679609,12657.521608,229.828649
541.380144,-1998.556043,11399.171507,2987.772442
541.380465,0.000000,11547.212695,3753.867940
541.380786,-1184.329507,10881.027347,1302.362347
541.381106,-1480.411884,11177.109724,229.828649
541.381427,-1480.411884,10214.842000,153.219100
541.381748,-370.102971,8438.347739,1149.143247
541.382068,1924.535449,7031.956449,1225.752797
541.382389,3330.926739,7105.977043,689.485948
541.382710,3404.947333,10066.800811,-229.828649
541.383030,3108.864956,13323.706956,-1378.971896
541.383351,4071.132681,13471.748144,-2451.505594
541.383672,5551.544565,10510.924376,-2528.115143
541.383993,5921.647536,8290.306550,-919.314598
541.384313,4885.359217,8364.327145,0.000000
541.384634,1998.556043,8734.430116,-1149.143247
541.384955,-518.144159,9844.739029,-3064.381992
541.385275,1628.453072,10362.883188,-3294.210641
541.385596,1850.514855,9696.697840,-1455.581446
541.385917,1406.391290,9770.718434,-689.485948
541.386237,1258.350101,10732.986159,919.314598
541.386558,0.000000,13545.768739,1455.581446
541.386879,-1480.411884,14434.015869,1608.800546
541.387199,-1702.473667,12509.480420,1608.800546
541.387520,-962.267725,10214.842000,842.705048
541.387841,444.123565,8512.368333,1149.143247
541.388162,74.020594,8808.450710,2604.724693
541.388482,1702.473667,9474.636058,2145.067394
541.388803,740.205942,10436.903782,842.705048
541.389124,888.247130,9474.636058,0.000000
541.389444,3182.885551,8216.285956,229.828649
541.389765,3775.050304,7105.977043,766.095498
541.390086,4663.297435,5625.565159,689.485948
541.390406,7105.977043,6365.771101,229.828649
541.390727,6587.832884,7476.080014,-1302.362347
541.391048,6957.935855,8734.430116,-2451.505594
541.391369,9252.574275,9844.739029,-2757.943793
541.391689,9844.739029,10362.883188,-2757.943793
541.392010,7105.977043,8734.430116,-2681.334243
541.392331,5995.668130,6809.894666,-2451.505594
541.392651,5403.503377,8364.327145,-2757.943793
541.392972,3775.050304,10362.883188,-1608.800546
541.393293,3256.906145,9844.739029,229.828649
541.393613,1332.370696,7328.038826,0.000000
541.393934,444.123565,6217.729913,229.828649
541.394255,740.205942,9400.615463,1608.800546
541.394576,518.144159,11621.233289,2298.286494
541.394896,1110.308913,11547.212695,1532.190996
541.395217,3182.885551,11177.109724,2451.505594
541.395538,2220.617826,7920.203579,2068.457845
541.395858,2664.741391,5847.626942,1378.971896
541.396179,2960.823768,7254.018232,3447.429741
541.396500,2368.659014,9474.636058,2374.896044
541.396820,4885.359217,9474.636058,0.000000
541.397141,7550.100608,8438.347739,-1072.533697
541.397462,6291.750507,6587.832884,-2221.676944
541.397782,5921.647536,5847.626942,-612.876398
541.398103,6587.832884,7105.977043,383.047749
541.398424,7105.977043,8660.409521,-1532.190996
541.398745,8512.368333,7772.162391,-1991.848295
541.399065,9474.636058,7476.080014,-2374.896044
541.399386,8808.450710,7328.038826,-1608.800546
541.399707,7254.018232,8438.347739,-383.047749
541.400027,7402.059420,8956.491898,-229.828649
541.400348,5847.626942,7624.121203,-2451.505594
541.400669,5255.462188,5847.626942,-1838.629195
541.400989,5921.647536,6513.812290,919.314598
541.401310,3256.906145,6661.853478,229.828649
541.401631,2590.720797,6957.935855,-1378.971896
541.401952,4959.379811,8290.306550,-459.657299
541.402272,3627.009116,8216.285956,-383.047749
541.402593,3478.967927,8068.244768,1149.143247
541.402914,4071.132681,9474.636058,1915.238745
541.403234,3552.988522,10510.924376,1225.752797
541.403555,2886.803174,9696.697840,1991.848295
541.403876,5403.503377,8660.409521,689.485948
541.404196,6291.750507,6217.729913,-612.876398
541.404517,5551.544565,5699.585753,-306.438199
541.404838,5403.503377,7105.977043,766.095498
541.405158,4737.318029,7994.224174,536.266849
541.405479,5255.462188,6143.709319,-842.705048
541.405800,7698.141797,5773.606348,-1302.362347
541.406121,8660.409521,6439.791695,-1378.971896
541.406441,7476.080014,7550.100608,-76.609550
541.406762,7179.997637,8512.368333,612.876398
541.407083,6957.935855,7994.224174,-2298.286494
541.407403,6661.853478,7105.977043,-2757.943793
541.407724,7624.121203,6661.853478,-995.924147
541.408045,7550.100608,8956.491898,-1225.752797
541.408365,5921.647536,9474.636058,-1685.410096
541.408686,5181.441594,9474.636058,-3524.039291
541.409007,4959.379811,8216.285956,-2451.505594
541.409328,3997.112087,7031.956449,0.000000
541.409648,3256.906145,6809.894666,2221.676944
541.409969,2812.782580,7920.203579,1838.629195
541.410290,2442.679609,8438.347739,-1225.752797
541.410610,2368.659014,8882.471304,-766.095498
541.410931,3701.029710,8660.409521,0.000000
541.411252,5625.565159,9104.533087,1225.752797
541.411572,5107.421000,9474.636058,1608.800546
541.411893,3552.988522,7920.203579,842.705048
541.412214,3997.112087,8142.265362,-306.438199
541.412535,5033.400406,9770.718434,-536.266849
541.412855,3552.988522,9104.533087,-842.705048
541.413176,5773.606348,8956.491898,-459.657299
541.413497,7476.080014,8364.327145,306.438199
541.413817,5329.482782,8734.430116,-1072.533697
541.414138,4145.153275,8068.244768,-2374.896044
541.414459,4737.318029,8956.491898,-2374.896044
541.414779,5107.421000,9178.553681,0.000000
541.415100,6513.812290,8438.347739,2298.286494
541.415421,6513.812290,7254.018232,383.047749
541.415741,4663.297435,6661.853478,-2681.334243
541.416062,3552.988522,7772.162391,-306.438199
541.416383,5403.503377,9474.636058,1838.629195
541.416704,6217.729913,8512.368333,995.924147
541.417024,5847.626942,6513.812290,-919.314598
541.417345,6069.688724,7624.121203,-1991.848295
541.417666,4145.153275,8882.471304,-1072.533697
541.417986,3627.009116,7179.997637,689.485948
541.418307,5403.503377,6291.750507,306.438199
541.418628,5033.400406,6439.791695,-536.266849
541.418948,4441.235652,7402.059420,-689.485948
541.419269,3108.864956,8586.388927,0.000000
541.419590,4737.318029,9252.574275,-153.219100
541.419911,6587.832884,8882.471304,766.095498
541.420231,6809.894666,7624.121203,1532.190996
541.420552,6809.894666,6883.915261,0.000000
541.420873,6143.709319,8290.306550,-76.609550
541.421193,5625.565159,7698.141797,229.828649
541.421514,6661.853478,6809.894666,1149.143247
541.421835,7772.162391,6069.688724,1532.190996
541.422155,7179.997637,5847.626942,0.000000
541.422476,6291.750507,7031.956449,-1302.362347
541.422797,5921.647536,8216.285956,-459.657299
541.423118,5329.482782,7846.182985,153.219100
541.423438,5477.523971,5847.626942,612.876398
541.423759,6069.688724,5329.482782,-459.657299
541.424080,5847.626942,7772.162391,-689.485948
541.424400,5181.441594,10436.903782,76.609550
541.424721,4515.256246,10510.924376,229.828649
541.425042,5033.400406,8956.491898,-536.266849
541.425362,6217.729913,7624.121203,0.000000
541.425683,5699.585753,8068.244768,459.657299
541.426004,4811.338623,7772.162391,536.266849
541.426324,4663.297435,7105.977043,-153.219100
541.426645,4959.379811,7031.956449,-153.219100
541.426966,4885.359217,6143.709319,229.828649
541.427287,5107.421000,6439.791695,689.485948
541.427607,5403.503377,8068.244768,153.219100
541.427928,4219.173869,9030.512492,-842.705048
541.428249,4293.194464,8808.450710,-383.047749
541.428569,4959.379811,7624.121203,-306.438199
541.428890,5477.523971,7846.182985,76.609550
541.429211,5773.606348,8586.388927,612.876398
541.429531,4663.297435,8734.430116,-689.485948
541.429852,4441.235652,8586.388927,-2068.457845
541.430173,5033.400406,9696.697840,-1608.800546
541.430494,5403.503377,9252.574275,-1072.533697
541.430814,5107.421000,7105.977043,-459.657299
541.431135,6439.791695,6069.688724,766.095498
541.431456,5329.482782,6809.894666,1225.752797
541.431776,4441.235652,7698.141797,-306.438199
541.432097,3478.967927,6883.915261,-1608.800546
541.432418,3997.112087,7031.956449,-1302.362347
541.432738,6513.812290,8364.327145,612.876398
541.433059,7105.977043,9030.512492,766.095498
541.433380,3923.091493,8882.471304,-2221.676944
541.433701,3330.926739,8512.368333,-2987.772442
541.434021,4367.215058,9474.636058,-1149.143247
541.434342,4219.173869,9400.615463,766.095498
541.434663,5181.441594,7772.162391,383.047749
541.434983,5773.606348,7994.224174,-1455.581446
541.435304,4367.215058,9326.594869,-1149.143247
541.435625,4515.256246,10584.944971,919.314598
541.435945,4959.379811,9474.636058,383.047749
541.436266,3775.050304,7031.956449,-1149.143247
541.436587,4441.235652,5847.626942,153.219100
541.436907,5403.503377,8438.347739,1302.362347
541.437228,4441.235652,8216.285956,459.657299
541.437549,4589.276840,7328.038826,-306.438199
541.437870,7031.956449,7846.182985,0.000000
541.438190,5921.647536,8364.327145,612.876398
541.438511,5181.441594,8512.368333,689.485948
541.438832,6217.729913,7624.121203,-919.314598
541.439152,6291.750507,7402.059420,-1915.238745
541.439473,6513.812290,6291.750507,-459.657299
541.439794,7254.018232,5995.668130,-306.438199
541.440114,7550.100608,6809.894666,-1378.971896
541.440435,7254.018232,7402.059420,-1072.533697
541.440756,6661.853478,8068.244768,689.485948
541.441077,6069.688724,8512.368333,1149.143247
541.441397,5403.503377,8216.285956,0.000000
541.441718,5181.441594,8586.388927,-1302.362347
541.442039,5477.523971,8734.430116,-1455.581446
541.442359,4367.215058,8364.327145,-229.828649
541.442680,2886.803174,6957.935855,-459.657299
541.443001,3034.844362,7254.018232,-536.266849
541.443321,2516.700203,9400.615463,919.314598
541.443642,1184.329507,11029.068536,1532.190996
541.443963,2146.597232,10732.986159,1072.533697
541.444284,3330.926739,9178.553681,842.705048
541.444604,3034.844362,7328.038826,919.314598
541.444925,3478.967927,7402.059420,1762.019645
541.445246,3552.988522,8882.471304,1685.410096
541.445566,4145.153275,9030.512492,306.438199
541.445887,4367.215058,7698.141797,-1072.533697
541.446208,5477.523971,6439.791695,-842.705048
541.446528,7624.121203,7846.182985,842.705048
541.446849,7105.977043,7402.059420,919.314598
541.447170,4737.318029,6439.791695,-1378.971896
541.447490,6069.688724,6217.729913,-1685.410096
541.447811,7254.018232,7476.080014,-229.828649
541.448132,5181.441594,7328.038826,-229.828649
541.448453,6883.915261,6069.688724,-1072.533697
541.448773,7105.977043,7031.956449,-2068.457845
541.449094,6291.750507,8660.409521,-1991.848295
541.449415,5181.441594,8808.450710,-995.924147
541.449735,6143.709319,7698.141797,-459.657299
541.450056,5773.606348,7550.100608,-919.314598
541.450377,5403.503377,8512.368333,229.828649
541.450697,3775.050304,8142.265362,-1302.362347
541.451018,3478.967927,7624.121203,-3217.601092
541.451339,4663.297435,8216.285956,-1378.971896
541.451660,5625.565159,8068.244768,1378.971896
541.451980,4959.379811,7550.100608,1302.362347
541.452301,4515.256246,7328.038826,842.705048
541.452622,3849.070898,9178.553681,0.000000
541.452942,2664.741391,9474.636058,842.705048
541.453263,5255.462188,9400.615463,1455.581446
541.453584,6587.832884,8586.388927,1225.752797
541.453904,6143.709319,7772.162391,306.438199
541.454225,6439.791695,8660.409521,536.266849
541.454546,3997.112087,8438.347739,383.047749
541.454866,3182.885551,7920.203579,0.000000
541.455187,6069.688724,7920.203579,459.657299
541.455508,5107.421000,6809.894666,-306.438199
541.455829,4737.318029,6513.812290,-995.924147
541.456149,5551.544565,7105.977043,-995.924147
541.456470,4589.276840,8068.244768,-2757.943793
541.456791,5329.482782,8882.471304,-2451.505594
541.457111,5329.482782,8882.471304,-995.924147
541.457432,4071.132681,9030.512492,-1608.800546
541.457753,5329.482782,11177.109724,0.000000
541.458073,5551.544565,10658.965565,842.705048
541.458394,4145.153275,9030.512492,-842.705048
541.458715,4959.379811,7624.121203,-1302.362347
541.459036,5033.400406,8364.327145,-383.047749
541.459356,3330.926739,8734.430116,-612.876398
541.459677,2664.741391,6883.915261,-689.485948
541.459998,4811.338623,6957.935855,1302.362347
541.460318,3849.070898,7328.038826,1685.410096
541.460639,3478.967927,7920.203579,1608.800546
541.460960,3775.050304,8808.450710,383.047749
541.461280,3775.050304,9474.636058,-383.047749
541.461601,3997.112087,10732.986159,1532.190996
541.461922,4663.297435,10066.800811,1378.971896
541.462243,3775.050304,8734.430116,-1608.800546
541.462563,4515.256246,7994.224174,-1149.143247
541.462884,3775.050304,7476.080014,459.657299
541.463205,2294.638420,8068.244768,153.219100
541.463525,4145.153275,9844.739029,0.000000
541.463846,2886.803174,8808.450710,-842.705048
541.464167,4145.153275,7328.038826,-766.095498
541.464487,6217.729913,6587.832884,1838.629195
541.464808,4367.215058,7031.956449,842.705048
541.465129,4293.194464,7624.121203,-995.924147
541.465449,5551.544565,8808.450710,-1685.410096
541.465770,5107.421000,8142.265362,-1072.533697
541.466091,7031.956449,8660.409521,-459.657299
541.466412,7254.018232,9104.533087,919.314598
541.466732,4959.379811,8660.409521,-1149.143247
541.467053,5181.441594,8808.450710,-995.924147
541.467374,5847.626942,9178.553681,919.314598
541.467694,5921.647536,6957.935855,0.000000
541.468015,6365.771101,5773.606348,536.266849
541.468336,5551.544565,7105.977043,842.705048
541.468656,3701.029710,8142.265362,1072.533697
541.468977,3849.070898,7550.100608,1838.629195
541.469298,4441.235652,6365.771101,1149.143247
541.469619,4959.379811,6217.729913,153.219100
541.469939,5403.503377,7920.203579,689.485948
541.470260,4959.379811,10362.883188,-842.705048
541.470581,4367.215058,9030.512492,-2374.896044
541.470901,4737.318029,7994.224174,-612.876398
541.471222,6809.894666,7254.018232,1072.533697
541.471543,5329.482782,8216.285956,459.657299
541.471863,4515.256246,8438.347739,-1149.143247
541.472184,4293.194464,7994.224174,-2757.943793
541.472505,5107.421000,7772.162391,-1915.238745
541.472826,6957.935855,8586.388927,995.924147
541.473146,5995.668130,8142.265362,1072.533697
541.473467,5033.400406,7105.977043,0.000000
541.473788,5477.523971,7402.059420,153.219100
541.474108,5255.462188,7550.100608,76.609550
541.474429,5847.626942,7105.977043,-766.095498
541.474750,6069.688724,7624.121203,-383.047749
541.475070,5921.647536,9474.636058,306.438199
541.475391,5625.565159,10955.047942,689.485948
541.475712,4219.173869,9770.718434,-995.924147
541.476032,4145.153275,8290.306550,-1915.238745
541.476353,3775.050304,7550.100608,-842.705048
541.476674,3182.885551,7476.080014,536.266849
541.476995,3034.844362,7698.141797,1072.533697
541.477315,3923.091493,8586.388927,0.000000
541.477636,4219.173869,9992.780217,383.047749
541.477957,3701.029710,10510.924376,1455.581446
541.478277,3552.988522,9622.677246,76.609550
541.478598,4885.359217,7624.121203,-1149.143247
541.478919,4293.194464,5921.647536,-1762.019645
541.479239,4219.173869,6365.771101,-536.266849
541.479560,4663.297435,9696.697840,383.047749
541.479881,4071.132681,11029.068536,-1378.971896
541.480201,4515.256246,10584.944971,-2757.943793
541.480522,6809.894666,8956.491898,-1149.143247
541.480842,5551.544565,7698.141797,306.438199
541.481163,5107.421000,7624.121203,1149.143247
541.481483,4737.318029,7476.080014,0.000000
541.481804,4737.318029,7328.038826,-612.876398
541.482124,6513.812290,7328.038826,995.924147
541.482445,6365.771101,8290.306550,1072.533697
541.482766,4737.318029,7624.121203,-612.876398
541.483086,4959.379811,7772.162391,-689.485948
541.483407,4737.318029,7550.100608,229.828649
541.483727,5995.668130,7402.059420,919.314598
541.484048,6513.812290,7550.100608,0.000000
541.484368,4811.338623,7920.203579,-2451.505594
541.484689,3552.988522,9252.574275,-2298.286494
541.485009,3775.050304,9622.677246,612.876398
541.485330,4737.318029,8660.409521,1762.019645
541.485650,5033.400406,7105.977043,459.657299
541.485971,4959.379811,7698.141797,-766.095498
541.486292,4589.276840,9104.533087,-229.828649
541.486612,3478.967927,9178.553681,536.266849
541.486933,4737.318029,8660.409521,1072.533697
541.487253,6069.688724,7920.203579,842.705048
541.487574,4959.379811,6883.915261,76.609550
541.487894,4515.256246,7476.080014,919.314598
541.488215,4441.235652,9252.574275,-153.219100
541.488535,4219.173869,7624.121203,-1838.629195
541.488856,5551.544565,6291.750507,-1149.143247
541.489176,6217.729913,6587.832884,1149.143247
541.489497,4959.379811,8734.430116,1455.581446
541.489817,5033.400406,9992.780217,1608.800546
541.490138,4885.359217,8956.491898,-306.438199
541.490459,5329.482782,7846.182985,-1302.362347
541.490779,5477.523971,7031.956449,0.000000
541.491100,5773.606348,6735.874072,-766.095498
541.491420,5033.400406,7328.038826,-842.705048
541.491741,5255.462188,7846.182985,0.000000
541.492061,5329.482782,8290.306550,1072.533697
541.492382,5107.421000,7476.080014,0.000000
541.492702,5995.668130,7179.997637,0.000000
541.493023,5995.668130,7105.977043,153.219100
541.493343,5329.482782,6661.853478,306.438199
541.493664,6217.729913,6439.791695,153.219100
541.493985,5477.523971,6217.729913,-1455.581446
541.494305,6513.812290,6439.791695,-2145.067394
541.494626,7846.182985,7254.018232,-842.705048
541.494946,6513.812290,7994.224174,-536.266849
541.495267,6587.832884,9252.574275,-459.657299
541.495587,7254.018232,10658.965565,0.000000
541.495908,5181.441594,9992.780217,-306.438199
541.496228,6069.688724,8290.306550,-612.876398
541.496549,5847.626942,7920.203579,153.219100
541.496869,4145.153275,6957.935855,-689.485948
541.497190,3182.885551,7031.956449,-536.266849
541.497511,2812.782580,7920.203579,1149.143247
541.497831,3182.885551,8512.368333,612.876398
541.498152,4663.297435,9104.533087,1685.410096
541.498472,3849.070898,8956.491898,1149.143247
541.498793,2442.679609,8956.491898,-76.609550
541.499113,3849.070898,10288.862594,842.705048
541.499434,4737.318029,9474.636058,842.705048
541.499754,4367.215058,7179.997637,0.000000
541.500075,5625.565159,6883.915261,-995.924147
541.500395,5551.544565,9030.512492,-2451.505594
541.500716,3478.967927,9844.739029,-2451.505594
541.501036,4441.235652,9030.512492,-1608.800546
541.501357,6513.812290,8216.285956,153.219100
541.501678,5847.626942,6365.771101,1608.800546
541.501998,6143.709319,8364.327145,1149.143247
541.502319,4737.318029,9548.656652,-1378.971896
541.502639,3034.844362,8734.430116,-2528.115143
541.502960,6735.874072,7179.997637,-612.876398
541.503280,7550.100608,5551.544565,612.876398
541.503601,6513.812290,5477.523971,689.485948
541.503921,5255.462188,7624.121203,76.609550
541.504242,3182.885551,9696.697840,-1378.971896
541.504562,4145.153275,9178.553681,-1532.190996
541.504883,6661.853478,7994.224174,153.219100
541.505204,7105.977043,6513.812290,229.828649
541.505524,6217.729913,6439.791695,0.000000
541.505845,4145.153275,6957.935855,536.266849
541.506165,2960.823768,7179.997637,-766.095498
541.506486,4885.359217,6365.771101,-919.314598
541.506806,6957.935855,6883.915261,0.000000
541.507127,6883.915261,8808.450710,0.000000
541.507447,5847.626942,10214.842000,-229.828649
541.507768,5995.668130,9770.718434,-153.219100
541.508088,6143.709319,8142.265362,0.000000
541.508409,5551.544565,6365.771101,0.000000
541.508729,5773.606348,6957.935855,-229.828649
541.509050,3997.112087,7179.997637,-1838.629195
541.509371,3182.885551,7550.100608,-1378.971896
541.509691,5699.585753,9178.553681,2145.067394
541.510012,5181.441594,9178.553681,1685.410096
541.510332,5477.523971,8734.430116,689.485948
541.510653,6069.688724,7254.018232,0.000000
541.510973,4515.256246,7328.038826,-995.924147
541.511294,4885.359217,8290.306550,76.609550
541.511614,5403.503377,8216.285956,689.485948
541.511935,5625.565159,8142.265362,-689.485948
541.512255,6735.874072,7031.956449,153.219100
541.512576,6069.688724,7254.018232,1838.629195
541.512897,5255.462188,8290.306550,153.219100
541.513217,4811.338623,9030.512492,-1149.143247
541.513538,4515.256246,8512.368333,-1762.019645
541.513858,6069.688724,5921.647536,-919.314598
541.514179,7402.059420,5847.626942,1072.533697
541.514499,5773.606348,6883.915261,153.219100
541.514820,3034.844362,7920.203579,-2374.896044
541.515140,3330.926739,9474.636058,-1378.971896
541.515461,5255.462188,10658.965565,459.657299
541.515781,5847.626942,10140.821405,1149.143247
541.516102,6735.874072,8142.265362,229.828649
541.516422,5403.503377,7476.080014,-1302.362347
541.516743,2516.700203,7550.100608,-383.047749
541.517064,1702.473667,6957.935855,766.095498
541.517384,3775.050304,6957.935855,0.000000
541.517705,4145.153275,6661.853478,76.609550
541.518025,4811.338623,8586.388927,919.314598
541.518346,4441.235652,10807.006753,536.266849
541.518666,3404.947333,9400.615463,-1378.971896
541.518987,4441.235652,7772.162391,-1608.800546
541.519307,6661.853478,7179.997637,-76.609550
541.519628,5551.544565,7920.203579,995.924147
541.519948,4589.276840,9030.512492,76.609550
541.520269,4293.194464,9400.615463,-1608.800546
541.520590,5699.585753,8142.265362,-1149.143247
541.520910,6069.688724,8142.265362,536.266849
541.521231,6291.750507,7698.141797,1149.143247
541.521551,5847.626942,6957.935855,-842.705048
541.521872,4737.318029,6513.812290,-1378.971896
541.522192,4145.153275,6883.915261,-766.095498
541.522513,4737.318029,7698.141797,612.876398
541.522833,5773.606348,8882.471304,766.095498
541.523154,5773.606348,9548.656652,-229.828649
541.523474,5181.441594,9622.677246,0.000000
541.523795,4589.276840,9104.533087,306.438199
541.524116,3775.050304,9252.574275,-536.266849
541.524436,4145.153275,9104.533087,-1225.752797
541.524757,4515.256246,8068.244768,-1149.143247
541.525077,4441.235652,8068.244768,-229.828649
541.525398,4441.235652,8068.244768,76.609550
541.525718,3849.070898,8142.265362,536.266849
541.526039,2664.741391,7328.038826,536.266849
541.526359,4737.318029,7994.224174,919.314598
541.526680,6439.791695,8216.285956,1685.410096
541.527000,5477.523971,6513.812290,1149.143247
541.527321,6365.771101,6069.688724,0.000000
541.527641,6587.832884,7179.997637,76.609550
541.527962,5551.544565,7624.121203,-919.314598
541.528283,6957.935855,6735.874072,-1838.629195
541.528603,8512.368333,5995.668130,-2451.505594
541.528924,7994.224174,6735.874072,-1991.848295
541.529244,7105.977043,8290.306550,306.438199
541.529565,5773.606348,8586.388927,612.876398
541.529885,6365.771101,8808.450710,-919.314598
541.530206,6809.894666,8290.306550,76.609550
541.530526,5551.544565,7328.038826,-306.438199
541.530847,3108.864956,6587.832884,-1532.190996
541.531167,3627.009116,6957.935855,-1149.143247
541.531488,2960.823768,7550.100608,229.828649
541.531809,3552.988522,7624.121203,612.876398
541.532129,3552.988522,8512.368333,-689.485948
541.532450,3256.906145,10732.986159,-1685.410096
541.532770,2294.638420,11473.192101,-536.266849
541.533091,2442.679609,11325.150913,1455.581446
541.533411,3404.947333,9696.697840,2604.724693
541.533732,2590.720797,8068.244768,1685.410096
541.534052,2738.761985,8290.306550,919.314598
541.534373,2812.782580,7994.224174,-536.266849
541.534693,3108.864956,8512.368333,-306.438199
541.535014,4737.318029,9178.553681,0.000000
541.535334,5847.626942,8734.430116,0.000000
541.535655,5255.462188,7920.203579,536.266849
541.535976,5995.668130,7994.224174,2221.676944
541.536296,5255.462188,9030.512492,919.314598
541.536617,5551.544565,9474.636058,-1455.581446
541.536937,5625.565159,8808.450710,-2757.943793
541.537258,5625.565159,7402.059420,-2374.896044
541.537578,6587.832884,7994.224174,0.000000
541.537899,5921.647536,8956.491898,995.924147
541.538219,3849.070898,8586.388927,-1072.533697
541.538540,3256.906145,7846.182985,-2604.724693
541.538860,3997.112087,8290.306550,-995.924147
541.539181,4145.153275,8586.388927,0.000000
541.539502,4885.359217,7328.038826,689.485948
541.539822,5403.503377,7846.182985,536.266849
541.540143,3923.091493,8808.450710,612.876398
541.540463,3627.009116,8734.430116,995.924147
541.540784,4589.276840,8216.285956,306.438199
541.541104,4293.194464,7254.018232,-1225.752797
541.541425,4811.338623,7846.182985,-536.266849
541.541745,4959.379811,8734.430116,1302.362347
541.542066,4441.235652,7846.182985,-306.438199
541.542386,5625.565159,6735.874072,-306.438199
541.542707,6365.771101,6439.791695,306.438199
541.543027,5033.400406,6217.729913,383.047749
541.543348,5329.482782,7846.182985,-306.438199
541.543669,5847.626942,9030.512492,-995.924147
541.543989,6809.894666,8660.409521,-1072.533697
541.544310,8512.368333,6883.915261,689.485948
541.544630,6661.853478,6439.791695,0.000000
541.544951,5181.441594,6587.832884,-1225.752797
541.545271,3404.947333,5995.668130,-1225.752797
541.545592,4367.215058,6513.812290,-612.876398
541.545912,6661.853478,7846.182985,-612.876398
541.546233,6587.832884,9178.553681,-306.438199
541.546553,5107.421000,8956.491898,-2298.286494
541.546874,4663.297435,8438.347739,-2757.943793
541.547195,4515.256246,8290.306550,-229.828649
541.547515,4515.256246,8290.306550,536.266849
541.547836,4959.379811,7476.080014,-153.219100
541.548156,5033.400406,8512.368333,-1455.581446
541.548477,4811.338623,10584.944971,-306.438199
541.548797,4589.276840,10732.986159,612.876398
541.549118,5699.585753,9770.718434,536.266849
541.549438,3627.009116,8216.285956,842.705048
541.549759,3182.885551,8068.244768,1608.800546
541.550079,4145.153275,9548.656652,2221.676944
541.550400,3478.967927,9622.677246,995.924147
541.550720,2442.679609,8808.450710,-229.828649
541.551041,4959.379811,8586.388927,0.000000
541.551362,4293.194464,8290.306550,229.828649
541.551682,3034.844362,9474.636058,612.876398
541.552003,3478.967927,8438.347739,612.876398
541.552323,2960.823768,8882.471304,-1762.019645
541.552644,3478.967927,9400.615463,-1149.143247
541.552964,3404.947333,10732.986159,-383.047749
541.553285,4737.318029,10658.965565,0.000000
541.553605,4737.318029,9992.780217,995.924147
541.553926,4071.132681,8808.450710,689.485948
541.554246,3182.885551,7402.059420,-612.876398
541.554567,3997.112087,7105.977043,-1302.362347
541.554888,4145.153275,7105.977043,-689.485948
541.555208,5847.626942,7402.059420,306.438199
541.555529,6735.874072,6661.853478,536.266849
541.555849,5995.668130,6957.935855,0.000000
541.556170,4663.297435,6143.709319,-1072.533697
541.556490,5033.400406,6439.791695,-612.876398
541.556811,5995.668130,6735.874072,0.000000
541.557131,5329.482782,7402.059420,-1225.752797
541.557452,6587.832884,8586.388927,-1455.581446
541.557772,5255.462188,8734.430116,-1915.238745
541.558093,5403.503377,9104.533087,-383.047749
541.558414,5551.544565,8512.368333,612.876398
541.558734,4885.359217,6143.709319,689.485948
541.559055,4293.194464,4959.379811,229.828649
541.559375,5255.462188,6439.791695,842.705048
541.559696,4589.276840,8808.450710,919.314598
541.560016,5181.441594,8290.306550,0.000000
541.560337,5625.565159,6883.915261,-612.876398
541.560657,5699.585753,5847.626942,0.000000
541.560978,4589.276840,6735.874072,383.047749
541.561298,3701.029710,7994.224174,0.000000
541.561619,4663.297435,7328.038826,-1532.190996
541.561939,6661.853478,8956.491898,-995.924147
541.562260,6513.812290,8808.450710,0.000000
541.562581,5181.441594,7846.182985,-1149.143247
541.562901,5995.668130,8512.368333,-1072.533697
541.563222,6069.688724,8586.388927,0.000000
541.563542,5625.565159,7994.224174,0.000000
541.563863,6809.894666,6735.874072,-1685.410096
541.564183,7698.141797,8438.347739,-2757.943793
541.564504,6587.832884,8956.491898,-536.266849
541.564824,5921.647536,9104.533087,1455.581446
541.565145,5921.647536,8364.327145,1532.190996
541.565465,4959.379811,7698.141797,0.000000
541.565786,4663.297435,8364.327145,0.000000
541.566107,5255.462188,7846.182985,-229.828649
541.566427,4441.235652,7846.182985,-153.219100
541.566748,3997.112087,8660.409521,153.219100
541.567068,3775.050304,8586.388927,0.000000
541.567389,2590.720797,9178.553681,689.485948
541.567709,2516.700203,10881.027347,1532.190996
541.568030,2886.803174,11399.171507,76.609550
541.568350,3923.091493,10732.986159,-1532.190996
541.568671,3404.947333,8586.388927,-1455.581446
541.568991,3552.988522,7846.182985,0.000000
541.569312,4441.235652,8660.409521,1685.410096
541.569632,4071.132681,8956.491898,919.314598
541.569953,3552.988522,7550.100608,-306.438199
541.570274,3775.050304,6735.874072,-1072.533697
541.570594,4515.256246,7031.956449,0.000000
541.570915,4811.338623,7476.080014,0.000000
541.571235,6439.791695,7994.224174,-229.828649
541.571556,6661.853478,7254.018232,-459.657299
541.571876,6365.771101,7550.100608,153.219100
541.572197,5551.544565,8438.347739,0.000000
541.572517,5847.626942,9030.512492,-689.485948
541.572838,5699.585753,8512.368333,-1072.533697
541.573158,6365.771101,8290.306550,-766.095498
541.573479,7031.956449,7179.997637,-229.828649
541.573800,5255.462188,6957.935855,-306.438199
541.574120,4737.318029,7031.956449,153.219100
541.574441,4811.338623,6143.709319,1225.752797
541.574761,4589.276840,5551.544565,1532.190996
541.575082,3552.988522,5181.441594,383.047749
541.575402,5329.482782,7328.038826,0.000000
541.575723,5033.400406,7476.080014,0.000000
541.576043,4885.359217,7920.203579,0.000000
541.576364,7994.224174,8438.347739,459.657299
541.576684,6291.750507,8216.285956,-689.485948
541.577005,4441.235652,7105.977043,-1302.362347
541.577325,5107.421000,7920.203579,0.000000
541.577646,5773.606348,8808.450710,689.485948
541.577967,6957.935855,9474.636058,-76.609550
541.578287,7105.977043,7994.224174,-1378.971896
541.578608,6069.688724,6587.832884,-1991.848295
541.578928,4293.194464,6883.915261,383.047749
541.579249,3182.885551,7624.121203,2221.676944
541.579569,4441.235652,7328.038826,1072.533697
541.579890,5551.544565,6291.750507,0.000000
541.580210,6291.750507,7254.018232,-1608.800546
541.580530,5181.441594,9400.615463,-2221.676944
541.580851,3627.009116,9696.697840,-919.314598
541.581171,4071.132681,8438.347739,919.314598
541.581492,3923.091493,8216.285956,1532.190996
541.581812,3923.091493,8512.368333,383.047749
541.582133,4515.256246,11177.109724,-1532.190996
541.582453,3108.864956,10066.800811,-3064.381992
541.582774,4515.256246,10066.800811,-1991.848295
541.583094,5995.668130,9474.636058,1302.362347
541.583415,4441.235652,7254.018232,1149.143247
541.583735,4293.194464,6661.853478,995.924147
541.584055,3923.091493,7402.059420,612.876398
541.584376,4219.173869,8512.368333,-229.828649
541.584696,4441.235652,7920.203579,-842.705048
541.585017,6661.853478,6513.812290,-1608.800546
541.585337,8512.368333,5625.565159,-612.876398
541.585658,7772.162391,6143.709319,1225.752797
541.585978,6069.688724,7105.977043,-1072.533697
541.586299,4737.318029,8512.368333,-2834.553343
541.586619,4959.379811,8438.347739,-3064.381992
541.586939,6883.915261,7254.018232,-1991.848295
541.587260,9696.697840,8364.327145,153.219100
541.587580,7846.182985,10140.821405,0.000000
541.587901,5403.503377,9400.615463,-2221.676944
541.588221,3404.947333,7698.141797,-2221.676944
541.588542,4515.256246,6661.853478,-919.314598
541.588862,4663.297435,6365.771101,919.314598
541.589183,4441.235652,7105.977043,995.924147
541.589503,4293.194464,7772.162391,-536.266849
541.589824,3552.988522,8660.409521,153.219100
541.590144,3849.070898,9252.574275,1072.533697
541.590464,5033.400406,9252.574275,842.705048
541.590785,4145.153275,7476.080014,229.828649
541.591105,4441.235652,8364.327145,229.828649
541.591426,5329.482782,10510.924376,766.095498
541.591746,4663.297435,10510.924376,536.266849
541.592067,6069.688724,8882.471304,229.828649
541.592387,7105.977043,7698.141797,689.485948
541.592708,5625.565159,7031.956449,612.876398
541.593028,4293.194464,7402.059420,1225.752797
541.593348,3552.988522,6735.874072,229.828649
541.593669,4959.379811,6735.874072,-612.876398
541.593989,6957.935855,7328.038826,612.876398
541.594310,6883.915261,6883.915261,0.000000
541.594630,6143.709319,7550.100608,-919.314598
541.594951,4811.338623,8808.450710,-536.266849
541.595271,4219.173869,8660.409521,0.000000
541.595592,5921.647536,8290.306550,153.219100
541.595912,8216.285956,8586.388927,0.000000
541.596233,6957.935855,8586.388927,-919.314598
541.596553,5551.544565,7550.100608,-1915.238745
541.596873,5181.441594,7031.956449,-76.609550
541.597194,4663.297435,7031.956449,842.705048
541.597514,4515.256246,5847.626942,1915.238745
541.597835,5403.503377,6513.812290,1149.143247
541.598155,4737.318029,7476.080014,-919.314598
541.598476,2886.803174,8290.306550,-1149.143247
541.598796,4145.153275,8512.368333,383.047749
541.599117,4959.379811,6957.935855,995.924147
541.599437,4885.359217,6735.874072,1608.800546
541.599757,4663.297435,8142.265362,0.000000
541.600078,4071.132681,10807.006753,-2145.067394
541.600398,2812.782580,10732.986159,-1608.800546
541.600719,3034.844362,9030.512492,76.609550
541.601039,4367.215058,7624.121203,1225.752797
541.601360,4293.194464,7772.162391,919.314598
541.601680,3478.967927,8586.388927,0.000000
541.602001,2442.679609,7402.059420,-1608.800546
541.602321,3849.070898,7328.038826,-2374.896044
541.602642,5107.421000,8142.265362,-919.314598
541.602962,6291.750507,8290.306550,766.095498
541.603282,6217.729913,9030.512492,1072.533697
541.603603,6439.791695,8660.409521,383.047749
541.603923,5107.421000,8216.285956,-1302.362347
541.604244,5625.565159,7846.182985,-2221.676944
541.604564,5181.441594,7105.977043,-2374.896044
541.604885,7476.080014,8290.306550,-766.095498
541.605205,7105.977043,9326.594869,536.266849
541.605526,4737.318029,8660.409521,0.000000
541.605846,4885.359217,6661.853478,-383.047749
541.606166,5329.482782,7254.018232,612.876398
541.606487,4663.297435,7476.080014,-842.705048
541.606807,6513.812290,8808.450710,-842.705048
541.607128,7698.141797,8808.450710,-1149.143247
541.607448,5847.626942,8808.450710,229.828649
541.607769,5847.626942,7920.203579,2145.067394
541.608089,5329.482782,8586.388927,995.924147
541.608410,4737.318029,9696.697840,-1378.971896
541.608730,4589.276840,8808.450710,-1455.581446
541.609051,5255.462188,8142.265362,-689.485948
541.609371,4885.359217,7402.059420,306.438199
541.609691,4663.297435,8068.244768,2068.457845
541.610012,4737.318029,8142.265362,612.876398
541.610332,4885.359217,6661.853478,-1378.971896
541.610653,5033.400406,6217.729913,-1072.533697
541.610973,5847.626942,6957.935855,153.219100
541.611294,5847.626942,9030.512492,1072.533697
541.611614,5699.585753,9548.656652,1225.752797
541.611935,7254.018232,8808.450710,229.828649
541.612255,7328.038826,7105.977043,-1225.752797
541.612575,5551.544565,6439.791695,-2068.457845
541.612896,4959.379811,6439.791695,-1991.848295
541.613216,4959.379811,7031.956449,-536.266849
541.613537,5625.565159,7624.121203,459.657299
541.613857,6809.894666,9104.533087,536.266849
541.614178,5773.606348,8142.265362,0.000000
541.614498,3775.050304,7402.059420,-1225.752797
541.614819,2368.659014,8586.388927,0.000000
541.615139,2664.741391,8956.491898,766.095498
541.615460,4367.215058,7179.997637,612.876398
541.615780,4737.318029,6587.832884,536.266849
541.616100,5255.462188,7994.224174,-76.609550
541.616421,2220.617826,10288.862594,229.828649
541.616741,1332.370696,11177.109724,0.000000
541.617062,2738.761985,8438.347739,0.000000
541.617382,4145.153275,7550.100608,1532.190996
541.617703,4811.338623,7698.141797,1378.971896
541.618023,3330.926739,9326.594869,-229.828649
541.618344,1702.473667,9474.636058,-2145.067394
541.618664,3552.988522,9326.594869,-1991.848295
541.618984,4959.379811,9104.533087,766.095498
541.619305,5033.400406,7846.182985,1991.848295
541.619625,4959.379811,9030.512492,2068.457845
541.619946,3404.947333,9696.697840,1378.971896
541.620266,3775.050304,10658.965565,-306.438199
541.620587,4219.173869,9326.594869,-1302.362347
541.620907,5995.668130,6439.791695,-1915.238745
541.621228,8142.265362,7105.977043,153.219100
541.621548,5699.585753,7846.182985,1915.238745
541.621869,2664.741391,7772.162391,76.609550
541.622189,4441.235652,7846.182985,-306.438199
541.622509,6143.709319,6587.832884,-76.609550
541.622830,6957.935855,7105.977043,-229.828649
541.623150,8142.265362,7105.977043,-689.485948
541.623471,7179.997637,8142.265362,-2298.286494
541.623791,6439.791695,7994.224174,-1762.019645
541.624112,6217.729913,5847.626942,76.609550
541.624432,7105.977043,6365.771101,536.266849
541.624753,7105.977043,8142.265362,76.609550
541.625073,6365.771101,9918.759623,-919.314598
541.625393,4959.379811,9770.718434,-1225.752797
541.625714,5255.462188,8808.450710,-459.657299
541.626034,5181.441594,7476.080014,1302.362347
541.626355,3552.988522,6217.729913,1225.752797
541.626675,3552.988522,4885.359217,459.657299
541.626996,3404.947333,6735.874072,-612.876398
541.627316,2812.782580,8290.306550,-842.705048
541.627637,3182.885551,8734.430116,-459.657299
541.627957,5403.503377,9474.636058,536.266849
541.628278,6957.935855,9696.697840,1838.629195
541.628598,5329.482782,9030.512492,1378.971896
541.628918,4515.256246,7328.038826,-1149.143247
541.629239,3627.009116,7624.121203,-3294.210641
541.629559,3775.050304,7179.997637,-1302.362347
541.629880,5699.585753,7994.224174,0.000000
541.630200,8142.265362,7550.100608,-306.438199
541.630521,7254.018232,8438.347739,-1225.752797
541.630841,4885.359217,8438.347739,-1532.190996
541.631162,4219.173869,8364.327145,-995.924147
541.631482,5699.585753,7698.141797,306.438199
541.631802,7105.977043,7254.018232,612.876398
541.632123,7624.121203,7254.018232,1072.533697
541.632443,6365.771101,7994.224174,-919.314598
541.632764,3849.070898,7994.224174,-1838.629195
541.633084,4071.132681,9400.615463,-229.828649
541.633405,5403.503377,10362.883188,1608.800546
541.633725,4885.359217,8734.430116,1072.533697
541.634046,4145.153275,8290.306550,-689.485948
541.634366,3182.885551,10584.944971,-536.266849
541.634687,1702.473667,10510.924376,-536.266849
541.635007,1406.391290,8586.388927,612.876398
541.635327,3034.844362,7624.121203,1225.752797
541.635648,2812.782580,9030.512492,306.438199
541.635968,2590.720797,11029.068536,919.314598
541.636289,1184.329507,10214.842000,-383.047749
541.636609,2294.638420,9400.615463,0.000000
541.636930,4219.173869,9548.656652,1455.581446
541.637250,5107.421000,9400.615463,1072.533697
541.637571,4663.297435,8734.430116,0.000000
541.637891,4663.297435,7994.224174,-536.266849
541.638212,4219.173869,7920.203579,76.609550
541.638532,4959.379811,7920.203579,229.828649
541.638852,7476.080014,6809.894666,0.000000
541.639173,7994.224174,5477.523971,-459.657299
541.639493,8290.306550,6365.771101,-153.219100
541.639814,8068.244768,8364.327145,0.000000
541.640134,5625.565159,7179.997637,-612.876398
541.640455,6069.688724,4515.256246,-1532.190996
541.640775,9178.553681,5107.421000,306.438199
541.641096,6809.894666,5699.585753,612.876398
541.641416,6661.853478,7254.018232,0.000000
541.641736,5773.606348,7402.059420,-766.095498
541.642057,4589.276840,7698.141797,-1149.143247
541.642377,5329.482782,8290.306550,0.000000
541.642698,5033.400406,8364.327145,76.609550
541.643018,4145.153275,8068.244768,-1608.800546
541.643339,3627.009116,7846.182985,-459.657299
541.643659,3552.988522,7994.224174,1225.752797
541.643980,2886.803174,7772.162391,612.876398
541.644300,3775.050304,7402.059420,76.609550
541.644621,3182.885551,6957.935855,-229.828649
541.644941,4515.256246,8290.306550,536.266849
541.645261,4737.318029,8956.491898,2451.505594
541.645582,4293.194464,9400.615463,612.876398
541.645902,4885.359217,7698.141797,-306.438199
541.646223,5773.606348,7698.141797,-153.219100
541.646543,6069.688724,8586.388927,459.657299
541.646864,5329.482782,9030.512492,306.438199
541.647184,5107.421000,8586.388927,-1072.533697
541.647505,5773.606348,7624.121203,-1532.190996
541.647825,7402.059420,7402.059420,0.000000
541.648145,6439.791695,8882.471304,229.828649
541.648466,4145.153275,7476.080014,-1532.190996
541.648786,4219.173869,8216.285956,-2757.943793
541.649107,4737.318029,9104.533087,-1149.143247
541.649427,3775.050304,9178.553681,0.000000
541.649748,5625.565159,9104.533087,76.609550
541.650068,5107.421000,8438.347739,-919.314598
541.650389,3182.885551,10066.800811,-2068.457845
541.650709,3330.926739,10955.047942,-229.828649
541.651030,3923.091493,10584.944971,-306.438199
541.651350,5255.462188,8956.491898,-229.828649
541.651670,5477.523971,8808.450710,766.095498
541.651991,4367.215058,8364.327145,0.000000
541.652311,3997.112087,8216.285956,-306.438199
541.652632,3775.050304,8216.285956,766.095498
541.652952,4737.318029,7624.121203,612.876398
541.653273,6143.709319,7328.038826,1149.143247
541.653593,5033.400406,7254.018232,153.219100
541.653914,4367.215058,8216.285956,-995.924147
541.654234,4515.256246,7698.141797,0.000000
541.654554,5773.606348,7550.100608,76.609550
541.654875,5551.544565,6365.771101,0.000000
541.655195,5847.626942,8290.306550,-766.095498
541.655516,5921.647536,9474.636058,-383.047749
541.655836,4737.318029,8956.491898,-1378.971896
541.656157,5551.544565,7994.224174,-1455.581446
541.656477,7402.059420,9104.533087,-1149.143247
541.656798,5921.647536,7328.038826,-1149.143247
541.657118,5255.462188,6439.791695,-612.876398
541.657439,5625.565159,5625.565159,0.000000
541.657759,5033.400406,6661.853478,306.438199
541.658079,6513.812290,7105.977043,766.095498
541.658400,5181.441594,6957.935855,0.000000
541.658720,7031.956449,7402.059420,-536.266849
541.659041,6883.915261,8290.306550,1225.752797
541.659361,6365.771101,7920.203579,842.705048
541.659682,4959.379811,6809.894666,76.609550
541.660002,5921.647536,7920.203579,0.000000
541.660323,4515.256246,8734.430116,-766.095498
541.660643,4515.256246,8586.388927,-919.314598
541.660963,6143.709319,7920.203579,842.705048
541.661284,5625.565159,7772.162391,1149.143247
541.661604,3701.029710,7402.059420,919.314598
541.661925,3404.947333,7920.203579,459.657299
541.662245,2960.823768,8512.368333,-459.657299
541.662566,3034.844362,7772.162391,919.314598
541.662886,3775.050304,7920.203579,1991.848295
541.663207,4293.194464,8290.306550,459.657299
541.663527,3256.906145,9548.656652,-536.266849
541.663848,4145.153275,9696.697840,-689.485948
541.664168,4219.173869,8142.265362,-689.485948
541.664488,3627.009116,7254.018232,-689.485948
541.664809,4737.318029,9622.677246,0.000000
541.665129,4293.194464,10584.944971,-459.657299
541.665450,4293.194464,9474.636058,-1915.238745
541.665770,7254.018232,7920.203579,-536.266849
541.666091,6661.853478,6883.915261,306.438199
541.666411,4589.276840,6587.832884,-383.047749
541.666732,3849.070898,5995.668130,-612.876398
541.667052,5107.421000,7254.018232,-383.047749
541.667372,6957.935855,10362.883188,383.047749
541.667693,6513.812290,10955.047942,1302.362347
541.668013,3701.029710,8586.388927,-1378.971896
541.668334,4219.173869,7105.977043,-766.095498
541.668654,3923.091493,7920.203579,1685.410096
541.668975,4071.132681,7550.100608,1302.362347
541.669295,4737.318029,7105.977043,-689.485948
541.669616,5033.400406,7772.162391,-2987.772442
541.669936,3923.091493,9918.759623,-1762.019645
541.670257,4071.132681,9622.677246,689.485948
541.670577,5625.565159,7920.203579,919.314598
541.670897,5921.647536,7031.956449,0.000000
541.671218,5329.482782,7698.141797,76.609550
541.671538,3997.112087,8882.471304,-1302.362347
541.671859,4589.276840,8142.265362,-1991.848295
541.672179,5625.565159,6809.894666,-306.438199
541.672500,8512.368333,7105.977043,919.314598
541.672820,7179.997637,7179.997637,-459.657299
541.673141,5181.441594,7994.224174,-1991.848295
541.673461,5255.462188,7402.059420,-2145.067394
541.673781,7328.038826,8290.306550,-919.314598
541.674102,7105.977043,7328.038826,-306.438199
541.674422,6957.935855,7105.977043,-766.095498
541.674743,7550.100608,7550.100608,-612.876398
541.675063,5921.647536,7550.100608,459.657299
541.675384,6069.688724,7105.977043,689.485948
541.675704,6661.853478,7402.059420,-919.314598
541.676025,5995.668130,8882.471304,-1302.362347
541.676345,5107.421000,8808.450710,-766.095498
541.676666,5625.565159,7772.162391,0.000000
541.676986,5921.647536,7328.038826,76.609550
541.677306,5773.606348,7846.182985,306.438199
541.677627,4071.132681,8364.327145,-536.266849
541.677947,2516.700203,8290.306550,-1991.848295
541.678268,4071.132681,9622.677246,-1149.143247
541.678588,4737.318029,10510.924376,1149.143247
541.678909,4145.153275,7550.100608,1991.848295
541.679229,3627.009116,7254.018232,842.705048
541.679550,3552.988522,7920.203579,-459.657299
541.679870,3627.009116,7550.100608,-612.876398
541.680190,3627.009116,6439.791695,0.000000
541.680511,4737.318029,7031.956449,0.000000
541.680831,6217.729913,10658.965565,842.705048
541.681152,3701.029710,11991.336260,383.047749
541.681472,4441.235652,9770.718434,-1762.019645
541.681793,7624.121203,7920.203579,-459.657299
541.682114,5403.503377,7105.977043,842.705048
541.682434,2442.679609,7994.224174,306.438199
541.682755,2960.823768,8882.471304,0.000000
541.683076,3108.864956,8512.368333,-383.047749
541.683396,4145.153275,8142.265362,842.705048
541.683717,4293.194464,8660.409521,1915.238745
541.684038,1998.556043,8290.306550,-995.924147
541.684358,1258.350101,7772.162391,-1149.143247
541.684679,2368.659014,7994.224174,919.314598
541.684999,5699.585753,7254.018232,1915.238745
541.685320,6809.894666,6809.894666,1532.190996
541.685641,5477.523971,7994.224174,-1225.752797
541.685961,4737.318029,9770.718434,-2451.505594
541.686282,3923.091493,8808.450710,-1072.533697
541.686603,6883.915261,6809.894666,459.657299
541.686923,7994.224174,7476.080014,536.266849
541.687244,6291.750507,6883.915261,-612.876398
541.687565,5477.523971,7105.977043,-1685.410096
541.687885,4515.256246,7105.977043,-1915.238745
541.688206,5477.523971,7476.080014,-536.266849
541.688527,7624.121203,6439.791695,1302.362347
541.688847,6291.750507,5403.503377,-153.219100
541.689168,6365.771101,8068.244768,-153.219100
541.689489,4515.256246,9844.739029,1072.533697
541.689809,4663.297435,9104.533087,383.047749
541.690130,5255.462188,7105.977043,76.609550
541.690451,7105.977043,7105.977043,0.000000
541.690771,5181.441594,7994.224174,76.609550
541.691092,4737.318029,7772.162391,-383.047749
541.691413,4293.194464,6661.853478,-1685.410096
541.691733,5181.441594,6661.853478,-995.924147
541.692054,3701.029710,6883.915261,-306.438199
541.692375,5403.503377,8364.327145,-383.047749
541.692695,6513.812290,9326.594869,-536.266849
541.693016,5847.626942,9696.697840,-229.828649
541.693336,6513.812290,8956.491898,-612.876398
541.693657,6883.915261,8290.306550,-1532.190996
541.693978,6217.729913,7994.224174,-1532.190996
541.694298,5477.523971,7772.162391,0.000000
541.694619,6957.935855,7105.977043,153.219100
541.694940,6883.915261,7254.018232,1225.752797
541.695260,6069.688724,8512.368333,689.485948
541.695581,5847.626942,7920.203579,-1072.533697
541.695902,5551.544565,6957.935855,-1762.019645
541.696222,4367.215058,5847.626942,-766.095498
541.696543,5329.482782,7698.141797,-306.438199
541.696864,4737.318029,9326.594869,-229.828649
541.697184,3330.926739,10362.883188,-1149.143247
541.697505,4219.173869,10881.027347,-995.924147
541.697826,3627.009116,10732.986159,-229.828649
541.698146,3849.070898,9844.739029,306.438199
541.698467,2516.700203,8438.347739,153.219100
541.698788,2812.782580,8142.265362,-306.438199
541.699108,3552.988522,9030.512492,-1149.143247
541.699429,3478.967927,9622.677246,-383.047749
541.699750,2072.576638,7920.203579,229.828649
541.700070,3108.864956,7550.100608,459.657299
541.700391,3552.988522,8216.285956,1149.143247
541.700712,3701.029710,8808.450710,612.876398
541.701032,4071.132681,7476.080014,-689.485948
541.701353,4885.359217,6809.894666,-1532.190996
541.701673,5699.585753,7550.100608,-612.876398
541.701994,4737.318029,9400.615463,689.485948
541.702315,5699.585753,10362.883188,383.047749
541.702635,6587.832884,10436.903782,383.047749
541.702956,5921.647536,10066.800811,-383.047749
541.703277,4737.318029,8808.450710,-1072.533697
541.703597,5033.400406,6735.874072,-689.485948
541.703918,4441.235652,5625.565159,306.438199
541.704239,4737.318029,5847.626942,1072.533697
541.704559,4367.215058,6143.709319,995.924147
541.704880,3478.967927,8438.347739,612.876398
541.705201,2886.803174,9548.656652,689.485948
541.705521,3256.906145,9474.636058,919.314598
541.705842,5255.462188,8808.450710,229.828649
541.706163,5995.668130,7550.100608,-306.438199
541.706483,4441.235652,6957.935855,0.000000
541.706804,4737.318029,6439.791695,-229.828649
541.707125,4885.359217,7698.141797,0.000000
541.707445,4737.318029,9696.697840,-306.438199
541.707766,5847.626942,9030.512492,-153.219100
541.708087,6661.853478,7105.977043,-612.876398
541.708407,7476.080014,6143.709319,383.047749
541.708728,6217.729913,4737.318029,1072.533697
541.709049,7550.100608,5921.647536,459.657299
541.709369,6883.915261,5625.565159,-459.657299
541.709690,6291.750507,5403.503377,-229.828649
541.710010,7328.038826,7105.977043,1072.533697
541.710331,7772.162391,9326.594869,536.266849
541.710652,5255.462188,8216.285956,0.000000
541.710972,6883.915261,6439.791695,153.219100
541.711293,7550.100608,6809.894666,-1378.971896
541.711614,4737.318029,6883.915261,-1225.752797
541.711934,3849.070898,6291.750507,-1302.362347
541.712255,4737.318029,7772.162391,-842.705048
541.712576,5403.503377,10881.027347,-306.438199
541.712896,3330.926739,10658.965565,536.266849
541.713217,4737.318029,8216.285956,-1072.533697
541.713538,5773.606348,6809.894666,-1149.143247
541.713858,3404.947333,7994.224174,842.705048
541.714179,2664.741391,8512.368333,1532.190996
541.714500,4589.276840,9252.574275,766.095498
541.714820,4737.318029,8734.430116,-76.609550
541.715141,5921.647536,9326.594869,0.000000
541.715462,5329.482782,8882.471304,0.000000
541.715782,3404.947333,8734.430116,-1532.190996
541.716103,3034.844362,8512.368333,-1149.143247
541.716424,4589.276840,8290.306550,536.266849
541.716744,5699.585753,9178.553681,229.828649
541.717065,3997.112087,10066.800811,229.828649
541.717386,3775.050304,10140.821405,-1685.410096
541.717706,3552.988522,10066.800811,-1532.190996
541.718027,3552.988522,8364.327145,-229.828649
541.718347,5107.421000,7476.080014,1685.410096
541.718668,4959.379811,8956.491898,1455.581446
541.718989,3478.967927,9992.780217,-536.266849
541.719309,1998.556043,10214.842000,-1685.410096
541.719630,1776.494261,9474.636058,-1838.629195
541.719951,4293.194464,8660.409521,0.000000
541.720271,5033.400406,7624.121203,1378.971896
541.720592,4219.173869,6587.832884,0.000000
541.720913,4071.132681,8216.285956,-1072.533697
541.721233,2812.782580,9326.594869,-612.876398
541.721554,3404.947333,9252.574275,-1302.362347
541.721875,5033.400406,8364.327145,-1532.190996
541.722195,7105.977043,7772.162391,-612.876398
541.722516,7105.977043,8734.430116,1149.143247
541.722837,6217.729913,9030.512492,1149.143247
541.723157,4219.173869,7105.977043,0.000000
541.723478,4737.318029,6439.791695,-612.876398
541.723799,5255.462188,6587.832884,766.095498
541.724119,6217.729913,6957.935855,1072.533697
541.724440,7031.956449,6365.771101,995.924147
541.724761,7031.956449,6439.791695,0.000000
541.725081,5773.606348,6439.791695,-229.828649
541.725402,5551.544565,7179.997637,459.657299
541.725723,5773.606348,7328.038826,459.657299
541.726043,5181.441594,7179.997637,-1072.533697
541.726364,6661.853478,7105.977043,-842.705048
541.726684,7105.977043,7550.100608,0.000000
541.727005,7105.977043,7179.997637,0.000000
541.727326,7550.100608,7179.997637,306.438199
541.727646,7624.121203,7031.956449,-1072.533697
541.727967,5773.606348,6809.894666,-1225.752797
541.728288,7179.997637,8734.430116,536.266849
541.728608,5551.544565,7402.059420,1378.971896
541.728929,5699.585753,5033.400406,76.609550
541.729250,9400.615463,4959.379811,153.219100
541.729570,6217.729913,6809.894666,-383.047749
541.729891,4293.194464,6957.935855,-1378.971896
541.730212,5847.626942,7624.121203,-459.657299
541.730532,6513.812290,9104.533087,-306.438199
541.730853,6217.729913,9696.697840,1225.752797
541.731174,6735.874072,10288.862594,1685.410096
541.731494,2960.823768,8068.244768,-842.705048
541.731815,2368.659014,7550.100608,-995.924147
541.732136,3330.926739,8290.306550,1378.971896
541.732456,4441.235652,9548.656652,0.000000
541.732777,3256.906145,9030.512492,-766.095498
541.733098,3849.070898,9548.656652,-2068.457845
541.733418,3552.988522,10584.944971,-1762.019645
541.733739,2368.659014,8808.450710,1378.971896
541.734060,3404.947333,7105.977043,1838.629195
541.734380,4145.153275,6661.853478,229.828649
541.734701,3108.864956,8216.285956,-1762.019645
541.735021,2516.700203,10732.986159,-1608.800546
541.735342,3775.050304,11103.089130,-2145.067394
541.735663,5329.482782,9844.739029,-1225.752797
541.735983,6661.853478,9474.636058,229.828649
541.736304,4885.359217,10140.821405,-689.485948
541.736625,3552.988522,10732.986159,-1225.752797
541.736945,2664.741391,8956.491898,0.000000
541.737266,5033.400406,7698.141797,842.705048
541.737587,6069.688724,6809.894666,2374.896044
541.737907,5033.400406,7846.182985,1532.190996
541.738228,3997.112087,7624.121203,153.219100
541.738549,4589.276840,7846.182985,-689.485948
541.738869,5181.441594,8364.327145,76.609550
541.739190,4959.379811,8216.285956,306.438199
541.739511,4811.338623,7624.121203,0.000000
541.739831,4811.338623,7550.100608,-1838.629195
541.740152,5107.421000,8808.450710,-1532.190996
541.740473,5033.400406,8438.347739,0.000000
541.740793,6809.894666,9178.553681,0.000000
541.741114,6957.935855,9030.512492,-995.924147
541.741435,5033.400406,8882.471304,-2145.067394
541.741755,5255.462188,8290.306550,-1149.143247
541.742076,5847.626942,7328.038826,1225.752797
541.742397,5995.668130,5033.400406,1762.019645
541.742717,5477.523971,4515.256246,689.485948
541.743038,6957.935855,6069.688724,-76.609550
541.743358,6365.771101,7105.977043,-995.924147
541.743679,6587.832884,6365.771101,919.314598
541.744000,6809.894666,6291.750507,1302.362347
541.744320,6809.894666,6587.832884,229.828649
541.744641,5033.400406,7920.203579,76.609550
541.744962,7179.997637,7994.224174,612.876398
541.745282,6587.832884,5551.544565,-689.485948
541.745603,6143.709319,5107.421000,-1685.410096
541.745924,6217.729913,5995.668130,-842.705048
541.746244,5921.647536,8216.285956,-306.438199
541.746565,6069.688724,9030.512492,0.000000
541.746886,7994.224174,8586.388927,0.000000
541.747206,6661.853478,7550.100608,-229.828649
541.747527,4441.235652,6809.894666,995.924147
541.747848,2368.659014,6883.915261,1762.019645
541.748168,2886.803174,7550.100608,612.876398
541.748489,4071.132681,9030.512492,-536.266849
541.748810,3849.070898,8438.347739,-1455.581446
541.749130,4811.338623,8660.409521,-1762.019645
541.749451,4145.153275,9918.759623,-383.047749
541.749772,2368.659014,10066.800811,383.047749
541.750092,2960.823768,10584.944971,1378.971896
541.750413,3775.050304,9326.594869,1455.581446
541.750734,2886.803174,8142.265362,919.314598
541.751054,4293.194464,7624.121203,536.266849
541.751375,4071.132681,7920.203579,-1455.581446
541.751695,4737.318029,9992.780217,-1532.190996
541.752016,5329.482782,9548.656652,229.828649
541.752337,5773.606348,8734.430116,0.000000
541.752657,5477.523971,9178.553681,995.924147
541.752978,4589.276840,9622.677246,2374.896044
541.753299,3923.091493,8808.450710,842.705048
541.753619,4589.276840,7105.977043,-1149.143247
541.753940,5699.585753,6143.709319,-1455.581446
541.754261,5773.606348,5329.482782,-1149.143247
541.754581,6365.771101,6143.709319,-459.657299
541.754902,6069.688724,9622.677246,-1072.533697
541.755223,5329.482782,11547.212695,-2145.067394
541.755543,4441.235652,10658.965565,-2298.286494
541.755864,5995.668130,9326.594869,-1608.800546
541.756185,6069.688724,8142.265362,1302.362347
541.756505,5107.421000,6735.874072,1991.848295
541.756826,4145.153275,6735.874072,0.000000
541.757147,3478.967927,7698.141797,-1608.800546
541.757467,3775.050304,8216.285956,-1455.581446
541.757788,5625.565159,7476.080014,153.219100
541.758109,6291.750507,6587.832884,919.314598
541.758429,6143.709319,6957.935855,1378.971896
541.758750,5255.462188,7105.977043,1378.971896
541.759071,5107.421000,5255.462188,-842.705048
541.759391,6661.853478,4145.153275,-1378.971896
541.759712,6587.832884,5255.462188,-536.266849
541.760032,7476.080014,9622.677246,459.657299
541.760353,6735.874072,10955.047942,-1072.533697
541.760674,5773.606348,8734.430116,-3447.429741
541.760994,9030.512492,7920.203579,-1532.190996
541.761315,8512.368333,7698.141797,1302.362347
541.761636,4737.318029,6587.832884,612.876398
541.761956,4293.194464,5551.544565,-919.314598
541.762277,5921.647536,7031.956449,-383.047749
541.762598,5995.668130,8290.306550,1685.410096
541.762918,6587.832884,8438.347739,2834.553343
541.763239,4145.153275,7105.977043,229.828649
541.763560,2960.823768,6439.791695,-1608.800546
541.763880,3404.947333,8216.285956,229.828649
541.764201,3923.091493,9844.739029,0.000000
541.764522,2960.823768,9474.636058,-536.266849
541.764842,3775.050304,9178.553681,-766.095498
541.765163,4145.153275,10807.006753,-995.924147
541.765484,2664.741391,11399.171507,0.000000
541.765804,2590.720797,9918.759623,766.095498
541.766125,4145.153275,9030.512492,0.000000
541.766446,3478.967927,7698.141797,-306.438199
541.766766,3034.844362,9252.574275,1455.581446
541.767087,4219.173869,8438.347739,459.657299
541.767408,4663.297435,6735.874072,-766.095498
541.767728,5477.523971,6735.874072,76.609550
541.768049,5181.441594,7031.956449,1149.143247
541.768369,5551.544565,8068.244768,1225.752797
541.768690,5181.441594,7476.080014,919.314598
541.769011,5773.606348,8216.285956,-536.266849
541.769331,5329.482782,8438.347739,-1225.752797
541.769652,5773.606348,9400.615463,-1685.410096
541.769973,5773.606348,7994.224174,-1149.143247
541.770293,6143.709319,8142.265362,-1455.581446
541.770614,6439.791695,8660.409521,-919.314598
541.770935,4441.235652,9326.594869,-229.828649
541.771255,3404.947333,8512.368333,-306.438199
541.771576,2812.782580,7254.018232,76.609550
541.771897,4885.359217,7254.018232,919.314598
541.772217,4959.379811,8290.306550,1072.533697
541.772538,4145.153275,8290.306550,1149.143247
541.772859,2738.761985,6587.832884,-383.047749
541.773179,3849.070898,6069.688724,-1838.629195
541.773500,4145.153275,7031.956449,-1149.143247
541.773821,6217.729913,9474.636058,-153.219100
541.774141,5625.565159,9918.759623,-1225.752797
541.774462,6069.688724,8660.409521,-1455.581446
541.774783,5477.523971,8216.285956,-306.438199
541.775103,6883.915261,7254.018232,1378.971896
541.775424,6365.771101,5847.626942,1685.410096
541.775745,6291.750507,6291.750507,-383.047749
541.776065,5921.647536,7624.121203,-2451.505594
541.776386,5403.503377,8882.471304,-1838.629195
541.776706,6143.709319,7550.100608,0.000000
541.777027,8142.265362,6587.832884,1225.752797
541.777348,7698.141797,7920.203579,1072.533697
541.777668,4145.153275,7624.121203,-689.485948
541.777989,3404.947333,7698.141797,-1225.752797
541.778310,5255.462188,8068.244768,0.000000
541.778630,6291.750507,8734.430116,1378.971896
541.778951,5403.503377,9400.615463,689.485948
541.779272,3849.070898,9030.512492,-1991.848295
541.779592,2442.679609,7772.162391,-2374.896044
541.779913,3034.844362,7328.038826,-383.047749
541.780234,4367.215058,7846.182985,459.657299
541.780554,3627.009116,8512.368333,76.609550
541.780875,4811.338623,9622.677246,-842.705048
541.781196,4959.379811,9622.677246,-766.095498
541.781516,4145.153275,8364.327145,919.314598
541.781837,4663.297435,7550.100608,2221.676944
541.782157,5847.626942,7328.038826,1685.410096
541.782478,3997.112087,8512.368333,-306.438199
541.782798,4441.235652,9030.512492,-1455.581446
541.783119,5181.441594,8364.327145,-1991.848295
541.783439,6513.812290,6957.935855,-1149.143247
541.783760,6957.935855,7031.956449,612.876398
541.784080,5921.647536,8660.409521,842.705048
541.784401,4515.256246,9770.718434,-842.705048
541.784721,4441.235652,8734.430116,153.219100
541.785042,4811.338623,8734.430116,919.314598
541.785362,5033.400406,7402.059420,1378.971896
541.785683,4071.132681,7698.141797,459.657299
541.786003,3108.864956,9474.636058,-383.047749
541.786324,2146.597232,9030.512492,-612.876398
541.786644,2368.659014,6809.894666,76.609550
541.786965,3627.009116,7920.203579,383.047749
541.787285,2960.823768,9696.697840,-536.266849
541.787606,2442.679609,11177.109724,-1455.581446
541.787926,3256.906145,10066.800811,-1455.581446
541.788247,3849.070898,8142.265362,-306.438199
541.788567,6291.750507,7105.977043,2221.676944
541.788888,4811.338623,7105.977043,1991.848295
541.789208,3404.947333,7772.162391,-842.705048
541.789529,3923.091493,8660.409521,-2757.943793
541.789850,5403.503377,8586.388927,-2451.505594
541.790170,7698.141797,8216.285956,0.000000
541.790491,8364.327145,9104.533087,2374.896044
541.790811,5255.462188,9326.594869,689.485948
541.791132,4885.359217,9622.677246,-383.047749
541.791452,4885.359217,7624.121203,76.609550
541.791773,4515.256246,5625.565159,612.876398
541.792093,5773.606348,5847.626942,2068.457845
541.792414,4811.338623,7920.203579,842.705048
541.792734,3478.967927,7994.224174,-1838.629195
541.793055,5477.523971,7328.038826,-1225.752797
541.793375,6365.771101,7254.018232,0.000000
541.793696,4811.338623,7402.059420,76.609550
541.794016,3997.112087,8142.265362,306.438199
541.794337,5773.606348,10288.862594,-536.266849
541.794657,6809.894666,10955.047942,-689.485948
541.794978,5403.503377,8290.306550,0.000000
541.795298,5625.565159,6143.709319,-1378.971896
541.795619,4145.153275,6069.688724,-1225.752797
541.795939,3775.050304,7328.038826,153.219100
541.796260,5255.462188,7994.224174,-229.828649
541.796580,5181.441594,7328.038826,-2068.457845
541.796901,6661.853478,7550.100608,-1378.971896
541.797221,6439.791695,9400.615463,536.266849
541.797542,4737.318029,8142.265362,1302.362347
541.797862,5847.626942,7550.100608,459.657299
541.798183,7254.018232,7550.100608,612.876398
541.798504,5255.462188,8438.347739,-76.609550
541.798824,4885.359217,8660.409521,-383.047749
541.799145,3923.091493,7772.162391,-1302.362347
541.799465,5773.606348,7254.018232,-766.095498
541.799786,5551.544565,7476.080014,536.266849
541.800106,4737.318029,8068.244768,459.657299
541.800427,3256.906145,7920.203579,-306.438199
541.800747,3034.844362,7698.141797,0.000000
541.801068,3330.926739,7328.038826,153.219100
541.801388,5033.400406,8734.430116,383.047749
541.801709,5107.421000,8734.430116,0.000000
541.802029,3552.988522,8956.491898,-1685.410096
541.802350,2960.823768,8512.368333,-995.924147
541.802670,3034.844362,9918.759623,229.828649
541.802991,3182.885551,10288.862594,612.876398
541.803311,3627.009116,9030.512492,-1532.190996
541.803632,5551.544565,10066.800811,-2221.676944
541.803952,2960.823768,9918.759623,-1072.533697
541.804273,4441.235652,8142.265362,0.000000
541.804593,5773.606348,7105.977043,1685.410096
541.804914,5921.647536,6883.915261,536.266849
541.805234,4959.379811,8290.306550,459.657299
541.805555,4737.318029,9252.574275,0.000000
541.805875,4589.276840,7031.956449,-306.438199
541.806196,6143.709319,5921.647536,1149.143247
541.806516,6957.935855,6883.915261,919.314598
541.806837,6217.729913,8660.409521,-842.705048
541.807158,4515.256246,8586.388927,-995.924147
541.807478,4737.318029,8660.409521,-1302.362347
541.807799,6439.791695,8660.409521,153.219100
541.808119,5255.462188,9104.533087,1608.800546
541.808440,6069.688724,9770.718434,76.609550
541.808760,3997.112087,7920.203579,-995.924147
541.809081,2886.803174,6069.688724,-995.924147
541.809401,4367.215058,5551.544565,536.266849
541.809722,3923.091493,6069.688724,919.314598
541.810042,3552.988522,7105.977043,-536.266849
541.810363,4737.318029,8956.491898,-2145.067394
541.810683,6143.709319,9474.636058,-2145.067394
541.811004,5921.647536,9104.533087,153.219100
541.811324,5847.626942,7476.080014,1455.581446
541.811645,5773.606348,8142.265362,919.314598
541.811965,4737.318029,8808.450710,-459.657299
541.812286,3627.009116,8512.368333,-1149.143247
541.812606,6883.915261,7179.997637,-1532.190996
541.812927,6735.874072,6735.874072,-1072.533697
541.813247,5847.626942,6957.935855,-536.266849
541.813568,4663.297435,7624.121203,612.876398
541.813888,5773.606348,8068.244768,76.609550
541.814209,5995.668130,7476.080014,766.095498
541.814529,6217.729913,6809.894666,612.876398
541.814850,4959.379811,5921.647536,-229.828649
541.815170,5699.585753,7328.038826,229.828649
541.815491,5477.523971,8216.285956,-306.438199
541.815812,6809.894666,8586.388927,-995.924147
541.816132,6143.709319,7920.203579,-1991.848295
541.816453,5699.585753,9326.594869,-1915.238745
541.816773,4441.235652,10362.883188,-1072.533697
541.817094,3330.926739,8586.388927,-995.924147
541.817414,4959.379811,6661.853478,-612.876398
541.817735,5181.441594,6957.935855,1302.362347
541.818055,4737.318029,8438.347739,1302.362347
541.818376,2368.659014,8882.471304,-76.609550
541.818696,3034.844362,8364.327145,-1762.019645
541.819017,5551.544565,9400.615463,-1378.971896
541.819337,6069.688724,10658.965565,0.000000
541.819658,4367.215058,9400.615463,0.000000
541.819978,4737.318029,8438.347739,229.828649
541.820299,4293.194464,7994.224174,459.657299
541.820619,3849.070898,9992.780217,1302.362347
541.820940,2960.823768,9474.636058,229.828649
541.821260,4145.153275,9622.677246,-2298.286494
541.821581,5329.482782,10066.800811,-1072.533697
541.821901,4367.215058,8364.327145,1378.971896
541.822222,5551.544565,7105.977043,2145.067394
541.822542,4663.297435,5551.544565,383.047749
541.822863,3775.050304,6217.729913,-919.314598
541.823183,4145.153275,7550.100608,0.000000
541.823504,5255.462188,8068.244768,0.000000
541.823824,6143.709319,7105.977043,0.000000
541.824145,7772.162391,7328.038826,-536.266849
541.824466,7179.997637,9030.512492,-1838.629195
541.824786,4515.256246,9992.780217,-2145.067394
541.825107,4145.153275,7772.162391,-1838.629195
541.825427,6439.791695,6291.750507,-689.485948
541.825748,6069.688724,6735.874072,689.485948
541.826068,4737.318029,7772.162391,612.876398
541.826389,4959.379811,9104.533087,-919.314598
541.826709,5625.565159,9104.533087,-1302.362347
541.827030,5773.606348,6809.894666,229.828649
541.827350,5403.503377,4071.132681,2221.676944
541.827671,6069.688724,5625.565159,2068.457845
541.827991,4367.215058,9178.553681,1072.533697
541.828312,2368.659014,9030.512492,-536.266849
541.828632,5921.647536,7105.977043,-229.828649
541.828953,8364.327145,7328.038826,612.876398
541.829273,5107.421000,6735.874072,306.438199
541.829594,4293.194464,7105.977043,-1225.752797
541.829914,5181.441594,8142.265362,-2298.286494
541.830235,5329.482782,9918.759623,-1608.800546
541.830555,6291.750507,9178.553681,1225.752797
541.830876,5921.647536,7402.059420,0.000000
541.831196,5477.523971,7624.121203,-1378.971896
541.831517,3330.926739,9030.512492,0.000000
541.831837,4293.194464,8734.430116,-153.219100
541.832158,4811.338623,7105.977043,-919.314598
541.832478,5255.462188,7402.059420,0.000000
541.832799,4367.215058,8808.450710,1302.362347
541.833120,3478.967927,8956.491898,919.314598
541.833440,3478.967927,8142.265362,612.876398
541.833761,4293.194464,8364.327145,76.609550
541.834081,4663.297435,8882.471304,-383.047749
541.834402,4589.276840,10140.821405,-842.705048
541.834722,4071.132681,8734.430116,-1302.362347
541.835043,6069.688724,8438.347739,-842.705048
541.835363,6217.729913,9474.636058,76.609550
541.835684,4515.256246,10140.821405,76.609550
541.836004,3182.885551,8216.285956,-919.314598
541.836325,3478.967927,6735.874072,-306.438199
541.836645,4737.318029,6587.832884,1302.362347
541.836966,4811.338623,7772.162391,2451.505594
541.837286,4441.235652,7994.224174,459.657299
541.837607,4589.276840,8586.388927,-1685.410096
541.837927,6513.812290,8956.491898,-766.095498
541.838248,4737.318029,8586.388927,0.000000
541.838568,6143.709319,7624.121203,76.609550
541.838889,6069.688724,7402.059420,-612.876398
541.839209,4811.338623,8734.430116,-3064.381992
541.839530,5107.421000,8882.471304,-2068.457845
541.839850,6217.729913,9252.574275,-1225.752797
541.840171,6513.812290,8512.368333,-1225.752797
541.840491,5625.565159,8438.347739,-383.047749
541.840812,4515.256246,8290.306550,-995.924147
541.841133,4071.132681,8142.265362,0.000000
541.841453,5699.585753,7846.182985,1915.238745
541.841774,5403.503377,5847.626942,1838.629195
541.842094,6439.791695,7179.997637,383.047749
541.842415,4737.318029,8438.347739,0.000000
541.842735,4589.276840,8660.409521,0.000000
541.843056,5847.626942,6439.791695,1302.362347
541.843376,6217.729913,5329.482782,2451.505594
541.843697,6069.688724,6809.894666,1532.190996
541.844017,4589.276840,7624.121203,-995.924147
541.844338,4293.194464,9030.512492,-3064.381992
541.844658,4959.379811,7920.203579,-2604.724693
541.844979,8068.244768,7920.203579,-612.876398
541.845299,7476.080014,7105.977043,919.314598
541.845620,5921.647536,7624.121203,-536.266849
541.845940,4441.235652,9104.533087,-995.924147
541.846261,4885.359217,9548.656652,-1072.533697
541.846581,5625.565159,7476.080014,842.705048
541.846902,9474.636058,6883.915261,2068.457845
541.847222,8364.327145,6439.791695,1072.533697
541.847543,4737.318029,5921.647536,306.438199
541.847863,4737.318029,4959.379811,995.924147
541.848184,6735.874072,5255.462188,1532.190996
541.848504,8364.327145,4885.359217,1608.800546
541.848825,9030.512492,5107.421000,842.705048
541.849145,8808.450710,5181.441594,-1608.800546
541.849466,8216.285956,5551.544565,-995.924147
541.849787,8660.409521,5847.626942,1225.752797
541.850107,10955.047942,6217.729913,76.609550
541.850428,9770.718434,5329.482782,-2298.286494
541.850748,8882.471304,4589.276840,-2987.772442
541.851069,9770.718434,6513.812290,-1991.848295
541.851389,7846.182985,6883.915261,-153.219100
541.851710,6883.915261,5921.647536,0.000000
541.852030,8364.327145,5773.606348,766.095498
541.852351,6809.894666,6883.915261,766.095498
541.852671,5403.503377,7476.080014,842.705048
541.852992,4811.338623,6143.709319,229.828649
541.853312,6143.709319,4293.194464,-612.876398
541.853633,8068.244768,5921.647536,1225.752797
541.853953,7624.121203,7624.121203,2604.724693
541.854274,7550.100608,7624.121203,612.876398
541.854594,8734.430116,6439.791695,-1149.143247
541.854915,8364.327145,5699.585753,-536.266849
541.855235,9770.718434,6809.894666,919.314598
541.855556,10658.965565,6587.832884,383.047749
541.855876,10362.883188,4959.379811,-2145.067394
541.856197,12287.418637,3404.947333,-1838.629195
541.856517,13397.727550,3478.967927,689.485948
541.856838,11917.315666,4293.194464,689.485948
541.857158,11399.171507,4367.215058,0.000000
541.857479,11325.150913,4737.318029,-689.485948
541.857799,11399.171507,3478.967927,-919.314598
541.858120,12657.521608,3478.967927,536.266849
541.858441,12435.459826,4071.132681,919.314598
541.858761,9474.636058,4367.215058,-2374.896044
541.859082,9252.574275,5181.441594,-3677.258390
541.859402,9400.615463,6069.688724,-3064.381992
541.859723,9030.512492,6143.709319,-766.095498
541.860043,9622.677246,5625.565159,919.314598
541.860364,8290.306550,6735.874072,459.657299
541.860684,6439.791695,7179.997637,-995.924147
541.861005,6143.709319,6661.853478,-536.266849
541.861325,7846.182985,6883.915261,-1149.143247
541.861646,8216.285956,7105.977043,-229.828649
541.861966,6809.894666,7920.203579,1149.143247
541.862287,6217.729913,7179.997637,995.924147
541.862607,6957.935855,4959.379811,1072.533697
541.862928,8364.327145,4441.235652,2068.457845
541.863248,8660.409521,5107.421000,1532.190996
541.863569,7328.038826,5625.565159,459.657299
541.863889,8216.285956,5181.441594,229.828649
541.864210,10732.986159,4219.173869,842.705048
541.864530,12509.480420,3404.947333,1608.800546
541.864851,12731.542202,4515.256246,-459.657299
541.865171,12065.356855,5773.606348,-2145.067394
541.865492,12065.356855,5995.668130,-1991.848295
541.865812,12361.439231,4367.215058,-919.314598
541.866133,13545.768739,3627.009116,0.000000
541.866453,13693.809927,4515.256246,459.657299
541.866774,10362.883188,5773.606348,-919.314598
541.867095,8734.430116,5625.565159,-1762.019645
541.867415,9474.636058,4515.256246,-459.657299
541.867736,8586.388927,2368.659014,306.438199
541.868056,7994.224174,1924.535449,919.314598
541.868377,8068.244768,4885.359217,153.219100
541.868697,5625.565159,8956.491898,-1762.019645
541.869018,5181.441594,8956.491898,-995.924147
541.869338,7105.977043,7105.977043,153.219100
541.869659,7846.182985,6661.853478,1455.581446
541.869979,5773.606348,7772.162391,2681.334243
541.870300,4441.235652,9326.594869,536.266849
541.870620,3775.050304,8734.430116,-1608.800546
541.870941,5625.565159,6587.832884,-459.657299
541.871261,7254.018232,5107.421000,2604.724693
541.871582,7994.224174,4959.379811,2757.943793
541.871902,7105.977043,5551.544565,1072.533697
541.872223,7179.997637,6735.874072,-842.705048
541.872543,9400.615463,5921.647536,-536.266849
541.872864,11547.212695,4885.359217,689.485948
541.873184,12139.377449,4737.318029,2145.067394
541.873505,12361.439231,5255.462188,1455.581446
541.873825,11251.130318,5551.544565,-919.314598
541.874146,10436.903782,4737.318029,-2145.067394
541.874466,11473.192101,2960.823768,-2298.286494
541.874787,13545.768739,2886.803174,-1072.533697
541.875107,13397.727550,4737.318029,-842.705048
541.875428,11843.295072,7105.977043,-766.095498
541.875749,10658.965565,6957.935855,-1225.752797
541.876069,10066.800811,4367.215058,-383.047749
541.876390,9474.636058,1332.370696,995.924147
541.876710,9326.594869,1628.453072,1225.752797
541.877031,8808.450710,3923.091493,-689.485948
541.877351,7920.203579,7254.018232,-1762.019645
541.877672,8364.327145,9326.594869,-1608.800546
541.877992,9104.533087,8438.347739,0.000000
541.878313,8438.347739,6439.791695,1685.410096
541.878633,6661.853478,5033.400406,1838.629195
541.878954,5181.441594,4367.215058,536.266849
541.879274,5625.565159,3775.050304,153.219100
541.879595,7624.121203,3923.091493,76.609550
541.879915,9844.739029,4959.379811,766.095498
541.880236,10881.027347,6883.915261,153.219100
541.880556,10510.924376,8216.285956,-842.705048
541.880877,10140.821405,7105.977043,-2068.457845
541.881197,11103.089130,4885.359217,-766.095498
541.881518,11769.274478,2590.720797,1149.143247
541.881838,11547.212695,2072.576638,1072.533697
541.882159,11103.089130,3108.864956,-612.876398
541.882479,10955.047942,5033.400406,-1991.848295
541.882800,11695.253884,6883.915261,-2298.286494
541.883120,12361.439231,7105.977043,-1532.190996
541.883441,12361.439231,6365.771101,-842.705048
541.883762,10807.006753,5255.462188,153.219100
541.884082,9030.512492,4737.318029,459.657299
541.884403,7994.224174,4293.194464,153.219100
541.884723,7105.977043,4959.379811,-306.438199
541.885044,7254.018232,5403.503377,-842.705048
541.885365,8068.244768,6735.874072,-612.876398
541.885685,7698.141797,7920.203579,0.000000
541.886006,7698.141797,8512.368333,0.000000
541.886326,7624.121203,9030.512492,0.000000
541.886647,7254.018232,7328.038826,995.924147
541.886968,6809.894666,6143.709319,2298.286494
541.887288,6883.915261,5255.462188,2451.505594
541.887609,7402.059420,5033.400406,1225.752797
541.887929,8216.285956,5329.482782,229.828649
541.888250,9178.553681,6069.688724,-536.266849
541.888571,9548.656652,5107.421000,-995.924147
541.888891,10140.821405,4441.235652,-842.705048
541.889212,10584.944971,4515.256246,306.438199
541.889532,10584.944971,5033.400406,1072.533697
541.889853,10140.821405,5477.523971,612.876398
541.890174,10288.862594,5773.606348,229.828649
541.890494,10436.903782,5403.503377,-766.095498
541.890815,10807.006753,4959.379811,-842.705048
541.891136,10436.903782,4885.359217,-459.657299
541.891456,9622.677246,5625.565159,-459.657299
541.891777,9252.574275,5847.626942,0.000000
541.892097,9178.553681,5255.462188,-306.438199
541.892418,8956.491898,4367.215058,-459.657299
541.892739,8660.409521,3256.906145,459.657299
541.893059,8364.327145,2590.720797,1072.533697
541.893380,8808.450710,2220.617826,229.828649
541.893700,9770.718434,2886.803174,-766.095498
541.894021,10658.965565,4219.173869,-1072.533697
541.894342,10584.944971,5551.544565,-1532.190996
541.894662,10732.986159,6735.874072,-1225.752797
541.894983,11473.192101,7328.038826,-612.876398
541.895303,11399.171507,7994.224174,-459.657299
541.895624,10658.965565,6883.915261,-536.266849
541.895945,9548.656652,5773.606348,0.000000
541.896265,8882.471304,4589.276840,919.314598
541.896586,8438.347739,3404.947333,1838.629195
541.896906,8734.430116,3552.988522,2221.676944
541.897227,8734.430116,3923.091493,1685.410096
541.897548,8512.368333,4737.318029,842.705048
541.897868,8734.430116,4441.235652,459.657299
541.898189,8808.450710,4515.256246,-229.828649
541.898509,9400.615463,4737.318029,-459.657299
541.898830,9992.780217,6143.709319,-1149.143247
541.899151,10436.903782,7328.038826,-1762.019645
541.899471,10658.965565,8364.327145,-2298.286494
541.899792,10881.027347,8660.409521,-1762.019645
541.900112,10584.944971,8068.244768,-766.095498
541.900433,10214.842000,7105.977043,229.828649
541.900754,9474.636058,6143.709319,766.095498
541.901074,8808.450710,4589.276840,612.876398
541.901395,8438.347739,3701.029710,536.266849
541.901716,8512.368333,2886.803174,1072.533697
541.902036,8882.471304,2886.803174,459.657299
541.902357,9178.553681,4737.318029,0.000000
541.902677,9326.594869,7105.977043,-459.657299
541.902998,9474.636058,9252.574275,-306.438199
541.903319,9400.615463,9474.636058,995.924147
541.903639,8068.244768,9178.553681,1455.581446
541.903960,6809.894666,8290.306550,1608.800546
541.904280,5403.503377,7846.182985,459.657299
541.904601,4811.338623,6957.935855,0.000000
541.904922,4811.338623,5477.523971,-459.657299
541.905242,5107.421000,5329.482782,-153.219100
541.905563,5181.441594,5773.606348,153.219100
541.905883,5033.400406,7179.997637,919.314598
541.906204,5329.482782,9252.574275,1915.238745
541.906525,6069.688724,10584.944971,2757.943793
541.906845,7105.977043,10288.862594,3600.648841
541.907166,7105.977043,9178.553681,3753.867940
541.907486,6513.812290,7698.141797,3064.381992
541.907807,5477.523971,7624.121203,2681.334243
541.908128,5551.544565,7550.100608,2374.896044
541.908448,5921.647536,8438.347739,2145.067394
541.908769,7105.977043,8586.388927,2451.505594
541.909089,7105.977043,8512.368333,3294.210641
541.909410,6957.935855,8290.306550,4903.011187
541.909731,6513.812290,7846.182985,5209.449386
541.910051,6513.812290,7550.100608,4903.011187
541.910372,7105.977043,7402.059420,4903.011187
541.910692,7624.121203,7476.080014,5975.544884
541.911013,7476.080014,8290.306550,6281.983084
541.911334,7031.956449,8882.471304,6435.202183
541.911654,6883.915261,8512.368333,7354.516781
541.911975,6439.791695,7994.224174,7354.516781
541.912296,6365.771101,7624.121203,7354.516781
541.912616,5921.647536,6661.853478,7201.297681
541.912937,5107.421000,5255.462188,6665.030833
541.913257,5255.462188,4589.276840,7201.297681
541.913578,5107.421000,5625.565159,7201.297681
541.913899,5699.585753,7179.997637,6358.592633
541.914219,6069.688724,7994.224174,5669.106685
541.914540,5625.565159,8734.430116,5439.278036
541.914860,5477.523971,8808.450710,6205.373534
541.915181,5403.503377,7550.100608,7354.516781
541.915502,4737.318029,6957.935855,7660.954980
541.915822,3849.070898,6365.771101,7507.735880
541.916143,2738.761985,6439.791695,6741.640382
541.916463,2664.741391,6143.709319,6052.154434
541.916784,2220.617826,6143.709319,6205.373534
541.917105,2886.803174,5847.626942,6665.030833
541.917425,3108.864956,5181.441594,6665.030833
541.917746,2738.761985,6735.874072,6511.811733
541.918066,2812.782580,6587.832884,6281.983084
541.918387,2960.823768,7328.038826,6358.592633
541.918708,4071.132681,8142.265362,6052.154434
541.919028,4071.132681,8586.388927,6205.373534
541.919349,3923.091493,8512.368333,5132.839837
541.919669,4293.194464,7550.100608,4749.792088
541.919990,3923.091493,6587.832884,4979.620737
541.920311,3478.967927,5255.462188,5209.449386
541.920631,3034.844362,4515.256246,3753.867940
541.920952,3552.988522,4293.194464,2528.115143
541.921273,4071.132681,5255.462188,2374.896044
541.921593,5255.462188,7179.997637,2681.334243
541.921914,5551.544565,9400.615463,2911.162892
541.922234,6587.832884,10955.047942,2604.724693
541.922555,7105.977043,11695.253884,2451.505594
541.922876,7254.018232,11029.068536,3524.039291
541.923196,6735.874072,10066.800811,4519.963438
541.923517,5625.565159,9474.636058,5745.716235
541.923837,5255.462188,9474.636058,5132.839837
541.924158,4589.276840,9178.553681,5056.230287
541.924479,3552.988522,7698.141797,4290.134789
541.924799,2590.720797,4663.297435,2528.115143
541.925120,3182.885551,2442.679609,1685.410096
541.925440,4441.235652,2664.741391,1608.800546
541.925761,5403.503377,6365.771101,766.095498
541.926082,7179.997637,11029.068536,-536.266849
541.926402,9844.739029,15470.304188,-2451.505594
541.926723,10807.006753,18653.189738,-383.047749
541.927043,10510.924376,18727.210333,2221.676944
541.927364,9252.574275,15766.386565,4519.963438
541.927685,7179.997637,11177.109724,5669.106685
541.928005,4885.359217,7179.997637,7277.907231
541.928326,5107.421000,6217.729913,8580.269578
541.928646,1406.391290,5847.626942,6665.030833
541.928967,-296.082377,5847.626942,4673.182538
541.929288,1628.453072,5403.503377,3524.039291
541.929608,3478.967927,5181.441594,3600.648841
541.929929,3923.091493,5551.544565,3140.991542
541.930249,6809.894666,8216.285956,3524.039291
541.930570,7328.038826,12139.377449,2221.676944
541.930891,6365.771101,14878.139434,2451.505594
541.931211,6661.853478,15100.201217,1762.019645
541.931532,10288.862594,14359.995275,1685.410096
541.931853,7920.203579,12583.501014,3753.867940
541.932173,5255.462188,8364.327145,5439.278036
541.932494,5551.544565,5625.565159,6052.154434
541.932814,2368.659014,3923.091493,6971.469032
541.933135,74.020594,3997.112087,6205.373534
541.933456,2590.720797,5551.544565,5056.230287
541.933776,5033.400406,6883.915261,5286.058936
541.934097,3923.091493,6661.853478,6971.469032
541.934417,4811.338623,5921.647536,9422.974625
541.934738,7105.977043,7920.203579,9729.412825
541.935059,4737.318029,11695.253884,9116.536426
541.935379,1554.432478,11547.212695,7048.078582
541.935700,3034.844362,9326.594869,4443.353888
541.936020,5255.462188,6365.771101,4443.353888
541.936341,3701.029710,4367.215058,7967.393179
541.936662,5847.626942,6883.915261,10495.508323
541.936982,2738.761985,9104.533087,8044.002729
541.937303,1480.411884,10510.924376,4979.620737
541.937623,2368.659014,7402.059420,4749.792088
541.937944,4663.297435,3552.988522,6052.154434
541.938265,4737.318029,1554.432478,8197.221829
541.938585,5699.585753,3701.029710,9499.584175
541.938906,5847.626942,8068.244768,6894.859482
541.939226,3775.050304,9992.780217,4903.011187
541.939547,3108.864956,8882.471304,3753.867940
541.939868,4515.256246,6143.709319,5439.278036
541.940188,3627.009116,4885.359217,8120.612279
541.940509,2220.617826,5773.606348,9806.022374
541.940829,4441.235652,8364.327145,9499.584175
541.941150,3182.885551,10807.006753,6511.811733
541.941471,2664.741391,11695.253884,4979.620737
541.941791,2886.803174,10584.944971,4213.525239
541.942112,4145.153275,8364.327145,4290.134789
541.942433,2294.638420,4737.318029,5822.325785
541.942753,3330.926739,1850.514855,6665.030833
541.943074,5921.647536,2812.782580,7048.078582
541.943394,4959.379811,5551.544565,7048.078582
541.943715,3701.029710,7476.080014,4749.792088
541.944036,6291.750507,9992.780217,2451.505594
541.944356,5625.565159,11843.295072,3677.258390
541.944677,6143.709319,11029.068536,5975.544884
541.944997,8734.430116,10214.842000,6511.811733
541.945318,7920.203579,9696.697840,4519.963438
541.945639,4367.215058,7994.224174,1915.238745
541.945959,4071.132681,5847.626942,766.095498
541.946280,5255.462188,6587.832884,1991.848295
541.946600,4811.338623,7994.224174,5515.887586
541.946921,4367.215058,9474.636058,6281.983084
541.947242,6143.709319,10510.924376,4136.915689
541.947562,4959.379811,11325.150913,2987.772442
541.947883,3923.091493,10140.821405,3524.039291
541.948203,5181.441594,9474.636058,3370.820191
541.948524,5921.647536,9400.615463,4596.572988
541.948845,4293.194464,9400.615463,5515.887586
541.949165,5033.400406,10214.842000,4596.572988
541.949486,5995.668130,11621.233289,2757.943793
541.949806,4589.276840,11251.130318,3370.820191
541.950127,4885.359217,9474.636058,4979.620737
541.950448,7031.956449,7105.977043,5362.668486
541.950768,5921.647536,5773.606348,4519.963438
541.951089,5403.503377,6809.894666,3600.648841
541.951409,5329.482782,8142.265362,2068.457845
541.951730,6143.709319,8660.409521,2451.505594
541.952051,8216.285956,9696.697840,4213.525239
541.952371,8068.244768,9770.718434,4136.915689
541.952692,6291.750507,8142.265362,2528.115143
541.953013,6365.771101,8290.306550,2757.943793
541.953333,6069.688724,9474.636058,4136.915689
541.953654,4959.379811,10510.924376,3524.039291
541.953974,5255.462188,9400.615463,3294.210641
541.954295,4737.318029,7698.141797,3907.087040
541.954616,4441.235652,7550.100608,7201.297681
541.954936,2886.803174,8290.306550,9116.536426
541.955257,592.164754,7698.141797,6052.154434
541.955577,222.061783,5625.565159,3140.991542
541.955898,2368.659014,5699.585753,4213.525239
541.956219,4737.318029,7698.141797,5362.668486
541.956539,6291.750507,10881.027347,5898.935335
541.956860,3923.091493,13545.768739,3447.429741
541.957180,1184.329507,12657.521608,2451.505594
541.957501,2442.679609,8956.491898,5822.325785
541.957822,4145.153275,4811.338623,8350.440928
541.958142,3256.906145,3552.988522,7201.297681
541.958463,3256.906145,5625.565159,4903.011187
541.958783,3256.906145,7179.997637,2528.115143
541.959104,4515.256246,6661.853478,2374.896044
541.959425,7328.038826,5107.421000,4903.011187
541.959745,9104.533087,4663.297435,6511.811733
541.960066,7624.121203,6365.771101,5669.106685
541.960386,4441.235652,7698.141797,5132.839837
541.960707,4293.194464,6143.709319,3830.477490
541.961028,8142.265362,4811.338623,4366.744339
541.961348,9030.512492,6439.791695,4826.401637
541.961669,5477.523971,8438.347739,3370.820191
541.961989,3108.864956,8364.327145,1915.238745
541.962310,3108.864956,7624.121203,1149.143247
541.962631,3404.947333,4589.276840,1685.410096
541.962951,3330.926739,3404.947333,2834.553343
541.963272,3775.050304,5477.523971,2987.772442
541.963593,1480.411884,7772.162391,1991.848295
541.963913,1850.514855,8808.450710,766.095498
541.964234,4959.379811,9918.759623,766.095498
541.964554,5625.565159,10140.821405,2298.286494
541.964875,5255.462188,11547.212695,3983.696590
541.965196,5255.462188,11325.150913,3064.381992
541.965516,2960.823768,8956.491898,1225.752797
541.965837,3478.967927,7698.141797,1838.629195
541.966157,4515.256246,8142.265362,4136.915689
541.966478,4367.215058,9474.636058,4749.792088
541.966799,3330.926739,10288.862594,2681.334243
541.967119,2516.700203,8142.265362,-995.924147
541.967440,3404.947333,5477.523971,-1838.629195
541.967760,5255.462188,5699.585753,919.314598
541.968081,5773.606348,8068.244768,1532.190996
541.968402,5403.503377,9474.636058,-842.705048
541.968722,6291.750507,10066.800811,-3140.991542
541.969043,7920.203579,10584.944971,-2911.162892
541.969363,8438.347739,10362.883188,-306.438199
541.969684,8438.347739,10658.965565,1302.362347
541.970005,9178.553681,12435.459826,-766.095498
541.970325,6957.935855,11621.233289,-2528.115143
541.970646,7698.141797,8882.471304,-1225.752797
541.970966,7550.100608,6661.853478,229.828649
541.971287,4959.379811,4737.318029,-383.047749
541.971608,4145.153275,4811.338623,-153.219100
541.971928,6291.750507,6809.894666,-1225.752797
541.972249,5921.647536,6661.853478,-2145.067394
541.972569,5329.482782,5921.647536,-1302.362347
541.972890,6587.832884,8364.327145,-383.047749
541.973211,7031.956449,11695.253884,-536.266849
541.973531,5033.400406,12435.459826,-153.219100
541.973852,5847.626942,11325.150913,-1378.971896
541.974173,7328.038826,10510.924376,-1915.238745
541.974493,4885.359217,9474.636058,0.000000
541.974814,3256.906145,7105.977043,842.705048
541.975134,3552.988522,7179.997637,-459.657299
541.975455,3256.906145,8512.368333,-689.485948
541.975776,2220.617826,8512.368333,153.219100
541.976096,4219.173869,6809.894666,1378.971896
541.976417,3627.009116,5329.482782,2451.505594
541.976737,3775.050304,6291.750507,3370.820191
541.977058,2886.803174,6291.750507,612.876398
541.977379,3034.844362,6143.709319,-2757.943793
541.977699,4737.318029,5773.606348,-2757.943793
541.978020,7698.141797,7846.182985,-1149.143247
541.978340,7328.038826,9178.553681,-1532.190996
541.978661,5773.606348,9918.759623,-2834.553343
541.978982,6735.874072,9622.677246,-4060.306139
541.979302,6809.894666,9474.636058,-3370.820191
541.979623,6661.853478,8956.491898,-383.047749
541.979943,6439.791695,8364.327145,1225.752797
541.980264,5995.668130,7994.224174,536.266849
541.980585,4071.132681,6143.709319,1072.533697
541.980905,3849.070898,5847.626942,536.266849
541.981226,3849.070898,5551.544565,306.438199
541.981546,4145.153275,6439.791695,536.266849
541.981867,3849.070898,5995.668130,306.438199
541.982188,3775.050304,6291.750507,153.219100
541.982508,4589.276840,8586.388927,612.876398
541.982829,4441.235652,10436.903782,1762.019645
541.983150,3627.009116,9326.594869,1072.533697
541.983470,4441.235652,9326.594869,153.219100
541.983791,4959.379811,9844.739029,0.000000
541.984112,4737.318029,9030.512492,-612.876398
541.984432,5181.441594,7031.956449,-1149.143247
541.984753,4589.276840,6143.709319,-2834.553343
541.985074,4959.379811,7698.141797,-1991.848295
541.985394,4737.318029,8290.306550,0.000000
541.985715,5329.482782,7772.162391,383.047749
541.986036,3923.091493,5921.647536,919.314598
541.986356,3923.091493,5403.503377,536.266849
541.986677,4367.215058,4811.338623,-919.314598
541.986998,4811.338623,5921.647536,-1991.848295
541.987318,6291.750507,6957.935855,-3217.601092
541.987639,9548.656652,9918.759623,-4443.353888
541.987960,8586.388927,10955.047942,-4596.572988
541.988281,6809.894666,10732.986159,-3140.991542
541.988601,7550.100608,10214.842000,766.095498
541.988922,6735.874072,8956.491898,1225.752797
541.989243,5181.441594,8216.285956,-842.705048
541.989563,4737.318029,7772.162391,-2681.334243
541.989884,5847.626942,8068.244768,-1455.581446
541.990205,6291.750507,7772.162391,1225.752797
541.990525,5255.462188,7105.977043,1915.238745
541.990846,4145.153275,6809.894666,-766.095498
541.991167,3997.112087,8068.244768,-1762.019645
541.991487,2590.720797,6439.791695,766.095498
541.991808,3478.967927,4219.173869,1225.752797
541.992129,6735.874072,5625.565159,536.266849
541.992449,6217.729913,10362.883188,-1302.362347
541.992770,4663.297435,12065.356855,-2451.505594
541.993091,5699.585753,11325.150913,-2911.162892
541.993411,7920.203579,10881.027347,-2068.457845
541.993732,6735.874072,9474.636058,-229.828649
541.994053,5329.482782,7105.977043,-536.266849
541.994373,4589.276840,5699.585753,-3140.991542
541.994694,4367.215058,6883.915261,-2298.286494
541.995015,5329.482782,9474.636058,-76.609550
541.995336,5107.421000,9474.636058,-1532.190996
541.995656,4293.194464,7920.203579,-2145.067394
541.995977,3775.050304,8364.327145,-1532.190996
541.996298,4589.276840,8364.327145,0.000000
541.996618,4737.318029,8364.327145,536.266849
541.996939,4367.215058,7031.956449,612.876398
541.997260,3701.029710,6661.853478,-459.657299
541.997580,3552.988522,8512.368333,-842.705048
541.997901,3552.988522,9992.780217,306.438199
541.998222,4885.359217,9252.574275,842.705048
541.998542,6439.791695,7772.162391,-459.657299
541.998863,5773.606348,8142.265362,-1225.752797
541.999184,3923.091493,8808.450710,-306.438199
541.999504,4737.318029,7105.977043,536.266849
541.999825,4959.379811,5107.421000,766.095498
542.000146,5403.503377,5181.441594,0.000000
542.000466,5625.565159,8734.430116,-1762.019645
542.000787,4885.359217,9104.533087,-2451.505594
542.001108,5181.441594,7402.059420,-1378.971896
542.001429,6809.894666,7031.956449,0.000000
542.001749,6661.853478,7550.100608,-459.657299
542.002070,4663.297435,8068.244768,-1378.971896
542.002391,4663.297435,7846.182985,-1149.143247
542.002711,5551.544565,7179.997637,-919.314598
542.003032,5699.585753,6735.874072,-1378.971896
542.003353,5773.606348,6587.832884,-1685.410096
542.003673,6809.894666,7179.997637,-1302.362347
542.003994,5847.626942,8734.430116,-612.876398
542.004315,4367.215058,8882.471304,-1532.190996
542.004635,3404.947333,7994.224174,-2068.457845
542.004956,4441.235652,8068.244768,-995.924147
542.005277,4737.318029,8290.306550,1072.533697
542.005597,3775.050304,7698.141797,919.314598
542.005918,3775.050304,7994.224174,-1532.190996
542.006239,3108.864956,8586.388927,-1915.238745
542.006559,2590.720797,7105.977043,0.000000
542.006880,4219.173869,6661.853478,842.705048
542.007201,4811.338623,8734.430116,229.828649
542.007521,3997.112087,10436.903782,-919.314598
542.007842,5551.544565,10362.883188,-842.705048
542.008163,6069.688724,8364.327145,-383.047749
542.008484,5551.544565,7920.203579,-536.266849
542.008804,6217.729913,9030.512492,-229.828649
542.009125,5477.523971,9400.615463,-1838.629195
542.009446,5625.565159,8364.327145,-1838.629195
542.009766,7105.977043,7846.182985,-1302.362347
542.010087,6661.853478,7402.059420,-1838.629195
542.010408,5625.565159,7698.141797,-1685.410096
542.010728,6735.874072,9696.697840,-76.609550
542.011049,5107.421000,9696.697840,0.000000
542.011370,3923.091493,7105.977043,-306.438199
542.011690,5255.462188,6439.791695,383.047749
542.012011,6217.729913,7476.080014,689.485948
542.012332,4145.153275,7624.121203,536.266849
542.012652,4885.359217,9918.759623,-1762.019645
542.012973,5255.462188,10732.986159,-2604.724693
542.013294,4737.318029,9696.697840,-383.047749
542.013614,5477.523971,7179.997637,2604.724693
542.013935,4737.318029,7105.977043,1685.410096
542.014256,2220.617826,8216.285956,-306.438199
542.014577,2738.761985,9400.615463,-1838.629195
542.014897,4367.215058,7105.977043,-2221.676944
542.015218,4737.318029,4959.379811,153.219100
542.015539,6735.874072,6957.935855,2374.896044
542.015859,6217.729913,9326.594869,612.876398
542.016180,4589.276840,9474.636058,-2374.896044
542.016501,4959.379811,7328.038826,-919.314598
542.016821,7105.977043,6365.771101,306.438199
542.017142,7476.080014,6661.853478,1685.410096
542.017463,6513.812290,8142.265362,1378.971896
542.017783,5699.585753,10362.883188,-995.924147
542.018104,5255.462188,10362.883188,-2068.457845
542.018425,5181.441594,8956.491898,153.219100
542.018745,6735.874072,8142.265362,2221.676944
542.019066,4959.379811,6365.771101,2528.115143
542.019387,2368.659014,4663.297435,1302.362347
542.019707,1924.535449,5181.441594,229.828649
542.020028,2442.679609,6291.750507,229.828649
542.020349,3478.967927,6809.894666,766.095498
542.020670,4737.318029,6883.915261,842.705048
542.020990,5403.503377,9104.533087,-306.438199
542.021311,5181.441594,12657.521608,-306.438199
542.021632,4959.379811,13249.686362,0.000000
542.021952,4589.276840,8512.368333,-383.047749
542.022273,5329.482782,5773.606348,2374.896044
542.022594,5255.462188,7772.162391,4060.306139
542.022914,2220.617826,7994.224174,1685.410096
542.023235,1924.535449,7846.182985,-1378.971896
542.023556,4737.318029,8438.347739,-2145.067394
542.023876,4663.297435,8142.265362,-1455.581446
542.024197,3701.029710,5995.668130,-383.047749
542.024518,5181.441594,4737.318029,459.657299
542.024838,5107.421000,6291.750507,612.876398
542.025159,3552.988522,8142.265362,306.438199
542.025480,4441.235652,8882.471304,-306.438199
542.025800,6069.688724,9770.718434,-536.266849
542.026121,7328.038826,10288.862594,689.485948
542.026442,7624.121203,10066.800811,459.657299
542.026762,4737.318029,9104.533087,-1762.019645
542.027083,3627.009116,8660.409521,-1532.190996
542.027404,4515.256246,6439.791695,689.485948
542.027725,4219.173869,4145.153275,689.485948
542.028045,3923.091493,4737.318029,-153.219100
542.028366,4589.276840,8438.347739,-919.314598
542.028687,5773.606348,9548.656652,-1302.362347
542.029007,5995.668130,8734.430116,-612.876398
542.029328,6735.874072,8882.471304,-1149.143247
542.029649,5995.668130,9178.553681,-1838.629195
542.029969,5403.503377,7994.224174,-919.314598
542.030290,5551.544565,7550.100608,689.485948
542.030611,5995.668130,9326.594869,0.000000
542.030931,5477.523971,9992.780217,-1302.362347
542.031252,4441.235652,9548.656652,-2145.067394
542.031573,4367.215058,9252.574275,-1378.971896
542.031893,4737.318029,9252.574275,306.438199
542.032214,3849.070898,7846.182985,1608.800546
542.032535,3701.029710,7179.997637,0.000000
542.032855,2072.576638,6513.812290,-1302.362347
542.033176,2960.823768,6809.894666,1225.752797
542.033497,4737.318029,8216.285956,1455.581446
542.033818,4885.359217,9844.739029,-1915.238745
542.034138,4071.132681,11177.109724,-3064.381992
542.034459,5033.400406,9992.780217,-1608.800546
542.034780,6365.771101,10288.862594,919.314598
542.035100,5699.585753,10955.047942,2834.553343
542.035421,5329.482782,10362.883188,1225.752797
542.035742,5255.462188,8734.430116,-1225.752797
542.036062,4663.297435,7328.038826,-689.485948
542.036383,3404.947333,5921.647536,2451.505594
542.036704,6291.750507,5847.626942,2145.067394
542.037024,7179.997637,6883.915261,0.000000
542.037345,4441.235652,7328.038826,-1532.190996
542.037666,4811.338623,7698.141797,-306.438199
542.037986,8290.306550,9474.636058,1072.533697
542.038307,7179.997637,9326.594869,1608.800546
542.038628,4737.318029,7105.977043,1225.752797
542.038948,7179.997637,7846.182985,306.438199
542.039269,6957.935855,10140.821405,1608.800546
542.039590,4293.194464,9178.553681,2374.896044
542.039910,4663.297435,5995.668130,919.314598
542.040231,4589.276840,4219.173869,-1149.143247
542.040552,2812.782580,6217.729913,1838.629195
542.040873,3404.947333,7402.059420,4060.306139
542.041193,5107.421000,6291.750507,0.000000
542.041514,2960.823768,4959.379811,-2757.943793
542.041835,3256.906145,6661.853478,-612.876398
542.042155,5255.462188,9770.718434,1915.238745
542.042476,5699.585753,10362.883188,2374.896044
542.042797,4071.132681,8512.368333,-383.047749
542.043117,3849.070898,7105.977043,-3217.601092
542.043438,4515.256246,8068.244768,-689.485948
542.043759,3923.091493,8956.491898,3524.039291
542.044079,4293.194464,8956.491898,2374.896044
542.044400,5033.400406,8586.388927,-1378.971896
542.044721,2812.782580,7254.018232,-1149.143247
542.045041,1924.535449,5625.565159,2298.286494
542.045362,4145.153275,4885.359217,3753.867940
542.045683,5181.441594,5773.606348,1072.533697
542.046003,3404.947333,7031.956449,-1532.190996
542.046324,4959.379811,9326.594869,-2451.505594
542.046645,6957.935855,10214.842000,766.095498
542.046966,6661.853478,9326.594869,3370.820191
542.047286,5477.523971,8068.244768,2451.505594
542.047607,6735.874072,9474.636058,-1608.800546
542.047928,4367.215058,9326.594869,-2221.676944
542.048248,4367.215058,7698.141797,-1072.533697
542.048569,8660.409521,7179.997637,229.828649
542.048890,8142.265362,7920.203579,995.924147
542.049210,4663.297435,9178.553681,612.876398
542.049531,5181.441594,9548.656652,-383.047749
542.049852,5107.421000,9104.533087,-919.314598
542.050172,5403.503377,7179.997637,919.314598
542.050493,7328.038826,7105.977043,1915.238745
542.050814,6809.894666,8142.265362,1608.800546
542.051134,3997.112087,9474.636058,1225.752797
542.051455,4441.235652,11029.068536,1072.533697
542.051776,4589.276840,10658.965565,0.000000
542.052096,3552.988522,8734.430116,766.095498
542.052417,4071.132681,7031.956449,1608.800546
542.052738,4071.132681,6069.688724,766.095498
542.053058,2368.659014,5699.585753,-1072.533697
542.053379,3552.988522,7624.121203,-1608.800546
542.053700,5329.482782,8512.368333,-1685.410096
542.054021,4367.215058,8882.471304,-1302.362347
542.054341,5255.462188,11177.109724,306.438199
542.054662,6883.915261,11251.130318,-383.047749
542.054983,6217.729913,8290.306550,-1991.848295
542.055303,5699.585753,6513.812290,-153.219100
542.055624,6217.729913,6957.935855,306.438199
542.055945,5255.462188,7402.059420,306.438199
542.056265,4441.235652,6365.771101,-919.314598
542.056586,4367.215058,5255.462188,-2451.505594
542.056907,5181.441594,4885.359217,-1302.362347
542.057227,5773.606348,6735.874072,995.924147
542.057548,5699.585753,7105.977043,0.000000
542.057869,3182.885551,5477.523971,-2757.943793
542.058189,5847.626942,7179.997637,-4443.353888
542.058510,4367.215058,7698.141797,-3447.429741
542.058831,3627.009116,7402.059420,-1762.019645
542.059151,6143.709319,9104.533087,76.609550
542.059472,7920.203579,11769.274478,-1608.800546
542.059793,3849.070898,11473.192101,-3140.991542
542.060114,3108.864956,10362.883188,-1455.581446
542.060434,4145.153275,7105.977043,1225.752797
542.060755,4071.132681,4885.359217,2451.505594
542.061076,3552.988522,5477.523971,1532.190996
542.061396,2516.700203,6735.874072,-2451.505594
542.061717,1628.453072,6661.853478,-3983.696590
542.062038,4811.338623,5699.585753,-689.485948
542.062358,8364.327145,8068.244768,0.000000
542.062679,6587.832884,11029.068536,0.000000
542.063000,5551.544565,12879.583391,-1532.190996
542.063320,5477.523971,11769.274478,-2451.505594
542.063641,6809.894666,10066.800811,-1455.581446
542.063962,6809.894666,9030.512492,1149.143247
542.064282,7031.956449,9474.636058,459.657299
542.064603,6143.709319,10140.821405,-1991.848295
542.064924,5107.421000,11177.109724,-1378.971896
542.065244,4589.276840,9622.677246,383.047749
542.065565,5033.400406,6735.874072,1991.848295
542.065886,5847.626942,6217.729913,3294.210641
542.066207,4293.194464,6883.915261,3064.381992
542.066527,4367.215058,7920.203579,0.000000
542.066848,6365.771101,8216.285956,-459.657299
542.067169,7772.162391,9326.594869,1072.533697
542.067489,7105.977043,8734.430116,2221.676944
542.067810,7402.059420,11029.068536,1455.581446
542.068131,4663.297435,10584.944971,0.000000
542.068451,4441.235652,9030.512492,-612.876398
542.068772,6143.709319,6439.791695,612.876398
542.069093,5403.503377,5995.668130,612.876398
542.069413,3997.112087,7179.997637,536.266849
542.069734,4367.215058,9474.636058,0.000000
542.070055,4737.318029,8216.285956,-766.095498
542.070375,2960.823768,5033.400406,-612.876398
542.070696,4071.132681,4811.338623,1838.629195
542.071017,5107.421000,7105.977043,4366.744339
542.071337,3775.050304,8142.265362,3294.210641
542.071658,2590.720797,7179.997637,-536.266849
542.071979,3849.070898,7328.038826,-1762.019645
542.072299,4367.215058,7550.100608,1685.410096
542.072620,4145.153275,6735.874072,3524.039291
542.072941,4293.194464,5847.626942,1838.629195
542.073262,2886.803174,5625.565159,-1915.238745
542.073582,3849.070898,6069.688724,-1762.019645
542.073903,4737.318029,6513.812290,995.924147
542.074224,4293.194464,5773.606348,2681.334243
542.074544,5773.606348,7624.121203,612.876398
542.074865,5847.626942,9548.656652,-2145.067394
542.075186,3775.050304,7846.182985,-2451.505594
542.075506,5107.421000,5995.668130,0.000000
542.075827,7920.203579,6217.729913,1378.971896
542.076148,4885.359217,5773.606348,-383.047749
542.076468,3478.967927,5847.626942,-1455.581446
542.076789,6143.709319,8290.306550,-919.314598
542.077110,5033.400406,8068.244768,0.000000
542.077430,4737.318029,6661.853478,612.876398
542.077751,8068.244768,7994.224174,-306.438199
542.078072,5847.626942,9844.739029,-1991.848295
542.078392,3404.947333,8660.409521,-1455.581446
542.078713,5033.400406,6809.894666,-2145.067394
542.079034,5699.585753,6365.771101,-2757.943793
542.079355,4219.173869,8290.306550,-229.828649
542.079675,4811.338623,9104.533087,153.219100
542.079996,4737.318029,9992.780217,-4136.915689
542.080317,4663.297435,10955.047942,-4673.182538
542.080637,4441.235652,9992.780217,-1608.800546
542.080958,4515.256246,7254.018232,-1072.533697
542.081279,4737.318029,7328.038826,-842.705048
542.081599,4589.276840,8364.327145,-1991.848295
542.081920,3552.988522,8142.265362,-4443.353888
542.082241,6365.771101,9104.533087,-4136.915689
542.082561,6809.894666,9770.718434,-1608.800546
542.082882,6587.832884,10214.842000,-1225.752797
542.083203,7624.121203,11843.295072,-1378.971896
542.083523,6291.750507,12139.377449,-2298.286494
542.083844,4515.256246,10066.800811,-2374.896044
542.084165,5477.523971,7698.141797,-1072.533697
542.084485,5625.565159,7624.121203,-1378.971896
542.084806,4071.132681,8068.244768,-842.705048
542.085127,5033.400406,8882.471304,-1532.190996
542.085447,5625.565159,9030.512492,-3217.601092
542.085768,4959.379811,9770.718434,-2834.553343
542.086089,5625.565159,10214.842000,-153.219100
542.086409,5921.647536,9104.533087,459.657299
542.086730,5477.523971,7994.224174,306.438199
542.087050,6883.915261,10362.883188,383.047749
542.087371,5255.462188,10362.883188,-1302.362347
542.087691,3330.926739,8364.327145,-1991.848295
542.088012,6587.832884,7254.018232,76.609550
542.088332,7476.080014,8956.491898,766.095498
542.088653,5995.668130,9770.718434,153.219100
542.088974,4811.338623,9844.739029,-536.266849
542.089294,5699.585753,10140.821405,153.219100
542.089615,4737.318029,8290.306550,3907.087040
542.089935,4959.379811,6439.791695,5132.839837
542.090256,4959.379811,6069.688724,2451.505594
542.090576,3923.091493,7031.956449,536.266849
542.090897,3404.947333,7179.997637,306.438199
542.091218,4293.194464,6735.874072,0.000000
542.091538,4885.359217,6217.729913,1149.143247
542.091859,4959.379811,7698.141797,2757.943793
542.092179,3775.050304,7550.100608,1838.629195
542.092500,2368.659014,6957.935855,766.095498
542.092820,3478.967927,7179.997637,2068.457845
542.093141,4663.297435,8438.347739,2834.553343
542.093462,3627.009116,6957.935855,1455.581446
542.093782,2886.803174,5551.544565,76.609550
542.094103,3627.009116,5477.523971,229.828649
542.094423,3034.844362,5181.441594,1532.190996
542.094744,2960.823768,4589.276840,2374.896044
542.095064,2812.782580,4811.338623,612.876398
542.095385,3034.844362,6809.894666,-612.876398
542.095705,3701.029710,8734.430116,689.485948
542.096026,5403.503377,8734.430116,919.314598
542.096347,5551.544565,7105.977043,0.000000
542.096667,4737.318029,6439.791695,-459.657299
542.096988,4071.132681,6661.853478,0.000000
542.097308,5625.565159,7772.162391,536.266849
542.097629,5181.441594,6809.894666,-153.219100
542.097949,4589.276840,5255.462188,-1915.238745
542.098270,5033.400406,4959.379811,-1149.143247
542.098591,5773.606348,6439.791695,919.314598
542.098911,5403.503377,7772.162391,1225.752797
542.099232,6143.709319,7402.059420,-1532.190996
542.099552,5995.668130,7179.997637,-3447.429741
542.099873,5773.606348,7328.038826,-1455.581446
542.100193,6661.853478,8364.327145,1072.533697
542.100514,6587.832884,8734.430116,-306.438199
542.100835,6143.709319,9770.718434,-2987.772442
542.101155,6883.915261,11177.109724,-2911.162892
542.101476,5699.585753,11325.150913,-1685.410096
542.101796,5773.606348,9844.739029,-459.657299
542.102117,5329.482782,9622.677246,-459.657299
542.102437,3849.070898,8586.388927,-1608.800546
542.102758,3478.967927,8512.368333,-1072.533697
542.103079,5625.565159,9326.594869,-842.705048
542.103399,4071.132681,8956.491898,-2834.553343
542.103720,5329.482782,9474.636058,-3217.601092
542.104040,7105.977043,11103.089130,-1915.238745
542.104361,6957.935855,12435.459826,-612.876398
542.104681,6439.791695,12361.439231,0.000000
542.105002,7105.977043,11769.274478,-1302.362347
542.105322,6217.729913,10658.965565,-1685.410096
542.105643,4367.215058,9548.656652,842.705048
542.105964,4515.256246,8142.265362,1532.190996
542.106284,5255.462188,8512.368333,-1072.533697
542.106605,4663.297435,9326.594869,-2298.286494
542.106925,2812.782580,9326.594869,-1378.971896
542.107246,4441.235652,7772.162391,0.000000
542.107566,6661.853478,8364.327145,1149.143247
542.107887,5625.565159,8734.430116,306.438199
542.108208,4515.256246,8364.327145,-919.314598
542.108528,6069.688724,9400.615463,-689.485948
542.108849,5847.626942,10362.883188,1455.581446
542.109169,5699.585753,9178.553681,1685.410096
542.109490,7328.038826,8364.327145,689.485948
542.109810,5255.462188,8142.265362,-1225.752797
542.110131,3478.967927,6365.771101,-612.876398
542.110452,3923.091493,4885.359217,-153.219100
542.110772,5403.503377,4515.256246,306.438199
542.111093,3997.112087,5847.626942,1532.190996
542.111413,3330.926739,6809.894666,1072.533697
542.111734,2664.741391,5995.668130,-842.705048
542.112054,4071.132681,6957.935855,0.000000
542.112375,4811.338623,6661.853478,2604.724693
542.112695,6069.688724,6883.915261,1685.410096
542.113016,5181.441594,7402.059420,-995.924147
542.113337,3034.844362,7476.080014,-995.924147
542.113657,3478.967927,6217.729913,1149.143247
542.113978,5477.523971,5773.606348,2145.067394
542.114298,4145.153275,4959.379811,1838.629195
542.114619,3182.885551,5033.400406,229.828649
542.114939,3849.070898,6587.832884,-229.828649
542.115260,3478.967927,5921.647536,612.876398
542.115581,3256.906145,4367.215058,1685.410096
542.115901,6291.750507,5033.400406,919.314598
542.116222,4885.359217,7328.038826,-1149.143247
542.116542,3256.906145,9104.533087,-306.438199
542.116863,5329.482782,8734.430116,-689.485948
542.117183,6143.709319,8068.244768,0.000000
542.117504,5995.668130,8216.285956,1072.533697
542.117825,6291.750507,10288.862594,919.314598
542.118145,5033.400406,11325.150913,-1378.971896
542.118466,3849.070898,10140.821405,-1302.362347
542.118786,5403.503377,8142.265362,0.000000
542.119107,6143.709319,7179.997637,919.314598
542.119427,4219.173869,7476.080014,2451.505594
542.119748,3256.906145,7846.182985,1302.362347
542.120068,4219.173869,7254.018232,-689.485948
542.120389,4071.132681,7254.018232,-1762.019645
542.120710,4959.379811,7994.224174,-459.657299
542.121030,7698.141797,9992.780217,0.000000
542.121351,7031.956449,11325.150913,536.266849
542.121671,6365.771101,11769.274478,1608.800546
542.121992,7328.038826,11103.089130,1072.533697
542.122312,6365.771101,10066.800811,536.266849
542.122633,4737.318029,8586.388927,459.657299
542.122954,5773.606348,7994.224174,-766.095498
542.123274,6957.935855,9326.594869,-1991.848295
542.123595,5255.462188,9178.553681,-1991.848295
542.123915,5255.462188,7105.977043,-1762.019645
542.124236,5921.647536,6587.832884,-842.705048
542.124556,4145.153275,8068.244768,536.266849
542.124877,2664.741391,8512.368333,-689.485948
542.125198,4811.338623,7624.121203,-2604.724693
542.125518,6587.832884,8734.430116,-919.314598
542.125839,6957.935855,11103.089130,1762.019645
542.126159,6809.894666,12065.356855,1915.238745
542.126480,5921.647536,11695.253884,-1532.190996
542.126800,3330.926739,8512.368333,-1762.019645
542.127121,3478.967927,5625.565159,0.000000
542.127441,5403.503377,5699.585753,1608.800546
542.127762,3552.988522,7031.956449,2298.286494
542.128083,2960.823768,7328.038826,1455.581446
542.128403,3552.988522,7031.956449,153.219100
542.128724,3775.050304,7254.018232,229.828649
542.129044,3478.967927,6439.791695,1991.848295
542.129365,4293.194464,4885.359217,459.657299
542.129685,4737.318029,5551.544565,-1838.629195
542.130006,5033.400406,7402.059420,-1608.800546
542.130327,6217.729913,9030.512492,76.609550
542.130647,7550.100608,8882.471304,-842.705048
542.130968,5329.482782,8512.368333,-1685.410096
542.131288,5033.400406,9474.636058,-76.609550
542.131609,6587.832884,10584.944971,1915.238745
542.131929,6439.791695,8216.285956,383.047749
542.132250,4219.173869,4811.338623,-1072.533697
542.132571,3849.070898,2886.803174,-1838.629195
542.132891,3256.906145,3478.967927,-383.047749
542.133212,3478.967927,6735.874072,1608.800546
542.133532,4219.173869,7328.038826,0.000000
542.133853,4071.132681,7550.100608,-2374.896044
542.134173,5033.400406,8882.471304,-2298.286494
542.134494,4589.276840,9770.718434,1838.629195
542.134814,5255.462188,9770.718434,3907.087040
542.135135,7328.038826,10214.842000,1532.190996
542.135456,3997.112087,9474.636058,-1532.190996
542.135776,1554.432478,7031.956449,-1532.190996
542.136097,4441.235652,7105.977043,1072.533697
542.136417,5403.503377,7698.141797,2068.457845
542.136738,2590.720797,6069.688724,-459.657299
542.137058,3775.050304,5847.626942,-2987.772442
