#time,accel_x,accel_y,accel_z
571.363790,4811.338623,7920.203579,0.000000
571.364111,5033.400406,7994.224174,-306.438199
571.364432,4885.359217,8364.327145,-612.876398
571.364753,4885.359217,8290.306550,-153.219100
571.365073,5033.400406,7698.141797,-153.219100
571.365394,5181.441594,8512.368333,-306.438199
571.365715,4885.359217,8142.265362,-153.219100
571.366036,4959.379811,8142.265362,-383.047749
571.366356,5329.482782,8438.347739,-306.438199
571.366677,4959.379811,8068.244768,-153.219100
571.366998,4959.379811,7920.203579,-306.438199
571.367318,4959.379811,7994.224174,-229.828649
571.367639,4959.379811,8290.306550,-459.657299
571.367960,5181.441594,7846.182985,76.609550
571.368281,5033.400406,8068.244768,-383.047749
571.368601,5107.421000,8216.285956,-383.047749
571.368922,5033.400406,7994.224174,-153.219100
571.369243,5033.400406,7994.224174,-306.438199
571.369563,4885.359217,8142.265362,229.828649
571.369884,5033.400406,8142.265362,-229.828649
571.370205,4959.379811,8216.285956,0.000000
571.370526,4811.338623,8290.306550,-153.219100
571.370846,5255.462188,7846.182985,0.000000
571.371167,5107.421000,8068.244768,-229.828649
571.371488,5255.462188,8216.285956,-612.876398
571.371809,5033.400406,7920.203579,0.000000
571.372129,4885.359217,7994.224174,-229.828649
571.372450,4885.359217,8142.265362,-229.828649
571.372771,4959.379811,8142.265362,0.000000
571.373091,4959.379811,7994.224174,76.609550
571.373412,5033.400406,8142.265362,0.000000
571.373733,4885.359217,7994.224174,0.000000
571.374054,4737.318029,7994.224174,-536.266849
571.374374,4589.276840,7476.080014,-612.876398
571.374695,4293.194464,7328.038826,-229.828649
571.375016,4367.215058,8660.409521,-306.438199
571.375337,4515.256246,9622.677246,-459.657299
571.375657,4589.276840,9844.739029,-1225.752797
571.375978,4811.338623,9622.677246,-1378.971896
571.376299,4219.173869,8956.491898,-689.485948
571.376619,3330.926739,8660.409521,153.219100
571.376940,3034.844362,9178.553681,919.314598
571.377261,2664.741391,9770.718434,459.657299
571.377582,2812.782580,9474.636058,1149.143247
571.377902,2664.741391,8364.327145,0.000000
571.378223,2738.761985,8068.244768,-536.266849
571.378544,2960.823768,9030.512492,153.219100
571.378864,2812.782580,9400.615463,229.828649
571.379185,2368.659014,9030.512492,459.657299
571.379506,2294.638420,8956.491898,0.000000
571.379827,2590.720797,9326.594869,0.000000
571.380147,2072.576638,10732.986159,-919.314598
571.380468,1924.535449,11843.295072,-1149.143247
571.380789,1776.494261,11917.315666,-1762.019645
571.381110,1036.288319,11251.130318,-1455.581446
571.381430,444.123565,11251.130318,-1532.190996
571.381751,-296.082377,11621.233289,-1149.143247
571.382072,-1184.329507,11991.336260,-383.047749
571.382392,-1554.432478,13175.665768,689.485948
571.382713,-1924.535449,12287.418637,919.314598
571.383034,-1258.350101,11695.253884,1378.971896
571.383355,-1258.350101,11843.295072,1991.848295
571.383675,-1480.411884,12435.459826,1302.362347
571.383996,-2812.782580,11843.295072,842.705048
571.384317,-2220.617826,10362.883188,-1072.533697
571.384638,-1258.350101,9622.677246,-229.828649
571.384958,-740.205942,9918.759623,995.924147
571.385279,0.000000,10510.924376,1149.143247
571.385600,0.000000,11325.150913,0.000000
571.385920,592.164754,11843.295072,-1455.581446
571.386241,1258.350101,11547.212695,-1455.581446
571.386562,2294.638420,10732.986159,-459.657299
571.386883,3034.844362,10510.924376,229.828649
571.387203,3478.967927,10140.821405,-306.438199
571.387524,2220.617826,9696.697840,-1991.848295
571.387845,2072.576638,9400.615463,-2757.943793
571.388165,2294.638420,9622.677246,-1608.800546
571.388486,2368.659014,9844.739029,229.828649
571.388807,1998.556043,10214.842000,0.000000
571.389128,1554.432478,10658.965565,-306.438199
571.389448,740.205942,11399.171507,-306.438199
571.389769,0.000000,11029.068536,306.438199
571.390090,0.000000,10214.842000,1149.143247
571.390411,0.000000,9992.780217,1149.143247
571.390731,0.000000,9918.759623,1072.533697
571.391052,-296.082377,10510.924376,1149.143247
571.391373,-1184.329507,11103.089130,689.485948
571.391693,-296.082377,11399.171507,919.314598
571.392014,1184.329507,11399.171507,1149.143247
571.392335,1702.473667,10807.006753,459.657299
571.392656,1554.432478,10881.027347,-383.047749
571.392976,1850.514855,10436.903782,-1225.752797
571.393297,1406.391290,10214.842000,-1378.971896
571.393618,1332.370696,9622.677246,-612.876398
571.393939,1924.535449,8734.430116,612.876398
571.394259,2368.659014,8586.388927,536.266849
571.394580,1776.494261,9918.759623,229.828649
571.394901,1924.535449,10732.986159,0.000000
571.395221,2146.597232,11029.068536,459.657299
571.395542,2738.761985,10436.903782,-842.705048
571.395863,2664.741391,9696.697840,-1225.752797
571.396184,3182.885551,9474.636058,-919.314598
571.396504,2664.741391,9992.780217,-612.876398
571.396825,1554.432478,10658.965565,-536.266849
571.397146,1258.350101,11399.171507,-153.219100
571.397466,1184.329507,11325.150913,-612.876398
571.397787,1036.288319,11325.150913,-1149.143247
571.398108,222.061783,11103.089130,-1991.848295
571.398429,-740.205942,9918.759623,-2068.457845
571.398749,-1776.494261,8956.491898,-1302.362347
571.399070,-1850.514855,8660.409521,689.485948
571.399391,-814.226536,10140.821405,2374.896044
571.399712,-444.123565,11991.336260,2374.896044
571.400032,222.061783,13545.768739,1762.019645
571.400353,296.082377,13989.892304,842.705048
571.400674,1110.308913,12805.562797,-689.485948
571.400994,1998.556043,11103.089130,-536.266849
571.401315,2590.720797,10066.800811,-306.438199
571.401636,1554.432478,9326.594869,-995.924147
571.401957,148.041188,8660.409521,-1378.971896
571.402277,-1258.350101,9030.512492,-1915.238745
571.402598,-1776.494261,9770.718434,-1915.238745
571.402919,-666.185348,10288.862594,-1149.143247
571.403240,1406.391290,12065.356855,-153.219100
571.403560,1702.473667,13767.830521,0.000000
571.403881,1036.288319,14285.974681,-459.657299
571.404202,518.144159,14359.995275,-383.047749
571.404522,1110.308913,13101.645173,-612.876398
571.404843,1258.350101,10362.883188,-383.047749
571.405164,1258.350101,7994.224174,-383.047749
571.405485,1184.329507,7031.956449,-995.924147
571.405805,1480.411884,8660.409521,229.828649
571.406126,0.000000,11473.192101,1225.752797
571.406447,0.000000,11769.274478,1685.410096
571.406767,814.226536,10807.006753,612.876398
571.407088,148.041188,9696.697840,0.000000
571.407409,-370.102971,9326.594869,-306.438199
571.407730,148.041188,10362.883188,76.609550
571.408050,0.000000,12139.377449,-612.876398
571.408371,-148.041188,13101.645173,-1608.800546
571.408692,740.205942,13175.665768,-2221.676944
571.409013,1184.329507,13397.727550,-1838.629195
571.409333,0.000000,13841.851115,0.000000
571.409654,-592.164754,12139.377449,1149.143247
571.409975,296.082377,11029.068536,1838.629195
571.410295,0.000000,9548.656652,1378.971896
571.410616,-1406.391290,9030.512492,1378.971896
571.410937,-1924.535449,7550.100608,919.314598
571.411258,-1554.432478,7920.203579,306.438199
571.411578,-1258.350101,8956.491898,306.438199
571.411899,370.102971,10066.800811,0.000000
571.412220,2368.659014,12657.521608,153.219100
571.412541,2812.782580,13545.768739,-153.219100
571.412861,1702.473667,12879.583391,-383.047749
571.413182,1184.329507,9992.780217,-2451.505594
571.413503,1036.288319,6957.935855,-3217.601092
571.413823,2664.741391,6957.935855,-459.657299
571.414144,3775.050304,9918.759623,1915.238745
571.414465,1776.494261,12731.542202,536.266849
571.414786,888.247130,13989.892304,-2221.676944
571.415106,1332.370696,13323.706956,-3677.258390
571.415427,148.041188,9474.636058,-2145.067394
571.415748,-814.226536,6365.771101,-306.438199
571.416068,-814.226536,6217.729913,229.828649
571.416389,0.000000,10288.862594,153.219100
571.416710,-814.226536,14656.077652,1378.971896
571.417031,-2146.597232,14730.098246,153.219100
571.417351,-370.102971,14285.974681,-995.924147
571.417672,0.000000,14211.954086,0.000000
571.417993,-1036.288319,12361.439231,1685.410096
571.418314,-370.102971,10362.883188,1302.362347
571.418634,222.061783,8734.430116,536.266849
571.418955,148.041188,8808.450710,612.876398
571.419276,0.000000,8956.491898,1149.143247
571.419596,74.020594,10436.903782,689.485948
571.419917,888.247130,11103.089130,229.828649
571.420238,2516.700203,10955.047942,306.438199
571.420559,5033.400406,10732.986159,229.828649
571.420879,4145.153275,10955.047942,-689.485948
571.421200,3404.947333,10436.903782,-1225.752797
571.421521,3627.009116,10436.903782,-1838.629195
571.421842,1776.494261,8512.368333,-2681.334243
571.422162,1184.329507,7402.059420,-2757.943793
571.422483,3627.009116,9326.594869,-766.095498
571.422804,3330.926739,12287.418637,383.047749
571.423124,1554.432478,14730.098246,-153.219100
571.423445,592.164754,13397.727550,-1608.800546
571.423766,-296.082377,9548.656652,-1608.800546
571.424087,-2368.659014,7550.100608,689.485948
571.424407,-2664.741391,8660.409521,1455.581446
571.424728,-1776.494261,11325.150913,612.876398
571.425049,0.000000,14878.139434,-1455.581446
571.425369,-1110.308913,15100.201217,-1915.238745
571.425690,-1480.411884,13027.624579,-1225.752797
571.426011,-1702.473667,11473.192101,1762.019645
571.426332,-2664.741391,10066.800811,3830.477490
571.426652,-1406.391290,10066.800811,3677.258390
571.426973,-962.267725,9844.739029,842.705048
571.427294,-592.164754,10066.800811,-842.705048
571.427614,444.123565,9474.636058,-229.828649
571.427935,1480.411884,9252.574275,1149.143247
571.428256,1924.535449,8586.388927,459.657299
571.428576,3552.988522,8438.347739,-383.047749
571.428897,3923.091493,9548.656652,-612.876398
571.429218,3775.050304,10584.944971,-2374.896044
571.429539,4663.297435,11325.150913,-1225.752797
571.429859,4145.153275,11177.109724,-1455.581446
571.430180,4811.338623,9844.739029,-2145.067394
571.430501,3775.050304,6883.915261,-2451.505594
571.430821,2368.659014,6291.750507,-2145.067394
571.431142,814.226536,9918.759623,-612.876398
571.431463,-222.061783,12731.542202,-1149.143247
571.431784,-888.247130,12879.583391,-2145.067394
571.432104,1406.391290,10288.862594,-1532.190996
571.432425,888.247130,9326.594869,1149.143247
571.432746,-592.164754,10362.883188,2757.943793
571.433066,-1702.473667,13175.665768,2834.553343
571.433387,-3552.988522,14211.954086,1149.143247
571.433708,-2886.803174,11991.336260,-383.047749
571.434028,296.082377,9696.697840,0.000000
571.434349,518.144159,9474.636058,1149.143247
571.434670,-1258.350101,10807.006753,612.876398
571.434991,-2368.659014,12805.562797,1072.533697
571.435311,-1850.514855,13175.665768,-536.266849
571.435632,222.061783,12805.562797,-766.095498
571.435953,1628.453072,11029.068536,1762.019645
571.436273,2220.617826,10732.986159,919.314598
571.436594,1036.288319,10436.903782,153.219100
571.436915,296.082377,9992.780217,0.000000
571.437236,2294.638420,9474.636058,-842.705048
571.437556,4663.297435,9474.636058,-459.657299
571.437877,3849.070898,10288.862594,-229.828649
571.438198,2960.823768,9770.718434,-1991.848295
571.438518,1554.432478,8734.430116,-2451.505594
571.438839,2368.659014,9252.574275,-1532.190996
571.439160,2368.659014,10288.862594,0.000000
571.439481,1554.432478,11103.089130,-995.924147
571.439801,1998.556043,11399.171507,-1608.800546
571.440122,1480.411884,11695.253884,-2987.772442
571.440443,-962.267725,11177.109724,-2834.553343
571.440763,-592.164754,11917.315666,-306.438199
571.441084,-814.226536,12953.603985,1915.238745
571.441405,-1702.473667,12805.562797,1532.190996
571.441725,-1332.370696,11843.295072,1302.362347
571.442046,-2368.659014,11547.212695,0.000000
571.442367,-3256.906145,11843.295072,459.657299
571.442688,-3108.864956,12805.562797,3370.820191
571.443008,-3404.947333,11695.253884,3830.477490
571.443329,-2516.700203,9696.697840,2221.676944
571.443650,0.000000,10436.903782,3600.648841
571.443970,-148.041188,10955.047942,1455.581446
571.444291,-2146.597232,11399.171507,-1838.629195
571.444612,-370.102971,9696.697840,-2528.115143
571.444933,3552.988522,9622.677246,-612.876398
571.445253,5625.565159,9326.594869,2528.115143
571.445574,4441.235652,9622.677246,1838.629195
571.445895,3701.029710,10732.986159,-1915.238745
571.446215,1702.473667,10584.944971,-4290.134789
571.446536,3701.029710,9252.574275,-3064.381992
571.446857,6809.894666,7846.182985,0.000000
571.447177,5773.606348,6957.935855,-229.828649
571.447498,3108.864956,8290.306550,-1838.629195
571.447819,2886.803174,8660.409521,-2451.505594
571.448140,1480.411884,9030.512492,-2221.676944
571.448460,2738.761985,8882.471304,-1072.533697
571.448781,4145.153275,9252.574275,153.219100
571.449102,1480.411884,10881.027347,153.219100
571.449422,-222.061783,11695.253884,919.314598
571.449743,-1406.391290,10584.944971,995.924147
571.450064,-1036.288319,8660.409521,306.438199
571.450385,-444.123565,10140.821405,153.219100
571.450705,-1480.411884,13027.624579,1762.019645
571.451026,-2072.576638,14730.098246,1072.533697
571.451347,-1480.411884,13693.809927,689.485948
571.451667,-444.123565,11325.150913,-153.219100
571.451988,0.000000,9178.553681,-383.047749
571.452309,-962.267725,8290.306550,306.438199
571.452630,0.000000,9030.512492,1072.533697
571.452950,2590.720797,9696.697840,2451.505594
571.453271,3627.009116,7328.038826,2298.286494
571.453592,3256.906145,6883.915261,229.828649
571.453912,4515.256246,7328.038826,-612.876398
571.454233,5995.668130,10140.821405,-1991.848295
571.454554,5921.647536,9400.615463,-3370.820191
571.454874,7328.038826,6735.874072,-3983.696590
571.455195,10066.800811,5551.544565,-2681.334243
571.455516,7550.100608,8142.265362,-1685.410096
571.455837,6143.709319,9918.759623,-2374.896044
571.456157,6069.688724,9696.697840,-3447.429741
571.456478,5181.441594,8586.388927,-3600.648841
571.456799,7031.956449,8882.471304,-1302.362347
571.457119,5551.544565,9548.656652,0.000000
571.457440,1406.391290,8142.265362,-2528.115143
571.457761,740.205942,9252.574275,-2451.505594
571.458082,222.061783,9918.759623,306.438199
571.458402,-740.205942,9474.636058,2068.457845
571.458723,2516.700203,11621.233289,2681.334243
571.459044,-296.082377,13101.645173,1455.581446
571.459364,-1850.514855,15026.180623,459.657299
571.459685,888.247130,13175.665768,2221.676944
571.460006,-296.082377,8808.450710,1762.019645
571.460326,296.082377,5329.482782,1838.629195
571.460647,4441.235652,7402.059420,3294.210641
571.460968,2590.720797,9696.697840,1455.581446
571.461289,2738.761985,9474.636058,-1608.800546
571.461609,7624.121203,8142.265362,-1302.362347
571.461930,7920.203579,6439.791695,-1149.143247
571.462251,8142.265362,6217.729913,1762.019645
571.462571,9252.574275,6143.709319,2451.505594
571.462892,8290.306550,7772.162391,-1838.629195
571.463213,8808.450710,7402.059420,-3370.820191
571.463534,8808.450710,6809.894666,-3600.648841
571.463854,8290.306550,5773.606348,-3983.696590
571.464175,8364.327145,5995.668130,-1762.019645
571.464496,8068.244768,8586.388927,-766.095498
571.464816,5625.565159,9992.780217,-1532.190996
571.465137,5181.441594,9622.677246,-1149.143247
571.465458,2738.761985,7920.203579,-1378.971896
571.465779,1850.514855,6735.874072,383.047749
571.466099,3182.885551,9104.533087,3140.991542
571.466420,2294.638420,10732.986159,3753.867940
571.466741,0.000000,8882.471304,0.000000
571.467061,3478.967927,6883.915261,153.219100
571.467382,2072.576638,5995.668130,2298.286494
571.467703,2072.576638,5773.606348,4290.134789
571.468023,3701.029710,7328.038826,4903.011187
571.468344,2516.700203,5847.626942,2374.896044
571.468665,6143.709319,5033.400406,536.266849
571.468986,10214.842000,6217.729913,1608.800546
571.469306,7476.080014,5625.565159,-1455.581446
571.469627,8364.327145,6587.832884,-4826.401637
571.469948,9696.697840,6291.750507,-2298.286494
571.470268,8734.430116,7105.977043,-919.314598
571.470589,10362.883188,7105.977043,919.314598
571.470910,10510.924376,7698.141797,-1762.019645
571.471231,5921.647536,7105.977043,-6588.421283
571.471551,5255.462188,8512.368333,-4903.011187
571.471872,7105.977043,7624.121203,-2068.457845
571.472193,5995.668130,5107.421000,459.657299
571.472513,6069.688724,4663.297435,3370.820191
571.472834,5921.647536,8586.388927,3294.210641
571.473155,2220.617826,11177.109724,306.438199
571.473475,1480.411884,10214.842000,-2681.334243
571.473796,4811.338623,8142.265362,-2604.724693
571.474117,5033.400406,5995.668130,842.705048
571.474438,4663.297435,7328.038826,4596.572988
571.474758,3627.009116,9474.636058,1762.019645
571.475079,518.144159,10881.027347,-3907.087040
571.475400,1850.514855,11547.212695,-3600.648841
571.475720,3108.864956,12953.603985,0.000000
571.476041,3923.091493,11695.253884,2374.896044
571.476362,4737.318029,10362.883188,3294.210641
571.476683,4589.276840,11547.212695,2298.286494
571.477003,2886.803174,10214.842000,0.000000
571.477324,1110.308913,8142.265362,-1608.800546
571.477645,2812.782580,6217.729913,-919.314598
571.477965,4441.235652,7402.059420,995.924147
571.478286,2590.720797,8512.368333,2681.334243
571.478607,3923.091493,9548.656652,842.705048
571.478927,6439.791695,9992.780217,-1991.848295
571.479248,4293.194464,10510.924376,-3217.601092
571.479569,4737.318029,8734.430116,-1532.190996
571.479890,5107.421000,7105.977043,-1838.629195
571.480210,5255.462188,7179.997637,-383.047749
571.480531,6365.771101,7772.162391,76.609550
571.480852,5921.647536,8142.265362,-1532.190996
571.481172,6365.771101,7476.080014,-3600.648841
571.481493,7105.977043,9474.636058,-2911.162892
571.481814,6143.709319,8586.388927,-1225.752797
571.482135,6069.688724,6439.791695,153.219100
571.482455,6587.832884,5551.544565,2298.286494
571.482776,4589.276840,5625.565159,1685.410096
571.483097,3775.050304,5847.626942,229.828649
571.483417,5477.523971,5995.668130,-612.876398
571.483738,6143.709319,6809.894666,-1072.533697
571.484059,5699.585753,6143.709319,766.095498
571.484380,5773.606348,4737.318029,1378.971896
571.484700,7031.956449,5773.606348,689.485948
571.485021,6513.812290,8734.430116,459.657299
571.485342,6439.791695,10214.842000,-1685.410096
571.485662,8438.347739,7624.121203,-3064.381992
571.485983,8882.471304,5773.606348,-995.924147
571.486304,7994.224174,6365.771101,2528.115143
571.486624,7624.121203,7105.977043,3524.039291
571.486945,5033.400406,5921.647536,-306.438199
571.487266,6365.771101,7105.977043,-4596.572988
571.487587,6069.688724,7476.080014,-3677.258390
571.487907,5403.503377,7402.059420,-1532.190996
571.488228,7105.977043,8808.450710,2068.457845
571.488549,5921.647536,10584.944971,2987.772442
571.488869,4071.132681,12065.356855,1762.019645
571.489190,2664.741391,9992.780217,459.657299
571.489511,1258.350101,7402.059420,-1378.971896
571.489832,3849.070898,6735.874072,0.000000
571.490152,4219.173869,6439.791695,2221.676944
571.490473,2664.741391,7254.018232,919.314598
571.490794,2886.803174,8660.409521,0.000000
571.491114,4145.153275,10362.883188,229.828649
571.491435,3330.926739,10955.047942,229.828649
571.491756,4589.276840,9326.594869,306.438199
571.492076,4145.153275,8068.244768,-995.924147
571.492397,4737.318029,8216.285956,-2298.286494
571.492718,5181.441594,8808.450710,-766.095498
571.493039,4145.153275,9696.697840,76.609550
571.493359,4219.173869,9548.656652,-919.314598
571.493680,6217.729913,11843.295072,-919.314598
571.494001,3552.988522,12287.418637,-1455.581446
571.494321,1776.494261,9992.780217,-2604.724693
571.494642,3701.029710,7328.038826,0.000000
571.494963,5033.400406,5995.668130,2374.896044
571.495284,3627.009116,4959.379811,2911.162892
571.495604,3849.070898,4737.318029,1532.190996
571.495925,2072.576638,6513.812290,-766.095498
571.496246,3552.988522,7624.121203,766.095498
571.496566,5107.421000,7328.038826,2221.676944
571.496887,7402.059420,8438.347739,766.095498
571.497208,6069.688724,7920.203579,-1991.848295
571.497529,6883.915261,7698.141797,-3830.477490
571.497849,5921.647536,7179.997637,-4136.915689
571.498170,5181.441594,7476.080014,-1608.800546
571.498491,6957.935855,8956.491898,689.485948
571.498811,7105.977043,9696.697840,0.000000
571.499132,6735.874072,9474.636058,-919.314598
571.499453,6735.874072,9178.553681,689.485948
571.499773,4737.318029,5847.626942,306.438199
571.500094,5255.462188,2664.741391,0.000000
571.500415,5255.462188,3923.091493,1608.800546
571.500736,4737.318029,5699.585753,459.657299
571.501056,4959.379811,6439.791695,-536.266849
571.501377,6217.729913,7105.977043,-995.924147
571.501698,8290.306550,8512.368333,0.000000
571.502018,6439.791695,8216.285956,766.095498
571.502339,3775.050304,8438.347739,1072.533697
571.502660,5995.668130,10807.006753,-229.828649
571.502981,7105.977043,12583.501014,-153.219100
571.503301,5847.626942,10807.006753,-612.876398
571.503622,6587.832884,8734.430116,-2221.676944
571.503943,4737.318029,7402.059420,-3217.601092
571.504263,2442.679609,5773.606348,-1838.629195
571.504584,3627.009116,4441.235652,1302.362347
571.504905,4959.379811,4737.318029,2987.772442
571.505225,4811.338623,6957.935855,2757.943793
571.505546,5033.400406,9474.636058,1378.971896
571.505867,4811.338623,10732.986159,-536.266849
571.506188,4441.235652,9992.780217,-1072.533697
571.506508,6143.709319,7994.224174,153.219100
571.506829,7402.059420,5921.647536,-919.314598
571.507150,4737.318029,3923.091493,-2987.772442
571.507470,4219.173869,7105.977043,-3983.696590
571.507791,5477.523971,12287.418637,-3294.210641
571.508112,3923.091493,13175.665768,-1608.800546
571.508433,6365.771101,11843.295072,1072.533697
571.508753,8216.285956,11177.109724,1225.752797
571.509074,2516.700203,8586.388927,-459.657299
571.509395,1332.370696,5033.400406,-459.657299
571.509715,3256.906145,3701.029710,-689.485948
571.510036,2738.761985,5033.400406,229.828649
571.510357,4441.235652,7772.162391,2068.457845
571.510678,4959.379811,10214.842000,1225.752797
571.510998,3330.926739,10881.027347,-229.828649
571.511319,3923.091493,11695.253884,459.657299
571.511640,3701.029710,9548.656652,383.047749
571.511960,4293.194464,7698.141797,-1455.581446
571.512281,6143.709319,8142.265362,536.266849
571.512602,4071.132681,8882.471304,1378.971896
571.512922,2368.659014,9844.739029,-153.219100
571.513243,2072.576638,9696.697840,-2068.457845
571.513564,2960.823768,9178.553681,-2451.505594
571.513885,3997.112087,8438.347739,0.000000
571.514205,6143.709319,9104.533087,2681.334243
571.514526,6069.688724,8290.306550,2221.676944
571.514847,2960.823768,5403.503377,1302.362347
571.515167,2812.782580,3627.009116,1838.629195
571.515488,4367.215058,6365.771101,689.485948
571.515809,5181.441594,9178.553681,-1149.143247
571.516130,8364.327145,9400.615463,-2374.896044
571.516450,11547.212695,7698.141797,-1608.800546
571.516771,9326.594869,6735.874072,689.485948
571.517092,6883.915261,6069.688724,2528.115143
571.517412,5329.482782,4293.194464,229.828649
571.517733,5181.441594,3849.070898,-2604.724693
571.518054,8512.368333,6735.874072,-1915.238745
571.518374,9992.780217,7994.224174,153.219100
571.518695,7328.038826,8512.368333,-1608.800546
571.519016,5995.668130,8216.285956,-1762.019645
571.519337,4441.235652,9104.533087,919.314598
571.519657,3034.844362,8438.347739,1838.629195
571.519978,2738.761985,7624.121203,1378.971896
571.520299,3108.864956,8068.244768,-536.266849
571.520619,3108.864956,10807.006753,-459.657299
571.520940,3256.906145,12287.418637,2987.772442
571.521261,2442.679609,11029.068536,1991.848295
571.521582,2590.720797,6735.874072,-76.609550
571.521902,2960.823768,4145.153275,842.705048
571.522223,2738.761985,4885.359217,1762.019645
571.522544,2516.700203,6291.750507,2298.286494
571.522864,3701.029710,7328.038826,1225.752797
571.523185,7105.977043,8068.244768,-842.705048
571.523506,9178.553681,8512.368333,-995.924147
571.523826,7994.224174,7550.100608,0.000000
571.524147,7920.203579,7254.018232,-2604.724693
571.524468,7402.059420,7772.162391,-4673.182538
571.524788,7254.018232,8438.347739,-4366.744339
571.525109,6957.935855,8512.368333,-2757.943793
571.525429,8216.285956,9844.739029,-1072.533697
571.525750,7254.018232,11399.171507,76.609550
571.526071,3923.091493,12139.377449,-536.266849
571.526391,4071.132681,9326.594869,-1532.190996
571.526712,2294.638420,4885.359217,-1455.581446
571.527033,962.267725,1258.350101,919.314598
571.527353,3627.009116,5033.400406,3140.991542
571.527674,3034.844362,9696.697840,2528.115143
571.527994,296.082377,10881.027347,153.219100
571.528315,3923.091493,10362.883188,0.000000
571.528636,4737.318029,10362.883188,612.876398
571.528956,2368.659014,9696.697840,842.705048
571.529277,3034.844362,9104.533087,306.438199
571.529598,3552.988522,9252.574275,-2451.505594
571.529918,4145.153275,9178.553681,-1838.629195
571.530239,6069.688724,9474.636058,-306.438199
571.530559,4737.318029,9622.677246,-1915.238745
571.530880,5255.462188,11029.068536,-1762.019645
571.531201,3552.988522,10510.924376,2145.067394
571.531521,4589.276840,9696.697840,1915.238745
571.531842,7476.080014,5477.523971,1072.533697
571.532163,6069.688724,1850.514855,-229.828649
571.532483,5255.462188,4441.235652,-1838.629195
571.532804,5255.462188,7772.162391,-689.485948
571.533124,3997.112087,8956.491898,-689.485948
571.533445,6957.935855,7254.018232,-995.924147
571.533766,7624.121203,7698.141797,229.828649
571.534086,6661.853478,7994.224174,1838.629195
571.534407,4737.318029,11325.150913,76.609550
571.534728,3478.967927,10362.883188,-3447.429741
571.535048,4737.318029,7772.162391,-4136.915689
571.535369,7476.080014,7179.997637,-536.266849
571.535689,5329.482782,7105.977043,1455.581446
571.536010,3701.029710,7920.203579,229.828649
571.536331,3627.009116,9030.512492,-1225.752797
571.536651,5625.565159,9992.780217,-689.485948
571.536972,4589.276840,9400.615463,3217.601092
571.537293,4367.215058,6809.894666,3753.867940
571.537613,4663.297435,6069.688724,3447.429741
571.537934,1702.473667,7550.100608,2298.286494
571.538255,2368.659014,8068.244768,1149.143247
571.538575,3108.864956,5033.400406,-1762.019645
571.538896,4071.132681,3034.844362,-3217.601092
571.539216,5995.668130,5921.647536,153.219100
571.539537,4811.338623,10732.986159,2451.505594
571.539858,3997.112087,11843.295072,76.609550
571.540178,5625.565159,11473.192101,-1378.971896
571.540499,7254.018232,9104.533087,-1455.581446
571.540820,6735.874072,5921.647536,-766.095498
571.541140,5699.585753,4959.379811,0.000000
571.541461,5477.523971,6143.709319,-2145.067394
571.541781,5625.565159,8660.409521,-2068.457845
571.542102,6143.709319,6809.894666,-383.047749
571.542423,8586.388927,6439.791695,-612.876398
571.542743,7624.121203,7031.956449,229.828649
571.543064,3701.029710,7179.997637,0.000000
571.543385,4145.153275,7772.162391,-1149.143247
571.543705,4811.338623,7105.977043,-536.266849
571.544026,4737.318029,7031.956449,1608.800546
571.544346,5403.503377,7105.977043,2604.724693
571.544667,3775.050304,9400.615463,383.047749
571.544988,1702.473667,12287.418637,-1915.238745
571.545308,2368.659014,11251.130318,-1685.410096
571.545629,4589.276840,9252.574275,-1915.238745
571.545950,5921.647536,7254.018232,459.657299
571.546270,5107.421000,9844.739029,3524.039291
571.546591,4441.235652,11325.150913,1915.238745
571.546911,3478.967927,11251.130318,0.000000
571.547232,3849.070898,8660.409521,0.000000
571.547553,4367.215058,6957.935855,0.000000
571.547873,5329.482782,5477.523971,536.266849
571.548194,5033.400406,6069.688724,612.876398
571.548515,5921.647536,8882.471304,0.000000
571.548835,5329.482782,8216.285956,-995.924147
571.549156,4589.276840,8068.244768,-1532.190996
571.549476,5329.482782,7994.224174,-383.047749
571.549797,4959.379811,9548.656652,0.000000
571.550118,5033.400406,10140.821405,-689.485948
571.550438,6809.894666,8290.306550,-2451.505594
571.550759,6661.853478,6957.935855,-3600.648841
571.551080,6587.832884,6735.874072,-1302.362347
571.551400,4959.379811,7698.141797,1225.752797
571.551721,4515.256246,10066.800811,766.095498
571.552041,4737.318029,9252.574275,76.609550
571.552362,5477.523971,7920.203579,-1225.752797
571.552683,7476.080014,6291.750507,-689.485948
571.553003,5921.647536,6069.688724,-459.657299
571.553324,4145.153275,6069.688724,0.000000
571.553645,3108.864956,6735.874072,1072.533697
571.553965,4441.235652,6883.915261,689.485948
571.554286,4737.318029,7846.182985,229.828649
571.554606,4663.297435,9030.512492,-153.219100
571.554927,3182.885551,9548.656652,-2757.943793
571.555248,3997.112087,10362.883188,-2834.553343
571.555568,3701.029710,7772.162391,-689.485948
571.555889,3997.112087,5477.523971,919.314598
571.556210,4589.276840,5847.626942,2681.334243
571.556530,3330.926739,7920.203579,459.657299
571.556851,2368.659014,10066.800811,-1532.190996
571.557172,4589.276840,11029.068536,-1991.848295
571.557492,7105.977043,8882.471304,-76.609550
571.557813,6291.750507,6069.688724,842.705048
571.558133,6883.915261,4811.338623,1762.019645
571.558454,5477.523971,7772.162391,306.438199
571.558775,2960.823768,10881.027347,-1149.143247
571.559095,3923.091493,10584.944971,-2145.067394
571.559416,7920.203579,9178.553681,-2604.724693
571.559737,7994.224174,8290.306550,0.000000
571.560057,6365.771101,9548.656652,2987.772442
571.560378,2738.761985,8364.327145,1072.533697
571.560698,1184.329507,5551.544565,-1532.190996
571.561019,4811.338623,5921.647536,306.438199
571.561340,5477.523971,6957.935855,1608.800546
571.561660,4737.318029,7402.059420,-383.047749
571.561981,7179.997637,9474.636058,-2298.286494
571.562302,6439.791695,11991.336260,-1532.190996
571.562622,4737.318029,9844.739029,-919.314598
571.562943,5699.585753,6587.832884,689.485948
571.563263,7031.956449,5403.503377,689.485948
571.563584,7550.100608,9400.615463,1762.019645
571.563905,5625.565159,11251.130318,1991.848295
571.564225,3182.885551,8660.409521,-2221.676944
571.564546,5107.421000,5551.544565,-2834.553343
571.564867,7254.018232,5107.421000,1149.143247
571.565187,5107.421000,4959.379811,919.314598
571.565508,4441.235652,6661.853478,-612.876398
571.565828,4811.338623,8142.265362,-229.828649
571.566149,2738.761985,8364.327145,-229.828649
571.566470,4515.256246,7994.224174,1455.581446
571.566790,6069.688724,7698.141797,2604.724693
571.567111,4737.318029,8586.388927,-1072.533697
571.567432,6735.874072,9252.574275,-2681.334243
571.567752,5551.544565,9104.533087,-3677.258390
571.568073,3923.091493,7772.162391,-4519.963438
571.568393,6291.750507,8364.327145,-766.095498
571.568714,4441.235652,7550.100608,536.266849
571.569035,2368.659014,6513.812290,0.000000
571.569355,4885.359217,7105.977043,-306.438199
571.569676,3182.885551,7698.141797,-1532.190996
571.569997,4145.153275,7179.997637,76.609550
571.570317,5107.421000,8216.285956,2298.286494
571.570638,5329.482782,9992.780217,1149.143247
571.570958,3997.112087,7994.224174,0.000000
571.571279,4589.276840,7105.977043,76.609550
571.571600,5181.441594,7698.141797,-919.314598
571.571920,4515.256246,7402.059420,-536.266849
571.572241,5107.421000,8512.368333,-766.095498
571.572562,7031.956449,8512.368333,-1608.800546
571.572882,6735.874072,9992.780217,0.000000
571.573203,5477.523971,11325.150913,536.266849
571.573524,4811.338623,9104.533087,-1991.848295
571.573844,3627.009116,5921.647536,-3217.601092
571.574165,6291.750507,7031.956449,-612.876398
571.574485,6439.791695,9400.615463,536.266849
571.574806,5033.400406,9178.553681,-842.705048
571.575127,4367.215058,9474.636058,0.000000
571.575447,5773.606348,10362.883188,1532.190996
571.575768,5847.626942,9844.739029,3064.381992
571.576089,3997.112087,7402.059420,2681.334243
571.576409,4663.297435,7105.977043,536.266849
571.576730,6217.729913,9030.512492,459.657299
571.577050,4071.132681,7476.080014,2221.676944
571.577371,4589.276840,4219.173869,919.314598
571.577692,7920.203579,3330.926739,0.000000
571.578012,3627.009116,6513.812290,-1378.971896
571.578333,3330.926739,8512.368333,-2451.505594
571.578654,6365.771101,8068.244768,-2528.115143
571.578974,7994.224174,8142.265362,-1378.971896
571.579295,9104.533087,9252.574275,1302.362347
571.579615,7920.203579,8438.347739,1225.752797
571.579936,2590.720797,7920.203579,-2757.943793
571.580257,3478.967927,8734.430116,-1532.190996
571.580577,3997.112087,8734.430116,842.705048
571.580898,5033.400406,7105.977043,-76.609550
571.581219,5625.565159,6439.791695,459.657299
571.581539,2294.638420,7254.018232,-229.828649
571.581860,518.144159,7550.100608,306.438199
571.582180,1998.556043,7105.977043,1532.190996
571.582501,2072.576638,7328.038826,-459.657299
571.582822,3627.009116,7846.182985,459.657299
571.583142,5181.441594,9696.697840,995.924147
571.583463,3478.967927,10140.821405,-612.876398
571.583784,3849.070898,9474.636058,-306.438199
571.584104,5329.482782,7105.977043,-153.219100
571.584425,6809.894666,7328.038826,-536.266849
571.584745,5921.647536,8364.327145,76.609550
571.585066,5995.668130,8956.491898,-612.876398
571.585387,7105.977043,6735.874072,-1762.019645
571.585707,8808.450710,4737.318029,-1302.362347
571.586028,8216.285956,5921.647536,0.000000
571.586349,6661.853478,5995.668130,-842.705048
571.586669,6587.832884,6069.688724,-3753.867940
571.586990,7772.162391,7624.121203,-2757.943793
571.587310,6587.832884,8068.244768,-995.924147
571.587631,5551.544565,8142.265362,0.000000
571.587952,5995.668130,9326.594869,-306.438199
571.588272,5329.482782,11695.253884,-1072.533697
571.588593,5477.523971,13323.706956,0.000000
571.588914,4441.235652,10881.027347,-1149.143247
571.589234,3775.050304,7105.977043,-2451.505594
571.589555,3701.029710,7550.100608,689.485948
571.589876,3034.844362,9696.697840,3294.210641
571.590196,1702.473667,10140.821405,1991.848295
571.590517,4367.215058,7179.997637,153.219100
571.590837,4293.194464,5773.606348,-536.266849
571.591158,3923.091493,7105.977043,-153.219100
571.591479,3627.009116,8290.306550,536.266849
571.591799,2220.617826,8438.347739,-1072.533697
571.592120,4737.318029,7550.100608,-1072.533697
571.592441,7402.059420,9918.759623,383.047749
571.592761,5107.421000,11843.295072,-1072.533697
571.593082,4959.379811,13693.809927,-3294.210641
571.593402,6069.688724,14434.015869,-2068.457845
571.593723,5329.482782,12287.418637,1149.143247
571.594044,6735.874072,7328.038826,4213.525239
571.594364,5255.462188,3034.844362,2987.772442
571.594685,2220.617826,2294.638420,-612.876398
571.595006,1480.411884,3701.029710,-1378.971896
571.595326,2442.679609,4663.297435,-2528.115143
571.595647,6735.874072,4145.153275,-2374.896044
571.595967,10288.862594,6513.812290,0.000000
571.596288,7624.121203,9696.697840,1378.971896
571.596609,3552.988522,11325.150913,842.705048
571.596929,4441.235652,11473.192101,-919.314598
571.597250,5181.441594,8512.368333,-2834.553343
571.597571,5625.565159,5403.503377,-1532.190996
571.597891,8660.409521,7031.956449,1762.019645
571.598212,6957.935855,9548.656652,1991.848295
571.598532,3552.988522,8882.471304,-919.314598
571.598853,5403.503377,6809.894666,-1838.629195
571.599174,4663.297435,4589.276840,-842.705048
571.599494,4071.132681,2516.700203,919.314598
571.599815,6439.791695,3849.070898,2528.115143
571.600136,6291.750507,5403.503377,1225.752797
571.600456,5181.441594,7550.100608,-766.095498
571.600777,4737.318029,9178.553681,842.705048
571.601097,3849.070898,8882.471304,-459.657299
571.601418,5033.400406,9918.759623,-995.924147
571.601739,4293.194464,10288.862594,229.828649
571.602059,5033.400406,9474.636058,-536.266849
571.602380,6143.709319,9178.553681,-383.047749
571.602701,5181.441594,7698.141797,0.000000
571.603021,3478.967927,7328.038826,306.438199
571.603342,3627.009116,9252.574275,1838.629195
571.603662,2812.782580,8586.388927,919.314598
571.603983,4663.297435,6291.750507,536.266849
571.604304,7402.059420,4959.379811,306.438199
571.604624,6957.935855,9474.636058,-612.876398
571.604945,5477.523971,11325.150913,-1149.143247
571.605266,5255.462188,8956.491898,-1532.190996
571.605586,5181.441594,5921.647536,-1378.971896
571.605907,7179.997637,5181.441594,995.924147
571.606228,6661.853478,8586.388927,1225.752797
571.606548,4441.235652,10807.006753,-2221.676944
571.606869,6217.729913,11843.295072,-2145.067394
571.607189,7105.977043,10807.006753,766.095498
571.607510,5699.585753,6069.688724,2298.286494
571.607831,6735.874072,3701.029710,2528.115143
571.608151,3923.091493,6661.853478,76.609550
571.608472,592.164754,9770.718434,-689.485948
571.608793,3034.844362,9400.615463,-689.485948
571.609113,6143.709319,9474.636058,-1072.533697
571.609434,6513.812290,9178.553681,229.828649
571.609754,5033.400406,10955.047942,2451.505594
571.610075,1258.350101,11843.295072,459.657299
571.610396,1036.288319,9992.780217,-1915.238745
571.610716,1776.494261,6143.709319,-919.314598
571.611037,4811.338623,3997.112087,766.095498
571.611358,4663.297435,7624.121203,2068.457845
571.611678,3997.112087,11177.109724,1149.143247
571.611999,3108.864956,11325.150913,-1838.629195
571.612319,5403.503377,7105.977043,-2451.505594
571.612640,5847.626942,3923.091493,306.438199
571.612961,5773.606348,5921.647536,1915.238745
571.613281,6809.894666,10140.821405,383.047749
571.613602,4811.338623,10140.821405,-2145.067394
571.613923,5921.647536,10140.821405,-1685.410096
571.614243,9622.677246,8364.327145,1149.143247
571.614564,6143.709319,6661.853478,1762.019645
571.614884,1998.556043,5625.565159,-1455.581446
571.615205,2368.659014,5995.668130,-1608.800546
571.615526,3404.947333,7105.977043,-919.314598
571.615846,5033.400406,4737.318029,-229.828649
571.616167,8364.327145,3923.091493,1149.143247
571.616488,5551.544565,7328.038826,-383.047749
571.616808,2072.576638,10658.965565,-1225.752797
571.617129,3478.967927,10066.800811,-383.047749
571.617449,4885.359217,7031.956449,-2145.067394
571.617770,9252.574275,5033.400406,-995.924147
571.618091,8068.244768,7105.977043,689.485948
571.618411,4589.276840,9474.636058,-2604.724693
571.618732,4811.338623,12065.356855,-2757.943793
571.619053,6069.688724,12953.603985,-459.657299
571.619373,5033.400406,10288.862594,612.876398
571.619694,6217.729913,7698.141797,1532.190996
571.620014,4811.338623,5995.668130,1149.143247
571.620335,3701.029710,6661.853478,76.609550
571.620656,3034.844362,5033.400406,1685.410096
571.620976,4293.194464,5477.523971,229.828649
571.621297,5033.400406,5847.626942,76.609550
571.621618,4515.256246,8216.285956,1455.581446
571.621938,5625.565159,11103.089130,1685.410096
571.622259,5181.441594,11029.068536,-612.876398
571.622580,5329.482782,8512.368333,-2604.724693
571.622900,6513.812290,6735.874072,-2834.553343
571.623221,7105.977043,7031.956449,-1149.143247
571.623541,7105.977043,10214.842000,0.000000
571.623862,7550.100608,12361.439231,-536.266849
571.624183,6809.894666,11103.089130,-2374.896044
571.624503,6513.812290,9326.594869,-995.924147
571.624824,5329.482782,7846.182985,2221.676944
571.625145,4515.256246,6439.791695,3447.429741
571.625465,4071.132681,5921.647536,2221.676944
571.625786,2812.782580,6513.812290,0.000000
571.626106,4589.276840,7402.059420,-306.438199
571.626427,2368.659014,6143.709319,-76.609550
571.626748,2738.761985,5477.523971,306.438199
571.627068,3775.050304,8882.471304,1762.019645
571.627389,2368.659014,12879.583391,2221.676944
571.627709,2664.741391,11917.315666,-306.438199
571.628030,6365.771101,9622.677246,-1072.533697
571.628351,5329.482782,7105.977043,306.438199
571.628671,3849.070898,5995.668130,1532.190996
571.628992,3627.009116,5477.523971,1072.533697
571.629312,5403.503377,5255.462188,-2374.896044
571.629633,6513.812290,7254.018232,-3370.820191
571.629954,8512.368333,8586.388927,-1915.238745
571.630274,5699.585753,7254.018232,-1302.362347
571.630595,7031.956449,8364.327145,536.266849
571.630915,6365.771101,8290.306550,2451.505594
571.631236,3108.864956,6883.915261,1225.752797
571.631557,3701.029710,5699.585753,536.266849
571.631877,4663.297435,6809.894666,-1762.019645
571.632198,3997.112087,8586.388927,-2451.505594
571.632518,5329.482782,10066.800811,-1762.019645
571.632839,4441.235652,10658.965565,-1302.362347
571.633160,3256.906145,9474.636058,-229.828649
571.633480,3627.009116,6809.894666,2451.505594
571.633801,4885.359217,7328.038826,2681.334243
571.634121,3997.112087,8142.265362,306.438199
571.634442,2368.659014,7624.121203,-919.314598
571.634763,5995.668130,7698.141797,-2068.457845
571.635083,7328.038826,6957.935855,612.876398
571.635404,5477.523971,7402.059420,3447.429741
571.635725,7105.977043,9474.636058,2451.505594
571.636045,5625.565159,9400.615463,-2834.553343
571.636366,2738.761985,9030.512492,-5669.106685
571.636686,5847.626942,9252.574275,-2298.286494
571.637007,8290.306550,10066.800811,2068.457845
571.637328,7846.182985,11695.253884,3064.381992
571.637648,4959.379811,10140.821405,2221.676944
571.637969,3627.009116,9030.512492,-612.876398
571.638289,4367.215058,6957.935855,-612.876398
571.638610,2590.720797,3552.988522,919.314598
571.638931,4589.276840,3034.844362,1149.143247
571.639251,7105.977043,6735.874072,459.657299
571.639572,3034.844362,7624.121203,-842.705048
571.639892,6143.709319,8512.368333,-1608.800546
571.640213,9252.574275,8290.306550,-1149.143247
571.640534,5551.544565,7772.162391,-1838.629195
571.640854,4811.338623,7328.038826,-995.924147
571.641175,7772.162391,8068.244768,306.438199
571.641495,7624.121203,7920.203579,-1225.752797
571.641816,7031.956449,7624.121203,-766.095498
571.642137,5255.462188,8068.244768,-2604.724693
571.642457,4145.153275,8956.491898,-4060.306139
571.642778,3552.988522,10584.944971,-995.924147
571.643098,3108.864956,9844.739029,536.266849
571.643419,3256.906145,7698.141797,919.314598
571.643740,3552.988522,5477.523971,2145.067394
571.644060,1628.453072,6809.894666,1608.800546
571.644381,74.020594,8216.285956,229.828649
571.644701,-370.102971,8734.430116,-612.876398
571.645022,2220.617826,10288.862594,-1302.362347
571.645343,4811.338623,10288.862594,689.485948
571.645663,6661.853478,11547.212695,1532.190996
571.645984,3701.029710,10658.965565,383.047749
571.646305,2072.576638,9326.594869,-2374.896044
571.646625,3552.988522,8512.368333,-919.314598
571.646946,5551.544565,7994.224174,842.705048
571.647266,6587.832884,7254.018232,2374.896044
571.647587,7031.956449,8956.491898,612.876398
571.647908,4959.379811,8882.471304,-1532.190996
571.648228,4663.297435,7920.203579,-1532.190996
571.648549,5847.626942,6957.935855,459.657299
571.648869,6439.791695,6365.771101,1455.581446
571.649190,7254.018232,7624.121203,612.876398
571.649511,5773.606348,9252.574275,-1685.410096
571.649831,3923.091493,9844.739029,-2604.724693
571.650152,4589.276840,8290.306550,-689.485948
571.650472,8142.265362,6809.894666,2068.457845
571.650793,6957.935855,4959.379811,919.314598
571.651114,5403.503377,4959.379811,-612.876398
571.651434,5699.585753,9474.636058,-459.657299
571.651755,5625.565159,10436.903782,-919.314598
571.652075,4589.276840,6957.935855,-459.657299
571.652396,8956.491898,3849.070898,842.705048
571.652717,7624.121203,3997.112087,153.219100
571.653037,4885.359217,6513.812290,-1225.752797
571.653358,3775.050304,8882.471304,-2451.505594
571.653678,3849.070898,7920.203579,-3830.477490
571.653999,5773.606348,8068.244768,-1072.533697
571.654320,8142.265362,10807.006753,2911.162892
571.654640,5255.462188,11547.212695,1225.752797
571.654961,2664.741391,11251.130318,-1915.238745
571.655281,1036.288319,8586.388927,-842.705048
571.655602,1924.535449,6513.812290,1378.971896
571.655923,4737.318029,3478.967927,3830.477490
571.656243,3478.967927,3404.947333,2528.115143
571.656564,3627.009116,7772.162391,-1455.581446
571.656884,2590.720797,10881.027347,-2528.115143
571.657205,3849.070898,10658.965565,-1532.190996
571.657526,6735.874072,7772.162391,-1991.848295
571.657846,6439.791695,6661.853478,-766.095498
571.658167,5107.421000,9400.615463,306.438199
571.658488,4885.359217,10584.944971,-306.438199
571.658808,5477.523971,10732.986159,-1608.800546
571.659129,6587.832884,9252.574275,-1915.238745
571.659449,6661.853478,7698.141797,-1991.848295
571.659770,6291.750507,7402.059420,-229.828649
571.660091,5255.462188,7105.977043,0.000000
571.660411,5033.400406,5995.668130,383.047749
571.660732,5329.482782,6365.771101,306.438199
571.661052,4737.318029,6883.915261,-612.876398
571.661373,4663.297435,7920.203579,-1302.362347
571.661694,5403.503377,9696.697840,-1302.362347
571.662014,6513.812290,11251.130318,-1302.362347
571.662335,4663.297435,10584.944971,-306.438199
571.662655,3997.112087,9844.739029,-995.924147
571.662976,4145.153275,9992.780217,-612.876398
571.663297,3849.070898,10807.006753,459.657299
571.663617,2442.679609,10807.006753,536.266849
571.663938,2738.761985,8734.430116,0.000000
571.664258,4441.235652,9104.533087,229.828649
571.664579,1924.535449,8142.265362,1685.410096
571.664900,592.164754,5329.482782,2451.505594
571.665220,6809.894666,4515.256246,1455.581446
571.665541,6513.812290,5699.585753,689.485948
571.665861,4219.173869,8364.327145,-229.828649
571.666182,5625.565159,9770.718434,0.000000
571.666503,6291.750507,9104.533087,-919.314598
571.666823,8068.244768,7698.141797,0.000000
571.667144,9178.553681,7105.977043,-612.876398
571.667464,7402.059420,6143.709319,-4673.182538
571.667785,6587.832884,8068.244768,-6588.421283
571.668106,5255.462188,9474.636058,-3064.381992
571.668426,5551.544565,8364.327145,1225.752797
571.668747,7698.141797,8290.306550,3830.477490
571.669067,5847.626942,7846.182985,2681.334243
571.669388,2738.761985,8512.368333,-76.609550
571.669709,1554.432478,7402.059420,-1378.971896
571.670029,666.185348,4663.297435,-842.705048
571.670350,3849.070898,3701.029710,1532.190996
571.670671,5847.626942,5551.544565,2451.505594
571.670991,4811.338623,9104.533087,536.266849
571.671312,2294.638420,10510.924376,-1838.629195
571.671632,2886.803174,11177.109724,-1302.362347
571.671953,4441.235652,10955.047942,0.000000
571.672274,6513.812290,9696.697840,1455.581446
571.672594,6513.812290,7772.162391,2374.896044
571.672915,5773.606348,8882.471304,536.266849
571.673235,4663.297435,7920.203579,-306.438199
571.673556,4071.132681,6513.812290,-1455.581446
571.673877,4071.132681,5403.503377,-3064.381992
571.674197,5255.462188,6069.688724,-1225.752797
571.674518,5255.462188,8142.265362,2911.162892
571.674838,6439.791695,8364.327145,2374.896044
571.675159,6143.709319,8882.471304,1991.848295
571.675480,4737.318029,9770.718434,1149.143247
571.675800,3182.885551,9696.697840,-306.438199
571.676121,5181.441594,10510.924376,-1532.190996
571.676441,4959.379811,7550.100608,-1532.190996
571.676762,5477.523971,5847.626942,0.000000
571.677083,8512.368333,6217.729913,919.314598
571.677403,4367.215058,7698.141797,-842.705048
571.677724,2812.782580,8438.347739,-1762.019645
571.678044,5255.462188,8512.368333,-766.095498
571.678365,6957.935855,8290.306550,1149.143247
571.678686,8364.327145,7402.059420,2604.724693
571.679006,7772.162391,7105.977043,1149.143247
571.679327,3404.947333,5107.421000,-2987.772442
571.679647,4145.153275,5551.544565,-3294.210641
571.679968,5625.565159,6957.935855,-689.485948
571.680289,5773.606348,7179.997637,-1225.752797
571.680609,6735.874072,9400.615463,0.000000
571.680930,5551.544565,12361.439231,-383.047749
571.681251,4885.359217,13101.645173,-995.924147
571.681571,3775.050304,9326.594869,689.485948
571.681892,3775.050304,5773.606348,383.047749
571.682212,4663.297435,5995.668130,536.266849
571.682533,1702.473667,5773.606348,766.095498
571.682854,962.267725,6513.812290,-612.876398
571.683174,2220.617826,7624.121203,-766.095498
571.683495,3108.864956,9770.718434,-536.266849
571.683815,5329.482782,11325.150913,0.000000
571.684136,8364.327145,10658.965565,-1915.238745
571.684457,5403.503377,9992.780217,-2528.115143
571.684777,3478.967927,8364.327145,-1072.533697
571.685098,4515.256246,5773.606348,-229.828649
571.685418,5921.647536,6439.791695,0.000000
571.685739,6957.935855,8290.306550,76.609550
571.686060,6439.791695,9918.759623,-689.485948
571.686380,7476.080014,11843.295072,-1532.190996
571.686701,7328.038826,10881.027347,-919.314598
571.687021,4737.318029,7994.224174,1072.533697
571.687342,4589.276840,4663.297435,1915.238745
571.687663,7179.997637,3775.050304,1685.410096
571.687983,4293.194464,4737.318029,766.095498
571.688304,2812.782580,6809.894666,-1225.752797
571.688624,3849.070898,11843.295072,-1762.019645
571.688945,5033.400406,15248.242405,842.705048
571.689266,2516.700203,13027.624579,612.876398
571.689586,6217.729913,7846.182985,0.000000
571.689907,5699.585753,5699.585753,-383.047749
571.690227,0.000000,5477.523971,0.000000
571.690548,1110.308913,6735.874072,1991.848295
571.690869,2590.720797,7031.956449,459.657299
571.691189,5995.668130,7031.956449,0.000000
571.691510,8364.327145,9770.718434,1991.848295
571.691830,7031.956449,10881.027347,306.438199
571.692151,4441.235652,9622.677246,-2145.067394
571.692472,5773.606348,6365.771101,-689.485948
571.692792,5255.462188,3256.906145,-229.828649
571.693113,8438.347739,3034.844362,1991.848295
571.693434,7031.956449,4293.194464,1302.362347
571.693754,5625.565159,9844.739029,-3140.991542
571.694075,5477.523971,11769.274478,-3983.696590
571.694395,5847.626942,10140.821405,-1838.629195
571.694716,8216.285956,6291.750507,0.000000
571.695037,7846.182985,2368.659014,1378.971896
571.695357,4737.318029,4885.359217,766.095498
571.695678,4663.297435,8808.450710,-229.828649
571.695998,3404.947333,8290.306550,-1378.971896
571.696319,4589.276840,6809.894666,-1378.971896
571.696640,7328.038826,6587.832884,1225.752797
571.696960,4663.297435,8438.347739,2068.457845
571.697281,3182.885551,11769.274478,1225.752797
571.697601,1702.473667,11325.150913,-1149.143247
571.697922,3256.906145,10881.027347,-2987.772442
571.698243,5255.462188,10807.006753,-995.924147
571.698563,4367.215058,10584.944971,919.314598
571.698884,3849.070898,11399.171507,1455.581446
571.699204,2738.761985,11251.130318,3217.601092
571.699525,2294.638420,6661.853478,2068.457845
571.699846,3108.864956,3034.844362,1302.362347
571.700166,4071.132681,3997.112087,1685.410096
571.700487,3404.947333,9030.512492,76.609550
571.700807,4515.256246,11843.295072,-76.609550
571.701128,5921.647536,8956.491898,-1608.800546
571.701449,11325.150913,7920.203579,-612.876398
571.701769,9326.594869,7772.162391,0.000000
571.702090,6587.832884,8734.430116,-1532.190996
571.702410,7846.182985,10955.047942,-2451.505594
571.702731,6957.935855,10288.862594,-2068.457845
571.703052,8290.306550,7328.038826,-383.047749
571.703372,8882.471304,5033.400406,2068.457845
571.703693,4663.297435,5255.462188,-919.314598
571.704013,1850.514855,7920.203579,-1608.800546
571.704334,2590.720797,6143.709319,-1149.143247
571.704655,5773.606348,3256.906145,-1608.800546
571.704975,6439.791695,3256.906145,1302.362347
571.705296,4959.379811,6513.812290,3370.820191
571.705617,4885.359217,12657.521608,153.219100
571.705937,2886.803174,12731.542202,-2374.896044
571.706258,3404.947333,10288.862594,-2681.334243
571.706578,6661.853478,7031.956449,-1608.800546
571.706899,5847.626942,6069.688724,0.000000
571.707220,4367.215058,8808.450710,1685.410096
571.707540,3330.926739,11917.315666,766.095498
571.707861,2664.741391,10955.047942,-1915.238745
571.708181,4145.153275,6735.874072,-1762.019645
571.708502,5181.441594,3256.906145,1225.752797
571.708823,3923.091493,4219.173869,2911.162892
571.709143,2368.659014,7328.038826,2068.457845
571.709464,3256.906145,8438.347739,-459.657299
571.709784,6365.771101,7402.059420,-3064.381992
571.710105,7550.100608,6661.853478,-1149.143247
571.710426,7105.977043,8290.306550,1072.533697
571.710746,6069.688724,10584.944971,-1685.410096
571.711067,5477.523971,11473.192101,-2757.943793
571.711387,6883.915261,11103.089130,-2911.162892
571.711708,9252.574275,8734.430116,-1762.019645
571.712029,7031.956449,5773.606348,-229.828649
571.712349,5625.565159,5995.668130,306.438199
571.712670,5921.647536,9770.718434,919.314598
571.712990,5847.626942,11103.089130,842.705048
571.713311,4367.215058,8290.306550,-459.657299
571.713632,7476.080014,4071.132681,1225.752797
571.713952,6365.771101,3627.009116,2987.772442
571.714273,1998.556043,5329.482782,2834.553343
571.714593,1628.453072,7105.977043,919.314598
571.714914,3997.112087,9474.636058,-3140.991542
571.715235,4515.256246,10732.986159,-2604.724693
571.715555,5551.544565,11843.295072,612.876398
571.715876,4071.132681,13323.706956,459.657299
571.716196,4441.235652,13471.748144,-536.266849
571.716517,2664.741391,10881.027347,-536.266849
571.716838,1258.350101,8364.327145,-536.266849
571.717158,3034.844362,6809.894666,2298.286494
571.717479,2590.720797,6365.771101,5515.887586
571.717800,1036.288319,6439.791695,3447.429741
571.718120,3256.906145,6513.812290,76.609550
571.718441,4737.318029,8438.347739,-2451.505594
571.718761,5329.482782,8512.368333,-1608.800546
571.719082,6439.791695,5329.482782,306.438199
571.719403,7328.038826,4515.256246,1225.752797
571.719723,6883.915261,6143.709319,229.828649
571.720044,4811.338623,8216.285956,-1225.752797
571.720364,7105.977043,10066.800811,-3064.381992
571.720685,8660.409521,9178.553681,-2757.943793
571.721006,8660.409521,9326.594869,-536.266849
571.721326,7550.100608,7476.080014,0.000000
571.721647,5773.606348,4589.276840,-1302.362347
571.721967,4737.318029,4145.153275,-1225.752797
571.722288,4441.235652,6735.874072,-459.657299
571.722609,5181.441594,8438.347739,76.609550
571.722929,6365.771101,7698.141797,-153.219100
571.723250,5921.647536,7105.977043,229.828649
571.723570,2812.782580,7846.182985,1302.362347
571.723891,1258.350101,9400.615463,1915.238745
571.724212,2516.700203,9252.574275,1225.752797
571.724532,4663.297435,9326.594869,0.000000
571.724853,2664.741391,9400.615463,-459.657299
571.725173,1850.514855,10732.986159,-1608.800546
571.725494,3478.967927,11251.130318,-1302.362347
571.725814,3182.885551,9474.636058,1532.190996
571.726135,4885.359217,6513.812290,2374.896044
571.726456,6143.709319,5699.585753,919.314598
571.726776,4145.153275,6291.750507,-1915.238745
571.727097,5033.400406,7698.141797,-1072.533697
571.727417,6957.935855,8882.471304,1149.143247
571.727738,8364.327145,7105.977043,612.876398
571.728058,10436.903782,7550.100608,-536.266849
571.728379,9474.636058,6735.874072,-2451.505594
571.728699,5699.585753,7179.997637,-3907.087040
571.729020,6365.771101,8882.471304,-2374.896044
571.729340,8290.306550,9548.656652,-1608.800546
571.729661,8956.491898,9400.615463,0.000000
571.729981,8882.471304,9844.739029,1762.019645
571.730302,5847.626942,10510.924376,612.876398
571.730622,1924.535449,8142.265362,-689.485948
571.730943,1184.329507,5107.421000,612.876398
571.731264,3182.885551,3849.070898,229.828649
571.731584,3330.926739,3182.885551,0.000000
571.731905,5625.565159,6661.853478,153.219100
571.732225,4663.297435,11177.109724,-459.657299
571.732546,4589.276840,14211.954086,-1072.533697
571.732866,4737.318029,12657.521608,-76.609550
571.733187,4737.318029,8882.471304,0.000000
571.733507,6217.729913,6661.853478,1608.800546
571.733828,4885.359217,7179.997637,2681.334243
571.734148,1554.432478,6883.915261,689.485948
571.734469,3108.864956,7994.224174,-1685.410096
571.734789,5551.544565,9622.677246,-2221.676944
571.735110,5551.544565,10658.965565,-1378.971896
571.735430,4219.173869,8956.491898,-766.095498
571.735751,4219.173869,6513.812290,383.047749
571.736072,2886.803174,4515.256246,1685.410096
571.736392,2072.576638,3701.029710,2451.505594
571.736713,4885.359217,7031.956449,1149.143247
571.737033,6513.812290,9918.759623,-1762.019645
571.737354,3182.885551,11399.171507,-3677.258390
571.737674,5625.565159,11177.109724,-1762.019645
571.737995,5921.647536,12287.418637,76.609550
571.738315,3404.947333,11843.295072,612.876398
571.738636,3182.885551,9474.636058,0.000000
571.738956,6809.894666,8660.409521,-1378.971896
571.739277,3108.864956,7698.141797,-995.924147
571.739597,740.205942,7105.977043,1455.581446
571.739918,2812.782580,7254.018232,1378.971896
571.740238,3849.070898,7772.162391,766.095498
571.740559,2590.720797,8586.388927,1149.143247
571.740879,4885.359217,9178.553681,1455.581446
571.741200,4811.338623,7402.059420,-612.876398
571.741521,3775.050304,7402.059420,-689.485948
571.741841,3775.050304,8586.388927,2221.676944
571.742162,4959.379811,8512.368333,2068.457845
571.742482,7031.956449,7920.203579,842.705048
571.742803,7105.977043,7550.100608,-383.047749
571.743123,7920.203579,8290.306550,-3217.601092
571.743444,7698.141797,7920.203579,-1762.019645
571.743764,8808.450710,6587.832884,-383.047749
571.744085,8660.409521,5921.647536,-383.047749
571.744405,9252.574275,5773.606348,689.485948
571.744726,5847.626942,5255.462188,153.219100
571.745046,4145.153275,4293.194464,-1455.581446
571.745367,4885.359217,4589.276840,-1838.629195
571.745687,6365.771101,6143.709319,-3140.991542
571.746008,6217.729913,7105.977043,-2681.334243
571.746329,7402.059420,10732.986159,229.828649
571.746649,5033.400406,12509.480420,689.485948
571.746970,3256.906145,11177.109724,842.705048
571.747290,4293.194464,8882.471304,919.314598
571.747611,3108.864956,8068.244768,0.000000
571.747931,370.102971,8512.368333,0.000000
571.748252,3330.926739,9030.512492,536.266849
571.748572,3849.070898,10510.924376,1225.752797
571.748893,1628.453072,8882.471304,1378.971896
571.749213,888.247130,6957.935855,-459.657299
571.749534,2738.761985,6661.853478,-2451.505594
571.749854,3849.070898,7624.121203,-1149.143247
571.750175,2220.617826,8068.244768,612.876398
571.750495,6587.832884,7328.038826,1685.410096
571.750816,9548.656652,10955.047942,689.485948
571.751137,5773.606348,12583.501014,612.876398
571.751457,3627.009116,9030.512492,-1378.971896
571.751778,8734.430116,6809.894666,-2757.943793
571.752098,8216.285956,7624.121203,-2451.505594
571.752419,5625.565159,6439.791695,-919.314598
571.752739,7698.141797,5181.441594,-1608.800546
571.753060,8142.265362,7105.977043,-2834.553343
571.753380,5921.647536,10066.800811,-2221.676944
571.753701,6587.832884,13101.645173,-306.438199
571.754021,4589.276840,10881.027347,-2298.286494
571.754342,1184.329507,7254.018232,-1302.362347
571.754662,2146.597232,5847.626942,2987.772442
571.754983,3478.967927,5773.606348,2374.896044
571.755303,1628.453072,6217.729913,1762.019645
571.755624,1332.370696,8512.368333,306.438199
571.755945,2442.679609,12435.459826,-1991.848295
571.756265,1628.453072,12213.398043,-1378.971896
571.756586,2664.741391,9548.656652,1302.362347
571.756906,5181.441594,7254.018232,3677.258390
571.757227,5477.523971,7328.038826,2681.334243
571.757547,4737.318029,8438.347739,0.000000
571.757868,3256.906145,8512.368333,-3370.820191
571.758188,4441.235652,6661.853478,-2451.505594
571.758509,7328.038826,6365.771101,1225.752797
571.758829,7624.121203,8142.265362,1532.190996
571.759150,6883.915261,8068.244768,-1149.143247
571.759470,6957.935855,6809.894666,-3524.039291
571.759791,5995.668130,5255.462188,-2987.772442
571.760111,5847.626942,4219.173869,-995.924147
571.760432,8734.430116,5995.668130,1991.848295
571.760753,8808.450710,8438.347739,2757.943793
571.761073,7920.203579,9622.677246,0.000000
571.761394,9474.636058,9326.594869,-1225.752797
571.761714,9918.759623,7105.977043,-766.095498
571.762035,7994.224174,4441.235652,-919.314598
571.762355,8512.368333,3627.009116,2221.676944
571.762676,9474.636058,4219.173869,1608.800546
571.762996,9178.553681,4737.318029,-459.657299
571.763317,7624.121203,3404.947333,-842.705048
571.763637,7920.203579,2516.700203,-2145.067394
571.763958,9474.636058,2738.761985,-1762.019645
571.764278,9844.739029,7698.141797,-536.266849
571.764599,9178.553681,8438.347739,-153.219100
571.764919,11473.192101,6735.874072,306.438199
571.765240,11991.336260,6291.750507,1991.848295
571.765561,7105.977043,7698.141797,1838.629195
571.765881,4515.256246,7105.977043,612.876398
571.766202,7254.018232,6291.750507,-842.705048
571.766522,8882.471304,3849.070898,-2604.724693
571.766843,8290.306550,3701.029710,-1225.752797
571.767163,8142.265362,5551.544565,-153.219100
571.767484,5551.544565,7254.018232,-1072.533697
571.767804,5551.544565,8142.265362,995.924147
571.768125,8882.471304,9474.636058,2451.505594
571.768445,9400.615463,7105.977043,2145.067394
571.768766,7328.038826,4071.132681,2604.724693
571.769086,7772.162391,3627.009116,2221.676944
571.769407,8290.306550,5181.441594,153.219100
571.769727,8216.285956,5699.585753,-2451.505594
571.770048,10584.944971,5847.626942,-3983.696590
571.770369,12361.439231,5255.462188,-2451.505594
571.770689,10288.862594,5847.626942,766.095498
571.771010,7920.203579,6735.874072,2221.676944
571.771330,6365.771101,5551.544565,0.000000
571.771651,9992.780217,5773.606348,-689.485948
571.771971,11251.130318,6587.832884,306.438199
571.772292,9696.697840,7105.977043,-306.438199
571.772612,7328.038826,5551.544565,-2221.676944
571.772933,7550.100608,5699.585753,-1838.629195
571.773253,6957.935855,5847.626942,-689.485948
571.773574,8438.347739,5847.626942,0.000000
571.773894,9030.512492,5625.565159,-459.657299
571.774215,8216.285956,5995.668130,-536.266849
571.774535,8808.450710,8290.306550,1532.190996
571.774856,8956.491898,8586.388927,2604.724693
571.775177,7920.203579,6809.894666,1608.800546
571.775497,9918.759623,4959.379811,995.924147
571.775818,10658.965565,3330.926739,1685.410096
571.776138,9400.615463,1924.535449,536.266849
571.776459,10510.924376,2146.597232,-76.609550
571.776779,10881.027347,3330.926739,-1532.190996
571.777100,12287.418637,3997.112087,-1915.238745
571.777420,13989.892304,5033.400406,-459.657299
571.777741,14434.015869,5773.606348,76.609550
571.778061,12879.583391,4367.215058,383.047749
571.778382,14878.139434,2812.782580,612.876398
571.778702,13249.686362,3256.906145,-1072.533697
571.779023,11325.150913,3404.947333,-689.485948
571.779343,11103.089130,3997.112087,229.828649
571.779664,11843.295072,3997.112087,0.000000
571.779985,9252.574275,3923.091493,-1685.410096
571.780305,8956.491898,5329.482782,-1991.848295
571.780626,5773.606348,6217.729913,-2451.505594
571.780946,5995.668130,6069.688724,-919.314598
571.781267,6587.832884,5995.668130,3294.210641
571.781587,6809.894666,6957.935855,2911.162892
571.781908,4737.318029,8068.244768,1149.143247
571.782228,3997.112087,9474.636058,-229.828649
571.782549,3034.844362,9326.594869,-1991.848295
571.782869,5995.668130,7550.100608,-766.095498
571.783190,8586.388927,6883.915261,1608.800546
571.783510,8438.347739,6513.812290,2221.676944
571.783831,6587.832884,7031.956449,1838.629195
571.784151,6883.915261,7179.997637,383.047749
571.784472,7624.121203,6069.688724,0.000000
571.784793,9474.636058,2664.741391,1838.629195
571.785113,11769.274478,1110.308913,2604.724693
571.785434,12361.439231,2294.638420,612.876398
571.785754,11251.130318,3775.050304,229.828649
571.786075,11325.150913,5107.421000,-1838.629195
571.786395,13249.686362,4441.235652,-1991.848295
571.786716,14434.015869,4071.132681,-1455.581446
571.787036,13323.706956,5477.523971,-1762.019645
571.787357,11917.315666,7105.977043,-2298.286494
571.787677,11251.130318,7624.121203,-2221.676944
571.787998,10362.883188,6587.832884,-1455.581446
571.788318,9474.636058,5329.482782,-919.314598
571.788639,8364.327145,5107.421000,-612.876398
571.788959,5625.565159,6513.812290,0.000000
571.789280,4441.235652,6365.771101,383.047749
571.789601,4737.318029,5329.482782,1072.533697
571.789921,5625.565159,4737.318029,1762.019645
571.790242,6069.688724,5921.647536,1762.019645
571.790562,5995.668130,8216.285956,1302.362347
571.790883,5477.523971,9252.574275,0.000000
571.791203,5551.544565,8512.368333,-76.609550
571.791524,7328.038826,6513.812290,1149.143247
571.791844,9918.759623,6513.812290,1762.019645
571.792165,9400.615463,6365.771101,1455.581446
571.792485,8660.409521,4959.379811,-689.485948
571.792806,9696.697840,3627.009116,-1225.752797
571.793126,11991.336260,2294.638420,0.000000
571.793447,13915.871710,1998.556043,995.924147
571.793767,14582.057057,1406.391290,612.876398
571.794088,13989.892304,1184.329507,-2451.505594
571.794409,15396.283594,2368.659014,-2221.676944
571.794729,15840.407159,3330.926739,-1149.143247
571.795050,15248.242405,3552.988522,-1149.143247
571.795370,15544.324782,3775.050304,-1915.238745
571.795691,13027.624579,4293.194464,-2374.896044
571.796011,11621.233289,4367.215058,-1991.848295
571.796332,10955.047942,4367.215058,-842.705048
571.796652,9844.739029,5033.400406,-1685.410096
571.796973,8660.409521,5625.565159,-1838.629195
571.797293,7105.977043,6809.894666,-689.485948
571.797614,5255.462188,6513.812290,0.000000
571.797934,5255.462188,5699.585753,1302.362347
571.798255,6291.750507,7105.977043,2298.286494
571.798575,4811.338623,9178.553681,1302.362347
571.798896,4219.173869,9474.636058,536.266849
571.799216,4959.379811,8216.285956,612.876398
571.799537,6661.853478,7402.059420,1762.019645
571.799858,6735.874072,7179.997637,3064.381992
571.800178,6587.832884,7994.224174,2528.115143
571.800499,6365.771101,6735.874072,0.000000
571.800819,7772.162391,4959.379811,459.657299
571.801140,10807.006753,3627.009116,2451.505594
571.801460,11991.336260,2590.720797,2068.457845
571.801781,12583.501014,3108.864956,229.828649
571.802101,12953.603985,4441.235652,-1991.848295
571.802422,13249.686362,3701.029710,-2681.334243
571.802742,15026.180623,3330.926739,-1532.190996
571.803063,15988.448347,3256.906145,-153.219100
571.803383,14063.912898,4219.173869,-995.924147
571.803704,12731.542202,5255.462188,-2604.724693
571.804024,11621.233289,5699.585753,-4213.525239
571.804345,10140.821405,4589.276840,-3370.820191
571.804666,9622.677246,4441.235652,-919.314598
571.804986,9030.512492,4663.297435,459.657299
571.805307,6513.812290,5255.462188,0.000000
571.805627,4737.318029,5847.626942,-766.095498
571.805948,5477.523971,6809.894666,-842.705048
571.806268,5181.441594,7476.080014,536.266849
571.806589,4515.256246,8512.368333,2604.724693
571.806909,4663.297435,9326.594869,3064.381992
571.807230,4589.276840,8956.491898,1685.410096
571.807550,3552.988522,7179.997637,919.314598
571.807871,3552.988522,5921.647536,1225.752797
571.808191,4589.276840,5699.585753,1149.143247
571.808512,6809.894666,6439.791695,1915.238745
571.808832,8290.306550,7179.997637,1532.190996
571.809153,9696.697840,6439.791695,76.609550
571.809474,10955.047942,4663.297435,383.047749
571.809794,11251.130318,2590.720797,612.876398
571.810115,11991.336260,1406.391290,306.438199
571.810435,14508.036463,1332.370696,-689.485948
571.810756,16654.633695,2442.679609,-2068.457845
571.811076,17172.777854,4441.235652,-2451.505594
571.811397,16284.530724,5847.626942,-2604.724693
571.811717,15544.324782,5921.647536,-2451.505594
571.812038,14211.954086,4071.132681,-1991.848295
571.812358,12953.603985,2368.659014,-995.924147
571.812679,11843.295072,1332.370696,-1149.143247
571.812999,10658.965565,2146.597232,-1838.629195
571.813320,9326.594869,3478.967927,-1915.238745
571.813640,7772.162391,5921.647536,-459.657299
571.813961,8956.491898,7994.224174,0.000000
571.814282,8438.347739,9326.594869,612.876398
571.814602,6735.874072,8882.471304,383.047749
571.814923,5329.482782,7476.080014,612.876398
571.815243,4145.153275,5699.585753,1915.238745
571.815564,3627.009116,5107.421000,2451.505594
571.815884,5329.482782,5625.565159,2298.286494
571.816205,6735.874072,7698.141797,1072.533697
571.816525,6957.935855,8882.471304,0.000000
571.816846,7254.018232,8660.409521,306.438199
571.817166,9030.512492,7105.977043,995.924147
571.817487,9474.636058,4663.297435,2068.457845
571.817807,9770.718434,2516.700203,1378.971896
571.818128,10510.924376,2368.659014,229.828649
571.818448,11325.150913,3404.947333,-1149.143247
571.818769,11769.274478,3627.009116,-1532.190996
571.819090,12657.521608,4367.215058,-2221.676944
571.819410,13471.748144,5773.606348,-2987.772442
571.819731,12953.603985,7105.977043,-3600.648841
571.820051,12065.356855,7179.997637,-2068.457845
571.820372,11473.192101,6069.688724,-919.314598
571.820692,10288.862594,4589.276840,306.438199
571.821013,8734.430116,4515.256246,306.438199
571.821333,7624.121203,5255.462188,-1302.362347
571.821654,7105.977043,6291.750507,-1838.629195
571.821974,6809.894666,6513.812290,-1532.190996
571.822295,7105.977043,5847.626942,-536.266849
571.822615,7402.059420,4737.318029,459.657299
571.822936,5699.585753,5551.544565,1685.410096
571.823256,5107.421000,6661.853478,2374.896044
571.823577,5995.668130,7476.080014,1762.019645
571.823898,6587.832884,7328.038826,1685.410096
571.824218,7476.080014,6735.874072,2145.067394
571.824539,8364.327145,6883.915261,1302.362347
571.824859,8512.368333,7772.162391,76.609550
571.825180,8142.265362,7772.162391,-383.047749
571.825500,9178.553681,6735.874072,-383.047749
571.825821,10362.883188,5625.565159,612.876398
571.826141,9844.739029,4441.235652,1685.410096
571.826462,9104.533087,2812.782580,1149.143247
571.826782,9696.697840,1480.411884,306.438199
571.827103,11473.192101,1184.329507,0.000000
571.827423,12213.398043,1110.308913,-383.047749
571.827744,12435.459826,2220.617826,-1455.581446
571.828064,12509.480420,3627.009116,-2987.772442
571.828385,12731.542202,4959.379811,-2834.553343
571.828705,13175.665768,6439.791695,-2528.115143
571.829026,13175.665768,6735.874072,-2757.943793
571.829346,12509.480420,6661.853478,-2987.772442
571.829667,11399.171507,6439.791695,-2145.067394
571.829987,9474.636058,5625.565159,-536.266849
571.830307,8586.388927,5033.400406,1455.581446
571.830628,7328.038826,4589.276840,1685.410096
571.830948,6513.812290,4589.276840,1532.190996
571.831269,6143.709319,4959.379811,1532.190996
571.831589,5995.668130,4959.379811,2068.457845
571.831910,5033.400406,4441.235652,1378.971896
571.832230,6217.729913,4737.318029,1149.143247
571.832551,6809.894666,5847.626942,689.485948
571.832871,7476.080014,7550.100608,459.657299
571.833192,8586.388927,8882.471304,229.828649
571.833512,9474.636058,9326.594869,0.000000
571.833832,9844.739029,8586.388927,153.219100
571.834153,9622.677246,7550.100608,383.047749
571.834473,9400.615463,6291.750507,0.000000
571.834794,8956.491898,4737.318029,-76.609550
571.835114,9474.636058,3108.864956,-459.657299
571.835435,10214.842000,2294.638420,0.000000
571.835755,10658.965565,2738.761985,-919.314598
571.836076,10658.965565,4441.235652,-766.095498
571.836396,10881.027347,6513.812290,-919.314598
571.836716,10807.006753,8216.285956,-689.485948
571.837037,9992.780217,8290.306550,0.000000
571.837357,8734.430116,8142.265362,536.266849
571.837678,7550.100608,8142.265362,689.485948
571.837998,5847.626942,7994.224174,76.609550
571.838319,4663.297435,7402.059420,-306.438199
571.838639,4071.132681,6809.894666,-612.876398
571.838960,4367.215058,6661.853478,0.000000
571.839280,3849.070898,7550.100608,689.485948
571.839601,3330.926739,9326.594869,2451.505594
571.839921,3701.029710,10584.944971,3064.381992
571.840241,4515.256246,10881.027347,3983.696590
571.840562,5329.482782,10140.821405,4979.620737
571.840882,4885.359217,9030.512492,4826.401637
571.841203,4589.276840,8142.265362,4136.915689
571.841523,4293.194464,7772.162391,3983.696590
571.841844,4959.379811,8068.244768,3907.087040
571.842164,5847.626942,8808.450710,3294.210641
571.842485,6735.874072,9400.615463,2987.772442
571.842805,6439.791695,8882.471304,3370.820191
571.843125,6587.832884,8068.244768,3983.696590
571.843446,6809.894666,7254.018232,4749.792088
571.843766,7550.100608,6957.935855,4749.792088
571.844087,8290.306550,7105.977043,4213.525239
571.844407,7698.141797,7698.141797,3983.696590
571.844728,7994.224174,7846.182985,4213.525239
571.845048,8142.265362,8586.388927,4749.792088
571.845369,8290.306550,8660.409521,6358.592633
571.845689,7254.018232,8216.285956,7124.688131
571.846010,7031.956449,7105.977043,6741.640382
571.846330,5625.565159,6587.832884,6511.811733
571.846650,4885.359217,5477.523971,6435.202183
571.846971,4367.215058,5033.400406,6894.859482
571.847291,4737.318029,5995.668130,6818.249932
571.847612,4811.338623,7402.059420,7124.688131
571.847932,4441.235652,8586.388927,6818.249932
571.848253,4071.132681,8586.388927,6741.640382
571.848573,4293.194464,8142.265362,7507.735880
571.848894,3256.906145,8068.244768,8120.612279
571.849214,3478.967927,7105.977043,8197.221829
571.849535,2812.782580,6587.832884,7660.954980
571.849855,2442.679609,6661.853478,7584.345430
571.850175,2294.638420,6291.750507,6741.640382
571.850496,2368.659014,5921.647536,6358.592633
571.850816,2294.638420,5773.606348,5439.278036
571.851137,2812.782580,6217.729913,5592.497135
571.851457,3701.029710,6735.874072,5745.716235
571.851778,4071.132681,7105.977043,5515.887586
571.852098,4145.153275,7179.997637,6281.983084
571.852419,4663.297435,7920.203579,5592.497135
571.852739,5033.400406,8216.285956,4519.963438
571.853059,4959.379811,7846.182985,3753.867940
571.853380,4737.318029,7105.977043,3447.429741
571.853700,4663.297435,6291.750507,4366.744339
571.854021,4737.318029,5255.462188,4443.353888
571.854341,4219.173869,5033.400406,3907.087040
571.854662,4219.173869,5699.585753,3064.381992
571.854982,4737.318029,7105.977043,2987.772442
571.855303,5033.400406,8216.285956,3370.820191
571.855623,5921.647536,9696.697840,3600.648841
571.855944,6661.853478,10140.821405,3677.258390
571.856264,6883.915261,10584.944971,4060.306139
571.856584,6735.874072,11177.109724,5209.449386
571.856905,5773.606348,11621.233289,6511.811733
571.857225,5107.421000,10881.027347,6052.154434
571.857546,4441.235652,9992.780217,5745.716235
571.857866,3775.050304,8586.388927,5669.106685
571.858187,2590.720797,6217.729913,5056.230287
571.858507,2442.679609,3478.967927,3753.867940
571.858828,3182.885551,2220.617826,2451.505594
571.859148,3552.988522,3775.050304,842.705048
571.859468,5477.523971,7179.997637,-306.438199
571.859789,7624.121203,11917.315666,-1149.143247
571.860109,10066.800811,15692.365970,-1608.800546
571.860430,10881.027347,18135.045579,-383.047749
571.860750,10362.883188,17246.798449,2145.067394
571.861071,8660.409521,14211.954086,3983.696590
571.861391,6809.894666,9252.574275,5515.887586
571.861712,6217.729913,6735.874072,6741.640382
571.862032,3552.988522,5773.606348,6128.763984
571.862353,1184.329507,6809.894666,4826.401637
571.862673,1184.329507,6735.874072,4366.744339
571.862993,3256.906145,5773.606348,4519.963438
571.863314,3182.885551,4737.318029,4213.525239
571.863634,4663.297435,5329.482782,4903.011187
571.863955,5699.585753,8290.306550,4290.134789
571.864275,6143.709319,12435.459826,3217.601092
571.864596,6439.791695,14211.954086,2681.334243
571.864916,8216.285956,14952.160028,2681.334243
571.865237,10288.862594,14359.995275,3064.381992
571.865557,7550.100608,11695.253884,4903.011187
571.865878,4367.215058,6513.812290,6358.592633
571.866198,4515.256246,3478.967927,7048.078582
571.866518,2368.659014,3330.926739,5745.716235
571.866839,2368.659014,4441.235652,4673.182538
571.867159,3775.050304,6069.688724,4443.353888
571.867480,4885.359217,6587.832884,5132.839837
571.867800,5107.421000,6661.853478,6971.469032
571.868121,5995.668130,7105.977043,8580.269578
571.868441,6069.688724,9992.780217,7967.393179
571.868762,3478.967927,11325.150913,6358.592633
571.869082,2812.782580,9770.718434,4749.792088
571.869402,4737.318029,8290.306550,3907.087040
571.869723,4811.338623,6217.729913,5439.278036
571.870043,4589.276840,6809.894666,8656.879127
571.870364,4441.235652,8882.471304,9729.412825
571.870684,1110.308913,10214.842000,6358.592633
571.871005,1554.432478,8142.265362,5209.449386
571.871325,3034.844362,3478.967927,5745.716235
571.871646,2590.720797,444.123565,7354.516781
571.871966,3997.112087,518.144159,8350.440928
571.872287,7031.956449,6291.750507,7431.126331
571.872607,5699.585753,11325.150913,4903.011187
571.872927,3923.091493,12509.480420,3753.867940
571.873248,6513.812290,10362.883188,4366.744339
571.873568,5847.626942,7624.121203,6358.592633
571.873889,2368.659014,3330.926739,8580.269578
571.874209,3775.050304,2368.659014,9499.584175
571.874530,6365.771101,7105.977043,8273.831378
571.874850,2960.823768,11325.150913,5132.839837
571.875171,2738.761985,11843.295072,2834.553343
571.875491,6587.832884,11325.150913,2681.334243
571.875811,6217.729913,9104.533087,5209.449386
571.876132,3404.947333,5255.462188,7890.783629
571.876452,5033.400406,2368.659014,7201.297681
571.876773,5625.565159,4219.173869,6741.640382
571.877093,2960.823768,6291.750507,7048.078582
571.877414,3849.070898,7550.100608,4749.792088
571.877734,7328.038826,10288.862594,3140.991542
571.878055,4811.338623,11917.315666,4826.401637
571.878375,5625.565159,11843.295072,6971.469032
571.878696,7179.997637,10140.821405,5745.716235
571.879016,6069.688724,7920.203579,3370.820191
571.879336,3478.967927,5107.421000,1685.410096
571.879657,4367.215058,4811.338623,1532.190996
571.879977,6957.935855,7920.203579,3064.381992
571.880298,5107.421000,11029.068536,5515.887586
571.880618,4885.359217,11251.130318,5822.325785
571.880939,7698.141797,10362.883188,4290.134789
571.881259,6661.853478,10584.944971,3677.258390
571.881580,4071.132681,9474.636058,4136.915689
571.881900,4071.132681,6735.874072,4749.792088
571.882221,4959.379811,6439.791695,4673.182538
571.882541,4515.256246,7994.224174,4979.620737
571.882861,4737.318029,9178.553681,4519.963438
571.883182,5773.606348,10436.903782,2451.505594
571.883502,5329.482782,10881.027347,2681.334243
571.883823,4959.379811,9918.759623,5056.230287
571.884143,6809.894666,9030.512492,5592.497135
571.884464,6439.791695,8142.265362,5286.058936
571.884784,4811.338623,8956.491898,5286.058936
571.885105,5107.421000,10436.903782,4136.915689
571.885425,5181.441594,9770.718434,2604.724693
571.885745,4737.318029,6883.915261,3907.087040
571.886066,6513.812290,5847.626942,5439.278036
571.886386,6809.894666,7624.121203,5209.449386
571.886707,4145.153275,9992.780217,3753.867940
571.887027,2368.659014,9474.636058,3830.477490
571.887348,4663.297435,7254.018232,3983.696590
571.887668,6439.791695,5181.441594,6205.373534
571.887989,6143.709319,5995.668130,7201.297681
571.888309,5033.400406,7624.121203,4826.401637
571.888630,4219.173869,10066.800811,3064.381992
571.888950,4145.153275,10510.924376,3677.258390
571.889270,5033.400406,8586.388927,5132.839837
571.889591,6143.709319,5995.668130,5515.887586
571.889911,6587.832884,7254.018232,5822.325785
571.890232,4589.276840,10288.862594,6128.763984
571.890552,1702.473667,9474.636058,4749.792088
571.890873,2960.823768,6143.709319,4213.525239
571.891193,5181.441594,4367.215058,5209.449386
571.891514,5033.400406,5107.421000,6894.859482
571.891834,4589.276840,7698.141797,5975.544884
571.892154,2960.823768,9178.553681,3677.258390
571.892475,2886.803174,8290.306550,3447.429741
571.892795,6587.832884,7624.121203,5822.325785
571.893116,8142.265362,8438.347739,8044.002729
571.893436,5477.523971,9918.759623,7277.907231
571.893757,3997.112087,11177.109724,6588.421283
571.894077,4589.276840,9918.759623,6435.202183
571.894398,4367.215058,6439.791695,7201.297681
571.894718,4811.338623,3182.885551,9193.145976
571.895039,4367.215058,3627.009116,7354.516781
571.895359,3330.926739,6291.750507,3983.696590
571.895679,2072.576638,6735.874072,2451.505594
571.896000,3701.029710,5625.565159,1072.533697
571.896320,7698.141797,6957.935855,3753.867940
571.896641,7624.121203,10214.842000,6665.030833
571.896961,5255.462188,10584.944971,6128.763984
571.897282,6069.688724,9548.656652,2681.334243
571.897602,6291.750507,9474.636058,2451.505594
571.897923,5921.647536,8512.368333,4979.620737
571.898243,7179.997637,7328.038826,6435.202183
571.898564,6513.812290,8512.368333,5975.544884
571.898884,3627.009116,8808.450710,4596.572988
571.899204,3404.947333,7476.080014,3983.696590
571.899525,4737.318029,6735.874072,4903.011187
571.899845,2072.576638,5329.482782,6281.983084
571.900166,3034.844362,5477.523971,6281.983084
571.900486,5033.400406,8512.368333,4136.915689
571.900807,3034.844362,10140.821405,1608.800546
571.901127,2590.720797,10362.883188,3753.867940
571.901448,6439.791695,11177.109724,5132.839837
571.901768,5995.668130,11473.192101,6358.592633
571.902088,3034.844362,9918.759623,5975.544884
571.902409,4071.132681,7846.182985,3524.039291
571.902729,5329.482782,7994.224174,2528.115143
571.903050,4589.276840,8956.491898,5439.278036
571.903370,5699.585753,8142.265362,5822.325785
571.903691,8068.244768,6957.935855,3907.087040
571.904011,7698.141797,9252.574275,3677.258390
571.904332,4737.318029,9400.615463,4673.182538
571.904652,5847.626942,7328.038826,4826.401637
571.904973,6661.853478,5625.565159,4596.572988
571.905293,7105.977043,6439.791695,4290.134789
571.905613,6883.915261,6513.812290,3677.258390
571.905934,5403.503377,6513.812290,1608.800546
571.906254,4515.256246,6883.915261,1762.019645
571.906575,7031.956449,9252.574275,2451.505594
571.906895,6957.935855,10140.821405,1532.190996
571.907216,7550.100608,9918.759623,919.314598
571.907536,6735.874072,9104.533087,3140.991542
571.907857,6587.832884,8586.388927,5975.544884
571.908177,5921.647536,8660.409521,6818.249932
571.908497,4145.153275,7994.224174,5286.058936
571.908818,2590.720797,6661.853478,2298.286494
571.909138,3256.906145,5921.647536,2374.896044
571.909459,5551.544565,5995.668130,4979.620737
571.909779,4219.173869,4737.318029,5362.668486
571.910100,3775.050304,3997.112087,2987.772442
571.910420,4737.318029,7846.182985,2451.505594
571.910741,4589.276840,11843.295072,3600.648841
571.911061,4885.359217,10807.006753,4826.401637
571.911382,7105.977043,9326.594869,4596.572988
571.911702,6587.832884,8734.430116,4673.182538
571.912022,4367.215058,7846.182985,4366.744339
571.912343,2738.761985,6291.750507,2374.896044
571.912663,4811.338623,7179.997637,153.219100
571.912984,4737.318029,8660.409521,1225.752797
571.913304,5995.668130,11177.109724,2681.334243
571.913625,4293.194464,10436.903782,4060.306139
571.913945,2146.597232,8586.388927,4903.011187
571.914266,2516.700203,6513.812290,4136.915689
571.914586,3034.844362,4737.318029,2528.115143
571.914907,2368.659014,4959.379811,459.657299
571.915227,5107.421000,9030.512492,1838.629195
571.915547,6957.935855,12361.439231,3140.991542
571.915868,5255.462188,13249.686362,2911.162892
571.916188,5995.668130,12435.459826,2757.943793
571.916509,5477.523971,10362.883188,3370.820191
571.916829,3034.844362,7179.997637,5056.230287
571.917150,3478.967927,3478.967927,5362.668486
571.917470,5625.565159,3997.112087,2528.115143
571.917791,5181.441594,6587.832884,995.924147
571.918111,4441.235652,8956.491898,1915.238745
571.918431,6069.688724,9918.759623,1302.362347
571.918752,6291.750507,7550.100608,612.876398
571.919072,4737.318029,4885.359217,1225.752797
571.919393,5033.400406,3701.029710,2068.457845
571.919713,5329.482782,3997.112087,2374.896044
571.920034,3775.050304,7179.997637,1149.143247
571.920354,6439.791695,10732.986159,-1685.410096
571.920675,6365.771101,10584.944971,-2987.772442
571.920995,5995.668130,10214.842000,-2145.067394
571.921316,7328.038826,9992.780217,612.876398
571.921636,4071.132681,8512.368333,1302.362347
571.921956,2368.659014,4367.215058,0.000000
571.922277,3256.906145,2590.720797,-536.266849
571.922597,3256.906145,3552.988522,-919.314598
571.922918,3923.091493,7105.977043,-766.095498
571.923238,4441.235652,10436.903782,-2757.943793
571.923559,4145.153275,10436.903782,-4136.915689
571.923879,5329.482782,7550.100608,-689.485948
571.924200,7179.997637,5477.523971,995.924147
571.924520,7254.018232,6365.771101,-383.047749
571.924840,3701.029710,7624.121203,-1455.581446
571.925161,4737.318029,10288.862594,-2834.553343
571.925481,9400.615463,12435.459826,-2834.553343
571.925802,8364.327145,11917.315666,-536.266849
571.926122,7179.997637,9992.780217,766.095498
571.926443,8734.430116,9770.718434,0.000000
571.926763,5625.565159,8364.327145,0.000000
571.927084,3330.926739,6365.771101,459.657299
571.927404,5033.400406,3849.070898,0.000000
571.927725,5551.544565,3775.050304,0.000000
571.928045,5551.544565,7476.080014,2068.457845
571.928366,5625.565159,12657.521608,0.000000
571.928686,5773.606348,15026.180623,-3064.381992
571.929007,5329.482782,13323.706956,-2911.162892
571.929327,6957.935855,10584.944971,-612.876398
571.929648,5847.626942,9548.656652,1302.362347
571.929968,3404.947333,9770.718434,2451.505594
571.930289,1776.494261,11029.068536,0.000000
571.930609,2812.782580,11769.274478,-2298.286494
571.930930,4811.338623,12953.603985,-1455.581446
571.931251,3404.947333,9696.697840,1838.629195
571.931571,4367.215058,7772.162391,1762.019645
571.931892,3627.009116,5181.441594,1149.143247
571.932212,1998.556043,4441.235652,1072.533697
571.932533,3552.988522,3923.091493,536.266849
571.932853,6883.915261,6069.688724,2298.286494
571.933174,7402.059420,8512.368333,2681.334243
571.933494,6809.894666,9400.615463,0.000000
571.933815,5995.668130,9178.553681,-2987.772442
571.934135,5477.523971,7105.977043,-2068.457845
571.934456,5773.606348,5477.523971,-1072.533697
571.934776,6069.688724,4293.194464,-2451.505594
571.935097,4959.379811,5847.626942,-3524.039291
571.935417,3552.988522,5773.606348,-3370.820191
571.935738,3108.864956,5181.441594,-1762.019645
571.936058,5403.503377,7031.956449,-1149.143247
571.936379,3552.988522,7550.100608,-842.705048
571.936699,3182.885551,7476.080014,612.876398
571.937020,5699.585753,7698.141797,1302.362347
571.937340,5551.544565,7846.182985,1302.362347
571.937661,1776.494261,5329.482782,-1072.533697
571.937982,666.185348,2812.782580,-3370.820191
571.938302,3775.050304,4589.276840,-2068.457845
571.938623,4145.153275,9104.533087,229.828649
571.938943,6365.771101,11325.150913,536.266849
571.939264,6513.812290,12213.398043,-2298.286494
571.939584,2812.782580,11917.315666,-995.924147
571.939905,2368.659014,9992.780217,3064.381992
571.940225,3849.070898,6809.894666,3064.381992
571.940546,3627.009116,4515.256246,-229.828649
571.940866,3330.926739,4441.235652,-2528.115143
571.941187,5921.647536,7179.997637,-3830.477490
571.941507,5551.544565,9696.697840,-2604.724693
571.941828,5699.585753,11547.212695,995.924147
571.942148,9104.533087,12065.356855,766.095498
571.942469,9400.615463,11917.315666,-536.266849
571.942789,6365.771101,10658.965565,0.000000
571.943110,5477.523971,8956.491898,1225.752797
571.943430,7254.018232,7698.141797,2221.676944
571.943751,7624.121203,8438.347739,919.314598
571.944071,7031.956449,10288.862594,-1378.971896
571.944392,7402.059420,11399.171507,-3447.429741
571.944713,4145.153275,9770.718434,-3447.429741
571.945033,3775.050304,5403.503377,-383.047749
571.945354,4589.276840,3775.050304,1762.019645
571.945674,5033.400406,5477.523971,1838.629195
571.945995,5033.400406,10584.944971,612.876398
571.946315,6143.709319,13841.851115,-383.047749
571.946636,5255.462188,14137.933492,-842.705048
571.946956,6661.853478,12213.398043,459.657299
571.947277,6809.894666,10881.027347,2221.676944
571.947597,4737.318029,7105.977043,2528.115143
571.947918,4589.276840,4293.194464,612.876398
571.948238,2664.741391,1998.556043,-1685.410096
571.948559,1702.473667,1628.453072,-1915.238745
571.948879,3552.988522,5255.462188,1225.752797
571.949200,5921.647536,9918.759623,2145.067394
571.949520,4959.379811,11769.274478,-689.485948
571.949841,6365.771101,11251.130318,-2451.505594
571.950161,5477.523971,8512.368333,-2451.505594
571.950482,2220.617826,4145.153275,-459.657299
571.950802,2442.679609,3478.967927,1302.362347
571.951123,4737.318029,6143.709319,-536.266849
571.951444,2664.741391,7031.956449,-3983.696590
571.951764,3404.947333,7402.059420,-1991.848295
571.952085,4737.318029,8956.491898,2834.553343
571.952405,4885.359217,10436.903782,3600.648841
571.952726,3627.009116,9918.759623,2145.067394
571.953046,3256.906145,7402.059420,-1838.629195
571.953367,3478.967927,4885.359217,-2604.724693
571.953687,4441.235652,3034.844362,2068.457845
571.954008,5107.421000,3997.112087,2604.724693
571.954328,5995.668130,7105.977043,-153.219100
571.954649,6217.729913,9252.574275,-2145.067394
571.954969,5033.400406,9474.636058,-2987.772442
571.955290,5995.668130,7476.080014,-612.876398
571.955610,5773.606348,7105.977043,1225.752797
571.955931,5255.462188,7772.162391,1378.971896
571.956251,5107.421000,9770.718434,0.000000
571.956572,4811.338623,10658.965565,-2757.943793
571.956892,6069.688724,9474.636058,-3907.087040
571.957213,8808.450710,7920.203579,-612.876398
571.957533,6365.771101,8734.430116,2451.505594
571.957854,3997.112087,7550.100608,766.095498
571.958175,4071.132681,6217.729913,-1685.410096
571.958495,6365.771101,7105.977043,-3294.210641
571.958816,6365.771101,8512.368333,-612.876398
571.959136,7254.018232,9770.718434,2374.896044
571.959457,5699.585753,10584.944971,1302.362347
571.959777,4441.235652,11103.089130,-1302.362347
571.960098,3404.947333,10362.883188,-1532.190996
571.960418,3627.009116,7179.997637,-1991.848295
571.960739,4367.215058,5551.544565,-919.314598
571.961059,5921.647536,8290.306550,0.000000
571.961380,4589.276840,9622.677246,-2451.505594
571.961700,4441.235652,9104.533087,-4060.306139
571.962021,3701.029710,9326.594869,-1991.848295
571.962341,5255.462188,9326.594869,1072.533697
571.962662,5403.503377,8364.327145,2451.505594
571.962982,6587.832884,9474.636058,0.000000
571.963303,4737.318029,9252.574275,-1838.629195
571.963623,3775.050304,8660.409521,-1225.752797
571.963944,4959.379811,7550.100608,383.047749
571.964264,4441.235652,6809.894666,995.924147
571.964585,3256.906145,7105.977043,612.876398
571.964906,5773.606348,7920.203579,-1149.143247
571.965226,4367.215058,7476.080014,-3753.867940
571.965547,3256.906145,6439.791695,-2374.896044
571.965867,4959.379811,6587.832884,1072.533697
571.966188,6809.894666,8512.368333,2068.457845
571.966508,4959.379811,10658.965565,1149.143247
571.966829,4219.173869,10288.862594,-1532.190996
571.967149,4737.318029,7994.224174,-3677.258390
571.967470,8734.430116,8216.285956,-536.266849
571.967790,7179.997637,7254.018232,1685.410096
571.968111,6439.791695,5329.482782,383.047749
571.968431,6143.709319,6957.935855,-766.095498
571.968752,4589.276840,7920.203579,0.000000
571.969072,4293.194464,6661.853478,2145.067394
571.969393,6735.874072,6217.729913,2221.676944
571.969713,5995.668130,7105.977043,306.438199
571.970034,4885.359217,7476.080014,-1455.581446
571.970354,6143.709319,7920.203579,-1225.752797
571.970675,4441.235652,6587.832884,0.000000
571.970995,3404.947333,5921.647536,842.705048
571.971316,6069.688724,9992.780217,612.876398
571.971637,3256.906145,11177.109724,-1225.752797
571.971957,1776.494261,9622.677246,-1608.800546
571.972278,5181.441594,8808.450710,306.438199
571.972598,4885.359217,8068.244768,1455.581446
571.972919,2664.741391,8882.471304,2681.334243
571.973239,2886.803174,9918.759623,2451.505594
571.973560,2220.617826,7772.162391,-383.047749
571.973880,2516.700203,6513.812290,-383.047749
571.974201,5033.400406,5403.503377,2068.457845
571.974521,4589.276840,5107.421000,919.314598
571.974842,4145.153275,7328.038826,1378.971896
571.975162,5625.565159,9326.594869,383.047749
571.975483,3552.988522,8216.285956,-2911.162892
571.975803,3404.947333,5847.626942,-2374.896044
571.976124,6587.832884,5699.585753,306.438199
571.976444,7772.162391,7994.224174,459.657299
571.976765,6587.832884,11029.068536,-1532.190996
571.977085,6143.709319,12139.377449,-4136.915689
571.977406,6291.750507,8068.244768,-3294.210641
571.977726,6365.771101,5625.565159,1455.581446
571.978047,4737.318029,5847.626942,3524.039291
571.978368,4441.235652,8586.388927,536.266849
571.978688,3923.091493,7772.162391,-2068.457845
571.979009,4959.379811,6809.894666,-2451.505594
571.979329,7105.977043,7179.997637,383.047749
571.979650,8142.265362,9548.656652,2911.162892
571.979970,5403.503377,8956.491898,2374.896044
571.980291,4441.235652,8142.265362,229.828649
571.980611,5181.441594,9252.574275,229.828649
571.980932,4441.235652,8290.306550,459.657299
571.981252,5033.400406,6513.812290,229.828649
571.981573,7179.997637,8216.285956,0.000000
571.981893,5847.626942,11399.171507,-689.485948
571.982214,4441.235652,11621.233289,-2451.505594
571.982534,4293.194464,9252.574275,-2987.772442
571.982855,4589.276840,6957.935855,919.314598
571.983175,4959.379811,8438.347739,3447.429741
571.983496,4811.338623,9474.636058,2451.505594
571.983816,3108.864956,8660.409521,-1455.581446
571.984137,5107.421000,9400.615463,-1302.362347
571.984457,6957.935855,9770.718434,2451.505594
571.984778,3552.988522,7698.141797,3140.991542
571.985099,3330.926739,7328.038826,0.000000
571.985419,4811.338623,7179.997637,-2145.067394
571.985740,3552.988522,7402.059420,-2298.286494
571.986060,4145.153275,6587.832884,0.000000
571.986381,5625.565159,6069.688724,306.438199
571.986701,6143.709319,8142.265362,-459.657299
571.987022,4811.338623,10658.965565,0.000000
571.987342,3701.029710,10732.986159,-1302.362347
571.987663,3627.009116,7031.956449,-1378.971896
571.987983,7550.100608,5329.482782,2145.067394
571.988304,6809.894666,5921.647536,3830.477490
571.988624,3478.967927,6439.791695,612.876398
571.988945,1702.473667,6217.729913,-2604.724693
571.989265,2886.803174,5773.606348,-2757.943793
571.989586,6365.771101,6735.874072,612.876398
571.989906,6661.853478,7105.977043,3524.039291
571.990227,5477.523971,6143.709319,-536.266849
571.990547,5403.503377,7179.997637,-2528.115143
571.990868,5329.482782,9844.739029,-536.266849
571.991188,5181.441594,9400.615463,1149.143247
571.991509,5033.400406,7254.018232,1455.581446
571.991830,5181.441594,6883.915261,-383.047749
571.992150,4811.338623,9030.512492,-2374.896044
571.992471,2516.700203,8290.306550,-3217.601092
571.992791,3923.091493,7920.203579,-3600.648841
571.993112,6735.874072,7550.100608,-383.047749
571.993432,6809.894666,10066.800811,1532.190996
571.993753,5181.441594,10807.006753,1378.971896
571.994073,3552.988522,9178.553681,383.047749
571.994394,4811.338623,9918.759623,1685.410096
571.994714,7328.038826,9844.739029,4136.915689
571.995035,6143.709319,7772.162391,2757.943793
571.995355,5033.400406,7179.997637,-689.485948
571.995676,5699.585753,8290.306550,-1608.800546
571.995996,4515.256246,8512.368333,-689.485948
571.996317,4885.359217,7994.224174,766.095498
571.996637,6069.688724,8216.285956,689.485948
571.996958,6365.771101,9400.615463,766.095498
571.997278,6217.729913,10584.944971,689.485948
571.997599,4441.235652,10584.944971,-229.828649
571.997919,4885.359217,9844.739029,-229.828649
571.998240,5847.626942,8660.409521,1532.190996
571.998561,4959.379811,7846.182985,1225.752797
571.998881,3034.844362,5847.626942,-689.485948
571.999202,3627.009116,6217.729913,-2145.067394
571.999522,3256.906145,6883.915261,-919.314598
571.999843,5255.462188,8734.430116,612.876398
572.000163,4737.318029,9548.656652,536.266849
572.000484,4145.153275,8142.265362,-1532.190996
572.000804,4219.173869,6513.812290,0.000000
572.001125,5921.647536,8216.285956,1762.019645
572.001445,5107.421000,9770.718434,1838.629195
572.001766,3849.070898,7698.141797,-459.657299
572.002086,3923.091493,4885.359217,-2911.162892
572.002407,6513.812290,5477.523971,-1991.848295
572.002727,4737.318029,5329.482782,306.438199
572.003048,3182.885551,4737.318029,-153.219100
572.003368,5921.647536,7328.038826,-1302.362347
572.003689,6661.853478,10658.965565,-1225.752797
572.004009,4071.132681,9252.574275,0.000000
572.004330,5477.523971,5699.585753,612.876398
572.004650,7328.038826,6439.791695,1991.848295
572.004971,6143.709319,8364.327145,3370.820191
572.005292,4367.215058,7624.121203,536.266849
572.005612,5773.606348,7254.018232,-3753.867940
572.005933,6735.874072,7550.100608,-1991.848295
572.006253,5921.647536,7476.080014,2911.162892
572.006574,7031.956449,7105.977043,1991.848295
572.006894,4663.297435,7179.997637,-2145.067394
572.007215,3404.947333,9918.759623,-2145.067394
572.007535,6069.688724,11473.192101,1072.533697
572.007856,5403.503377,10140.821405,1455.581446
572.008176,5477.523971,9992.780217,2451.505594
572.008497,7328.038826,11473.192101,2221.676944
572.008817,3923.091493,10066.800811,153.219100
572.009138,1036.288319,6365.771101,229.828649
572.009458,1850.514855,5107.421000,153.219100
572.009779,4589.276840,5329.482782,766.095498
572.010099,5921.647536,9918.759623,919.314598
572.010420,3997.112087,11103.089130,-689.485948
572.010740,4071.132681,10066.800811,-2374.896044
572.011061,6661.853478,9770.718434,842.705048
572.011381,5699.585753,8586.388927,3217.601092
572.011702,4219.173869,6587.832884,2298.286494
572.012023,4737.318029,7105.977043,-306.438199
572.012343,4959.379811,7920.203579,-2757.943793
572.012664,4367.215058,8290.306550,-2374.896044
572.012984,6143.709319,7476.080014,-1072.533697
572.013305,4441.235652,5847.626942,-842.705048
572.013625,5033.400406,6735.874072,-1302.362347
572.013946,4663.297435,8216.285956,-995.924147
572.014266,2146.597232,5699.585753,-3217.601092
572.014587,3923.091493,4367.215058,-1991.848295
572.014907,8512.368333,8142.265362,1149.143247
572.015228,6513.812290,10288.862594,919.314598
572.015548,4589.276840,10288.862594,-2451.505594
572.015869,5773.606348,9178.553681,-3830.477490
572.016189,5625.565159,6217.729913,-1455.581446
572.016510,5551.544565,4663.297435,1915.238745
572.016830,6439.791695,5255.462188,76.609550
572.017151,4737.318029,6143.709319,-4673.182538
572.017471,3997.112087,8660.409521,-4060.306139
572.017792,6883.915261,11177.109724,-153.219100
572.018112,5699.585753,9992.780217,1302.362347
572.018433,5551.544565,9252.574275,2451.505594
572.018754,7105.977043,9770.718434,2374.896044
572.019074,3330.926739,7920.203579,-689.485948
572.019395,1184.329507,5181.441594,-1225.752797
572.019715,4885.359217,5551.544565,-766.095498
572.020036,4293.194464,8216.285956,-766.095498
572.020356,6439.791695,12361.439231,766.095498
572.020677,4293.194464,12287.418637,-1302.362347
572.020997,4737.318029,10658.965565,-4290.134789
572.021318,5551.544565,9474.636058,153.219100
572.021638,5033.400406,8364.327145,3447.429741
572.021959,4885.359217,8734.430116,2528.115143
572.022279,5847.626942,11177.109724,766.095498
572.022600,3849.070898,11103.089130,-1838.629195
572.022920,4663.297435,8882.471304,-2451.505594
572.023241,4959.379811,8438.347739,-536.266849
572.023561,3478.967927,6883.915261,766.095498
572.023882,5329.482782,7328.038826,842.705048
572.024202,6069.688724,9178.553681,-459.657299
572.024523,1628.453072,7031.956449,-842.705048
572.024843,3404.947333,5773.606348,2298.286494
572.025164,7624.121203,8142.265362,4290.134789
572.025485,6809.894666,10732.986159,2145.067394
572.025805,4885.359217,10140.821405,-1915.238745
572.026126,5773.606348,8216.285956,-2911.162892
572.026446,6957.935855,5477.523971,229.828649
572.026767,6069.688724,3034.844362,4903.011187
572.027087,5551.544565,3256.906145,1532.190996
572.027408,3552.988522,4811.338623,-5515.887586
572.027728,3775.050304,8512.368333,-5056.230287
572.028049,7179.997637,10214.842000,306.438199
572.028369,7920.203579,8142.265362,2145.067394
572.028690,6661.853478,7846.182985,1378.971896
572.029010,5107.421000,7994.224174,76.609550
572.029331,1628.453072,5625.565159,-1915.238745
572.029651,1776.494261,4515.256246,-1149.143247
572.029972,4885.359217,5107.421000,0.000000
572.030292,4071.132681,5403.503377,-995.924147
572.030613,5033.400406,9104.533087,-1072.533697
572.030933,3627.009116,11177.109724,383.047749
572.031254,2886.803174,9474.636058,-1532.190996
572.031574,6587.832884,8512.368333,-766.095498
572.031895,4885.359217,7772.162391,1838.629195
572.032216,2072.576638,6439.791695,2834.553343
572.032536,6143.709319,8290.306550,2604.724693
572.032857,5403.503377,8660.409521,-995.924147
572.033177,2664.741391,7105.977043,-4366.744339
572.033498,4589.276840,6587.832884,-2374.896044
572.033818,5181.441594,7402.059420,0.000000
572.034139,5181.441594,9474.636058,1302.362347
572.034459,5995.668130,10140.821405,1149.143247
572.034780,5403.503377,8660.409521,-2528.115143
572.035100,4367.215058,7920.203579,-1685.410096
572.035421,5255.462188,10510.924376,2374.896044
572.035741,7179.997637,12583.501014,229.828649
572.036062,5181.441594,11177.109724,-3753.867940
572.036382,5181.441594,10140.821405,-2987.772442
572.036703,7105.977043,9696.697840,612.876398
572.037023,5625.565159,7920.203579,3064.381992
572.037344,4441.235652,7402.059420,612.876398
572.037665,3182.885551,6809.894666,-4443.353888
572.037985,3256.906145,8364.327145,-3524.039291
572.038306,6143.709319,9844.739029,2221.676944
572.038626,7328.038826,9770.718434,2528.115143
572.038947,6069.688724,8882.471304,383.047749
572.039267,5625.565159,9992.780217,-919.314598
572.039588,2072.576638,7698.141797,-1532.190996
572.039908,3849.070898,4959.379811,-689.485948
572.040229,6587.832884,4293.194464,-306.438199
572.040549,5403.503377,5995.668130,-3140.991542
572.040870,5477.523971,9474.636058,-3830.477490
572.041190,5403.503377,11325.150913,-2451.505594
572.041511,6439.791695,10732.986159,-2528.115143
572.041831,7624.121203,9696.697840,-995.924147
572.042152,5921.647536,8290.306550,842.705048
572.042472,3478.967927,6809.894666,1608.800546
572.042793,4959.379811,6735.874072,2528.115143
572.043113,3997.112087,6291.750507,919.314598
572.043434,3034.844362,4589.276840,-1838.629195
572.043755,4441.235652,4811.338623,-2757.943793
572.044075,3627.009116,5921.647536,-612.876398
572.044396,3478.967927,6513.812290,1072.533697
572.044716,5551.544565,7476.080014,-766.095498
572.045037,4885.359217,7920.203579,-3983.696590
572.045357,4959.379811,8734.430116,-2298.286494
572.045678,6291.750507,12657.521608,1378.971896
572.045998,7179.997637,14285.974681,842.705048
572.046319,4589.276840,10732.986159,-1378.971896
572.046639,4737.318029,7105.977043,-1302.362347
572.046960,6439.791695,6291.750507,1302.362347
572.047280,4071.132681,6809.894666,2528.115143
572.047601,2220.617826,6365.771101,306.438199
572.047921,3849.070898,7328.038826,-2911.162892
572.048242,4219.173869,7624.121203,153.219100
572.048562,4737.318029,7179.997637,6358.592633
572.048883,6439.791695,7476.080014,6052.154434
572.049204,4737.318029,8586.388927,766.095498
572.049524,1850.514855,7920.203579,-2528.115143
572.049845,2812.782580,6587.832884,-2911.162892
572.050165,7698.141797,6809.894666,0.000000
572.050486,7994.224174,9030.512492,995.924147
572.050806,6809.894666,10140.821405,-842.705048
572.051127,4219.173869,10288.862594,-4136.915689
572.051447,4293.194464,10881.027347,-2757.943793
572.051768,5181.441594,8586.388927,919.314598
572.052088,6957.935855,7179.997637,2298.286494
572.052409,6439.791695,7105.977043,2145.067394
572.052729,4441.235652,8512.368333,1532.190996
572.053050,2960.823768,7994.224174,0.000000
572.053370,3627.009116,7031.956449,-1302.362347
572.053691,5403.503377,5847.626942,0.000000
572.054011,5995.668130,5033.400406,1302.362347
572.054332,5107.421000,5255.462188,1455.581446
572.054652,5403.503377,7254.018232,306.438199
572.054973,4663.297435,7994.224174,-689.485948
572.055294,6143.709319,8956.491898,229.828649
572.055614,7920.203579,11399.171507,919.314598
572.055935,7402.059420,13619.789333,229.828649
572.056255,5403.503377,11251.130318,-383.047749
572.056576,5477.523971,6365.771101,229.828649
572.056896,5033.400406,2590.720797,919.314598
572.057217,4589.276840,2368.659014,2145.067394
572.057537,3182.885551,6069.688724,-995.924147
572.057858,3923.091493,10140.821405,-2987.772442
572.058178,5255.462188,11843.295072,-842.705048
572.058499,6365.771101,10066.800811,3140.991542
572.058819,4663.297435,6735.874072,3753.867940
572.059140,3701.029710,7179.997637,1838.629195
572.059460,888.247130,8956.491898,-536.266849
572.059781,1110.308913,7624.121203,-3064.381992
572.060101,4737.318029,8882.471304,-3140.991542
572.060422,7328.038826,10288.862594,-459.657299
572.060743,5551.544565,10362.883188,612.876398
572.061063,4737.318029,9696.697840,536.266849
572.061384,3256.906145,8290.306550,612.876398
572.061704,3775.050304,7105.977043,766.095498
572.062025,4367.215058,4367.215058,1149.143247
572.062345,6439.791695,4219.173869,459.657299
572.062666,5773.606348,6957.935855,766.095498
572.062986,6513.812290,9326.594869,-612.876398
572.063307,6291.750507,8586.388927,-3677.258390
572.063627,7105.977043,6809.894666,-2987.772442
572.063948,7105.977043,5477.523971,-689.485948
572.064268,7031.956449,6365.771101,612.876398
572.064589,4071.132681,6513.812290,-383.047749
572.064909,5329.482782,7920.203579,-2145.067394
572.065230,6957.935855,9622.677246,-2374.896044
572.065550,6069.688724,9252.574275,-689.485948
572.065871,5847.626942,11177.109724,0.000000
572.066191,7254.018232,12435.459826,-1072.533697
572.066512,2960.823768,8068.244768,-1991.848295
572.066833,2368.659014,3997.112087,-689.485948
572.067153,5699.585753,4811.338623,2681.334243
572.067474,5181.441594,7624.121203,3140.991542
572.067794,1998.556043,8290.306550,306.438199
572.068115,4145.153275,9252.574275,-2834.553343
572.068435,5625.565159,12361.439231,-2068.457845
572.068756,4885.359217,11177.109724,2911.162892
572.069076,5625.565159,7402.059420,2451.505594
572.069397,6217.729913,6365.771101,-1225.752797
572.069717,3034.844362,7920.203579,-1762.019645
572.070038,4071.132681,8290.306550,-842.705048
572.070358,6291.750507,8734.430116,-1225.752797
572.070679,6365.771101,9030.512492,-76.609550
572.070999,6143.709319,10436.903782,536.266849
572.071320,5699.585753,9844.739029,-612.876398
572.071640,3849.070898,7402.059420,-1225.752797
572.071961,5255.462188,7179.997637,612.876398
572.072282,6143.709319,6883.915261,383.047749
572.072602,3478.967927,6143.709319,-1685.410096
572.072923,2294.638420,8956.491898,-1608.800546
572.073243,5107.421000,12287.418637,1149.143247
572.073564,4737.318029,10807.006753,1455.581446
572.073884,5255.462188,8586.388927,-229.828649
572.074205,4959.379811,8660.409521,-2604.724693
572.074525,2220.617826,6809.894666,-919.314598
572.074846,3034.844362,5255.462188,3600.648841
572.075166,7254.018232,7254.018232,4213.525239
572.075487,3478.967927,8068.244768,536.266849
572.075807,3404.947333,8808.450710,-2298.286494
572.076128,7772.162391,10658.965565,-1991.848295
572.076448,4145.153275,7105.977043,0.000000
572.076769,5625.565159,4589.276840,842.705048
572.077089,10362.883188,5107.421000,-919.314598
572.077410,6143.709319,6883.915261,-1915.238745
572.077730,3478.967927,7624.121203,1302.362347
572.078051,6291.750507,8142.265362,766.095498
572.078372,6291.750507,8216.285956,-919.314598
572.078692,5625.565159,7846.182985,2221.676944
572.079013,5847.626942,7994.224174,3217.601092
572.079333,6291.750507,7698.141797,995.924147
572.079654,2812.782580,7624.121203,153.219100
572.079974,1406.391290,5847.626942,-1149.143247
572.080295,3478.967927,4515.256246,-3064.381992
572.080615,4441.235652,6587.832884,153.219100
572.080936,5551.544565,9992.780217,2451.505594
572.081256,5699.585753,10658.965565,-536.266849
572.081577,3997.112087,9326.594869,-2451.505594
572.081897,3552.988522,8734.430116,-1149.143247
572.082218,5625.565159,9474.636058,1762.019645
572.082538,7254.018232,10436.903782,3600.648841
572.082859,5181.441594,9252.574275,1838.629195
572.083179,4441.235652,6513.812290,-1532.190996
572.083500,4071.132681,5847.626942,-459.657299
572.083821,4515.256246,6365.771101,2374.896044
572.084141,4811.338623,6143.709319,1838.629195
572.084462,6883.915261,7476.080014,-1072.533697
572.084782,4737.318029,7920.203579,-2374.896044
572.085103,3701.029710,5995.668130,153.219100
572.085423,5625.565159,6513.812290,3524.039291
572.085744,6439.791695,9400.615463,2528.115143
572.086064,5181.441594,11399.171507,-1608.800546
572.086385,5847.626942,11917.315666,-5362.668486
572.086705,4293.194464,8660.409521,-6052.154434
572.087026,5847.626942,7254.018232,-1072.533697
572.087346,8142.265362,7994.224174,4136.915689
572.087667,4071.132681,8438.347739,1455.581446
572.087987,3182.885551,9622.677246,-2757.943793
572.088308,3923.091493,10436.903782,-1838.629195
572.088628,4293.194464,7772.162391,1302.362347
572.088949,5551.544565,4959.379811,5209.449386
572.089269,5551.544565,6439.791695,4443.353888
572.089590,3182.885551,7550.100608,-536.266849
572.089911,3552.988522,8290.306550,-3983.696590
572.090231,5847.626942,7698.141797,-2911.162892
572.090552,5773.606348,6365.771101,-842.705048
572.090872,6143.709319,7920.203579,612.876398
572.091193,6883.915261,11621.233289,-1608.800546
572.091513,4441.235652,10807.006753,-3217.601092
572.091834,5255.462188,7624.121203,-2374.896044
572.092154,8290.306550,7698.141797,76.609550
572.092475,7476.080014,9178.553681,459.657299
572.092795,2886.803174,9326.594869,919.314598
572.093116,4811.338623,8882.471304,-766.095498
572.093436,4885.359217,5995.668130,-383.047749
572.093757,3997.112087,4663.297435,2451.505594
572.094077,4589.276840,4515.256246,2145.067394
572.094398,2442.679609,7105.977043,-536.266849
572.094718,2072.576638,9696.697840,-689.485948
572.095039,3775.050304,9992.780217,-1378.971896
572.095360,4737.318029,7624.121203,-1532.190996
572.095680,4219.173869,6365.771101,-766.095498
572.096001,3478.967927,8142.265362,-1532.190996
572.096321,3552.988522,10732.986159,-3294.210641
572.096642,5921.647536,12657.521608,-5056.230287
572.096962,6883.915261,11917.315666,-3600.648841
572.097283,7920.203579,10584.944971,766.095498
572.097603,7772.162391,9622.677246,4673.182538
572.097924,4367.215058,7772.162391,4213.525239
572.098244,2664.741391,4293.194464,0.000000
572.098565,3034.844362,2738.761985,-2374.896044
572.098885,4071.132681,3701.029710,-919.314598
572.099206,6809.894666,6069.688724,2451.505594
572.099526,6957.935855,8512.368333,2451.505594
572.099847,7105.977043,11251.130318,-612.876398
572.100167,4663.297435,12731.542202,-2068.457845
572.100488,3627.009116,8882.471304,306.438199
572.100808,6069.688724,6513.812290,1915.238745
572.101129,7402.059420,7105.977043,2068.457845
572.101450,4441.235652,8586.388927,-383.047749
572.101770,4219.173869,10510.924376,-3983.696590
572.102091,6069.688724,11769.274478,-3600.648841
572.102411,4737.318029,10584.944971,689.485948
572.102732,5625.565159,7328.038826,2834.553343
572.103052,6513.812290,5033.400406,1225.752797
572.103373,2812.782580,5181.441594,229.828649
572.103693,1258.350101,5477.523971,1608.800546
572.104014,5551.544565,6365.771101,2528.115143
572.104334,6957.935855,7920.203579,-229.828649
572.104655,4663.297435,9178.553681,-766.095498
572.104975,4663.297435,8882.471304,0.000000
572.105296,5329.482782,8438.347739,-306.438199
572.105616,3552.988522,8216.285956,612.876398
572.105937,2960.823768,6661.853478,612.876398
572.106257,4293.194464,6735.874072,-1915.238745
572.106578,4071.132681,9326.594869,-1302.362347
572.106899,4737.318029,11251.130318,229.828649
572.107219,4737.318029,10066.800811,-76.609550
572.107540,4959.379811,7476.080014,-1149.143247
572.107860,4515.256246,7772.162391,1302.362347
572.108181,4663.297435,7328.038826,3753.867940
572.108501,5551.544565,5403.503377,2451.505594
572.108822,3256.906145,4515.256246,-1225.752797
572.109142,2368.659014,5107.421000,-1302.362347
572.109463,7031.956449,7698.141797,2451.505594
572.109783,8290.306550,9622.677246,2604.724693
572.110104,6291.750507,8364.327145,-1991.848295
572.110424,5847.626942,9770.718434,-5209.449386
572.110745,6143.709319,9104.533087,-2528.115143
572.111065,5107.421000,6439.791695,1455.581446
572.111386,5921.647536,5181.441594,2834.553343
572.111706,6957.935855,7550.100608,-306.438199
572.112027,6069.688724,11621.233289,-3753.867940
572.112347,3478.967927,10584.944971,-2757.943793
572.112668,4737.318029,8364.327145,766.095498
572.112989,7772.162391,7105.977043,2298.286494
572.113309,5181.441594,6069.688724,0.000000
572.113630,1776.494261,3627.009116,-1991.848295
572.113950,2368.659014,5329.482782,-1378.971896
572.114271,5107.421000,10140.821405,1915.238745
572.114591,4293.194464,11917.315666,1302.362347
572.114912,4737.318029,10584.944971,-1302.362347
572.115232,6143.709319,10436.903782,-2834.553343
572.115553,3627.009116,8882.471304,-1072.533697
572.115873,2442.679609,6957.935855,-306.438199
572.116194,5625.565159,6217.729913,-2374.896044
572.116514,4737.318029,7846.182985,-2987.772442
572.116835,4663.297435,10436.903782,153.219100
572.117155,6883.915261,12879.583391,1685.410096
572.117476,6143.709319,11473.192101,306.438199
572.117796,3256.906145,5403.503377,0.000000
572.118117,4293.194464,4367.215058,0.000000
572.118438,5477.523971,5995.668130,229.828649
572.118758,4589.276840,6735.874072,-1455.581446
572.119079,6513.812290,7105.977043,-3064.381992
572.119399,8142.265362,8956.491898,-3447.429741
572.119720,6957.935855,10732.986159,-536.266849
572.120040,4219.173869,10658.965565,1302.362347
572.120361,5921.647536,9696.697840,-1302.362347
572.120681,5477.523971,8882.471304,-2221.676944
572.121002,4219.173869,6957.935855,0.000000
572.121322,5329.482782,7698.141797,919.314598
572.121643,5477.523971,9696.697840,76.609550
572.121963,2442.679609,9844.739029,-459.657299
572.122284,2960.823768,7105.977043,-2757.943793
572.122604,4663.297435,5625.565159,-2528.115143
572.122925,5033.400406,7179.997637,1302.362347
572.123245,4959.379811,8290.306550,2374.896044
572.123566,4737.318029,7698.141797,-995.924147
572.123886,3627.009116,7624.121203,-3140.991542
572.124207,5477.523971,9992.780217,-536.266849
572.124528,7328.038826,11177.109724,3217.601092
572.124848,6513.812290,9918.759623,1915.238745
572.125169,5403.503377,9474.636058,229.828649
572.125489,6069.688724,8068.244768,-1149.143247
572.125810,4589.276840,5255.462188,-459.657299
572.126130,3552.988522,3627.009116,2451.505594
572.126451,5625.565159,4737.318029,2374.896044
572.126771,4293.194464,6439.791695,-306.438199
572.127092,3256.906145,6439.791695,-1225.752797
572.127412,6217.729913,8734.430116,-995.924147
572.127733,6735.874072,10288.862594,-306.438199
572.128053,5181.441594,9326.594869,0.000000
572.128374,5181.441594,7846.182985,-1838.629195
572.128694,5847.626942,8438.347739,-1532.190996
572.129014,4959.379811,9622.677246,1685.410096
572.129335,5033.400406,9770.718434,2757.943793
572.129655,4885.359217,8438.347739,536.266849
572.129976,3330.926739,7550.100608,0.000000
572.130296,2368.659014,5255.462188,306.438199
572.130617,5033.400406,5847.626942,842.705048
572.130937,3997.112087,5921.647536,2298.286494
572.131258,2072.576638,4737.318029,919.314598
572.131578,4367.215058,5699.585753,-2298.286494
572.131899,4145.153275,9030.512492,-3370.820191
572.132219,4293.194464,10140.821405,-612.876398
572.132539,7624.121203,10807.006753,229.828649
572.132860,7624.121203,10955.047942,-1302.362347
572.133180,3997.112087,9770.718434,-1762.019645
572.133501,5477.523971,9104.533087,-229.828649
572.133821,6069.688724,8734.430116,1149.143247
572.134142,4145.153275,7402.059420,2221.676944
572.134462,4737.318029,7846.182985,689.485948
572.134783,5773.606348,8068.244768,-2834.553343
572.135103,3478.967927,6957.935855,-1532.190996
572.135424,5107.421000,7402.059420,3830.477490
572.135744,7994.224174,7994.224174,4903.011187
572.136065,4959.379811,7254.018232,229.828649
572.136385,3256.906145,6735.874072,0.000000
572.136706,5921.647536,7254.018232,229.828649
572.137026,5847.626942,9252.574275,1149.143247
572.137347,5477.523971,11103.089130,1685.410096
572.137667,5625.565159,11177.109724,-2834.553343
572.137988,5329.482782,11103.089130,-5286.058936
572.138308,4515.256246,9622.677246,-153.219100
572.138629,4663.297435,7772.162391,1762.019645
572.138949,5255.462188,5773.606348,995.924147
572.139270,3775.050304,6217.729913,153.219100
572.139590,3552.988522,8290.306550,0.000000
572.139911,5773.606348,10510.924376,1378.971896
572.140231,5033.400406,8586.388927,2757.943793
572.140552,4367.215058,4885.359217,1225.752797
572.140872,4811.338623,3478.967927,-536.266849
572.141193,3182.885551,5181.441594,-1915.238745
572.141513,2960.823768,7179.997637,-2221.676944
572.141834,5255.462188,7402.059420,-2374.896044
572.142154,7624.121203,9030.512492,-2757.943793
572.142475,7105.977043,10881.027347,-2221.676944
572.142795,5403.503377,11843.295072,-2528.115143
572.143116,4811.338623,9400.615463,-2911.162892
572.143436,5477.523971,6957.935855,-306.438199
572.143756,5477.523971,5995.668130,1532.190996
572.144077,5255.462188,5699.585753,306.438199
572.144397,5107.421000,7105.977043,-536.266849
572.144718,4219.173869,8142.265362,-842.705048
572.145038,3478.967927,7328.038826,-229.828649
572.145359,5551.544565,6217.729913,689.485948
572.145679,5403.503377,5773.606348,766.095498
572.146000,4145.153275,5847.626942,1532.190996
572.146320,4959.379811,9326.594869,1532.190996
572.146641,4515.256246,10288.862594,-766.095498
572.146961,3849.070898,8438.347739,-1378.971896
572.147282,6217.729913,8290.306550,-1072.533697
572.147602,6661.853478,10436.903782,-1991.848295
572.147923,4737.318029,11695.253884,-2068.457845
572.148243,4071.132681,9696.697840,-1915.238745
572.148564,5255.462188,7402.059420,-1072.533697
572.148884,5773.606348,7624.121203,1225.752797
572.149205,4959.379811,8808.450710,2451.505594
572.149525,4441.235652,9474.636058,1302.362347
572.149846,4737.318029,10288.862594,-459.657299
572.150166,4737.318029,9104.533087,459.657299
572.150487,3923.091493,6291.750507,229.828649
572.150807,3923.091493,4663.297435,153.219100
572.151128,4589.276840,5773.606348,229.828649
572.151448,4737.318029,8216.285956,-1838.629195
572.151769,4737.318029,11103.089130,-3830.477490
572.152089,4663.297435,10362.883188,-2834.553343
572.152410,5255.462188,10066.800811,0.000000
572.152730,8586.388927,11177.109724,3677.258390
572.153051,6439.791695,12879.583391,2221.676944
572.153371,2590.720797,9474.636058,-2528.115143
572.153692,4367.215058,6143.709319,-2451.505594
572.154012,6513.812290,5403.503377,1072.533697
572.154333,4811.338623,5847.626942,3447.429741
572.154653,5033.400406,6143.709319,1838.629195
572.154973,3775.050304,7105.977043,-1378.971896
572.155294,4811.338623,8660.409521,-536.266849
572.155614,5255.462188,8216.285956,2298.286494
572.155935,6217.729913,7328.038826,1608.800546
572.156255,5329.482782,6883.915261,76.609550
572.156576,5699.585753,10362.883188,383.047749
572.156896,5181.441594,11769.274478,766.095498
572.157217,5921.647536,9326.594869,1302.362347
572.157537,5477.523971,6587.832884,-612.876398
572.157858,6291.750507,8438.347739,-306.438199
572.158178,3404.947333,8364.327145,842.705048
572.158499,3552.988522,6365.771101,1072.533697
572.158819,6365.771101,4293.194464,2068.457845
572.159140,5255.462188,3849.070898,3370.820191
572.159460,3256.906145,4737.318029,1302.362347
572.159781,4293.194464,4959.379811,-1455.581446
572.160101,4367.215058,7772.162391,-1762.019645
572.160422,7031.956449,9326.594869,919.314598
572.160742,10288.862594,9326.594869,689.485948
572.161063,6661.853478,5921.647536,-1225.752797
572.161383,4219.173869,4367.215058,0.000000
572.161704,5625.565159,7179.997637,689.485948
572.162024,4441.235652,9178.553681,-1532.190996
572.162345,3701.029710,8586.388927,-2911.162892
572.162665,4737.318029,8216.285956,-1532.190996
572.162986,6365.771101,7772.162391,459.657299
572.163306,4515.256246,6513.812290,919.314598
572.163627,1924.535449,6069.688724,-1991.848295
572.163947,2664.741391,6513.812290,-4060.306139
572.164268,4441.235652,8068.244768,-536.266849
572.164588,4367.215058,8882.471304,2528.115143
572.164909,4811.338623,8660.409521,-229.828649
572.165229,6069.688724,10362.883188,-1302.362347
572.165550,4589.276840,11991.336260,-689.485948
572.165870,4515.256246,11621.233289,-842.705048
572.166191,5403.503377,9474.636058,-1455.581446
572.166511,4441.235652,5255.462188,-1915.238745
572.166831,3627.009116,4515.256246,459.657299
572.167152,4811.338623,8956.491898,2068.457845
572.167472,5181.441594,12731.542202,2221.676944
572.167793,3923.091493,11917.315666,-2298.286494
572.168113,7105.977043,9918.759623,-3447.429741
572.168434,7179.997637,9474.636058,0.000000
572.168754,3997.112087,6439.791695,2681.334243
572.169075,4811.338623,5921.647536,0.000000
572.169395,5551.544565,7179.997637,-4443.353888
572.169716,2738.761985,9252.574275,-4903.011187
572.170036,6809.894666,12509.480420,-919.314598
572.170357,8586.388927,12509.480420,536.266849
572.170677,5699.585753,12139.377449,-306.438199
572.170998,4663.297435,9474.636058,0.000000
572.171318,4071.132681,5329.482782,-1838.629195
572.171639,3997.112087,4959.379811,153.219100
572.171959,5847.626942,9178.553681,3753.867940
572.172280,5033.400406,10658.965565,1532.190996
572.172600,4441.235652,7328.038826,-2987.772442
572.172921,4885.359217,5477.523971,-3294.210641
572.173241,5625.565159,4737.318029,536.266849
572.173562,7624.121203,6735.874072,2604.724693
572.173882,5181.441594,7254.018232,383.047749
572.174203,5773.606348,8734.430116,-3447.429741
572.174523,7624.121203,10140.821405,-1608.800546
572.174844,8364.327145,9696.697840,995.924147
572.175164,5625.565159,6587.832884,153.219100
572.175485,5551.544565,6365.771101,-1225.752797
572.175805,5255.462188,7328.038826,-612.876398
572.176126,5625.565159,6883.915261,-612.876398
572.176446,4737.318029,4959.379811,-383.047749
572.176767,5773.606348,5033.400406,-306.438199
572.177087,2960.823768,6883.915261,153.219100
572.177408,3923.091493,10584.944971,2374.896044
572.177728,4367.215058,10658.965565,3140.991542
572.178048,4959.379811,7994.224174,1072.533697
572.178369,3478.967927,6069.688724,-1225.752797
572.178689,2812.782580,6809.894666,-306.438199
572.179010,592.164754,7105.977043,0.000000
