#time,accel_x,accel_y,accel_z
169.345442,4885.359217,7920.203579,0.000000
169.345762,5181.441594,7772.162391,-229.828649
169.346083,4663.297435,8290.306550,0.000000
169.346404,5107.421000,7994.224174,-536.266849
169.346725,4885.359217,7994.224174,-153.219100
169.347046,5107.421000,7994.224174,0.000000
169.347367,5033.400406,8290.306550,-153.219100
169.347688,4959.379811,8068.244768,-306.438199
169.348009,5255.462188,7994.224174,0.000000
169.348330,5033.400406,8068.244768,-459.657299
169.348651,4959.379811,8216.285956,0.000000
169.348972,5181.441594,8068.244768,0.000000
169.349292,5033.400406,8068.244768,-229.828649
169.349613,4885.359217,8364.327145,153.219100
169.349934,5181.441594,7920.203579,0.000000
169.350255,4811.338623,8216.285956,0.000000
169.350576,5033.400406,7994.224174,-383.047749
169.350897,5107.421000,8216.285956,0.000000
169.351218,5107.421000,7994.224174,0.000000
169.351539,4959.379811,8216.285956,-153.219100
169.351860,5033.400406,7772.162391,0.000000
169.352181,4959.379811,7846.182985,-306.438199
169.352502,5107.421000,7994.224174,229.828649
169.352822,5181.441594,8216.285956,-536.266849
169.353143,4959.379811,8142.265362,-76.609550
169.353464,5255.462188,8216.285956,-153.219100
169.353785,5033.400406,8290.306550,-306.438199
169.354106,5033.400406,7920.203579,-306.438199
169.354427,5255.462188,8216.285956,-153.219100
169.354748,4959.379811,7994.224174,-306.438199
169.355069,5033.400406,7846.182985,-229.828649
169.355390,4515.256246,7920.203579,-766.095498
169.355711,4589.276840,7402.059420,-612.876398
169.356032,4293.194464,7476.080014,0.000000
169.356352,4663.297435,8882.471304,-459.657299
169.356673,4663.297435,9622.677246,-919.314598
169.356994,5329.482782,9918.759623,-1072.533697
169.357315,4589.276840,9474.636058,-995.924147
169.357636,4293.194464,8734.430116,0.000000
169.357957,3404.947333,8364.327145,689.485948
169.358278,3182.885551,8808.450710,842.705048
169.358599,2738.761985,9030.512492,0.000000
169.358920,2442.679609,8808.450710,-306.438199
169.359241,2738.761985,7994.224174,-383.047749
169.359561,3552.988522,8438.347739,-536.266849
169.359882,3330.926739,9400.615463,0.000000
169.360203,3182.885551,9474.636058,459.657299
169.360524,2368.659014,8882.471304,229.828649
169.360845,2368.659014,9030.512492,0.000000
169.361166,2220.617826,10140.821405,-766.095498
169.361487,1998.556043,11251.130318,-1225.752797
169.361808,1776.494261,11843.295072,-995.924147
169.362129,1480.411884,12139.377449,-459.657299
169.362450,148.041188,11177.109724,-459.657299
169.362771,-666.185348,11177.109724,-1608.800546
169.363091,-1332.370696,11621.233289,-1225.752797
169.363412,-1924.535449,12509.480420,0.000000
169.363733,-1776.494261,12583.501014,919.314598
169.364054,-1628.453072,12065.356855,1149.143247
169.364375,-1406.391290,12139.377449,1685.410096
169.364696,-1850.514855,12731.542202,1838.629195
169.365017,-2738.761985,12435.459826,689.485948
169.365338,-2516.700203,11251.130318,0.000000
169.365659,-1332.370696,10288.862594,-383.047749
169.365980,-1258.350101,10214.842000,0.000000
169.366301,-962.267725,10140.821405,229.828649
169.366621,-296.082377,10658.965565,153.219100
169.366942,296.082377,11251.130318,-612.876398
169.367263,962.267725,11695.253884,-1532.190996
169.367584,1850.514855,10732.986159,-1608.800546
169.367905,2590.720797,10658.965565,-766.095498
169.368226,3330.926739,10584.944971,76.609550
169.368547,2812.782580,10362.883188,-842.705048
169.368868,2294.638420,9474.636058,-2451.505594
169.369189,2072.576638,8882.471304,-2298.286494
169.369510,1924.535449,9918.759623,-1685.410096
169.369831,2294.638420,9992.780217,-383.047749
169.370151,1850.514855,10214.842000,-383.047749
169.370472,1554.432478,11251.130318,-536.266849
169.370793,814.226536,11325.150913,306.438199
169.371114,-148.041188,10881.027347,1072.533697
169.371435,-444.123565,9918.759623,995.924147
169.371756,-518.144159,9918.759623,383.047749
169.372077,-148.041188,9918.759623,995.924147
169.372398,-740.205942,10288.862594,1072.533697
169.372719,0.000000,11029.068536,1378.971896
169.373040,518.144159,11547.212695,1378.971896
169.373361,1036.288319,11325.150913,1072.533697
169.373681,1406.391290,11029.068536,229.828649
169.374002,1184.329507,11325.150913,153.219100
169.374323,1628.453072,10362.883188,-612.876398
169.374644,2072.576638,9548.656652,-153.219100
169.374965,2146.597232,9104.533087,-383.047749
169.375286,1776.494261,8290.306550,-229.828649
169.375607,2294.638420,8734.430116,-153.219100
169.375928,2812.782580,10288.862594,-383.047749
169.376249,2590.720797,10955.047942,-689.485948
169.376570,2960.823768,10881.027347,-919.314598
169.376891,3478.967927,9992.780217,-1072.533697
169.377211,2960.823768,9622.677246,-766.095498
169.377532,2960.823768,9400.615463,-842.705048
169.377853,2516.700203,9844.739029,-689.485948
169.378174,1702.473667,10584.944971,-766.095498
169.378495,1036.288319,11177.109724,-383.047749
169.378816,1480.411884,11695.253884,306.438199
169.379137,740.205942,11029.068536,-1072.533697
169.379458,-888.247130,9918.759623,-1532.190996
169.379779,-1406.391290,8734.430116,-1302.362347
169.380100,-1110.308913,8512.368333,0.000000
169.380421,-1776.494261,9326.594869,1149.143247
169.380741,-962.267725,10955.047942,1225.752797
169.381062,296.082377,12731.542202,1455.581446
169.381383,518.144159,14137.933492,689.485948
169.381704,888.247130,13767.830521,459.657299
169.382025,1850.514855,12287.418637,-536.266849
169.382346,1702.473667,10584.944971,-766.095498
169.382667,1110.308913,9844.739029,-612.876398
169.382988,592.164754,8882.471304,-1302.362347
169.383309,-666.185348,8956.491898,-2298.286494
169.383630,-1110.308913,9770.718434,-1762.019645
169.383950,-962.267725,11251.130318,-1762.019645
169.384271,-592.164754,12213.398043,-1072.533697
169.384592,518.144159,13471.748144,-383.047749
169.384913,814.226536,13915.871710,612.876398
169.385234,0.000000,13989.892304,0.000000
169.385555,74.020594,13545.768739,229.828649
169.385876,296.082377,12435.459826,306.438199
169.386197,0.000000,10584.944971,0.000000
169.386518,592.164754,8290.306550,-842.705048
169.386839,740.205942,8438.347739,-76.609550
169.387160,74.020594,10140.821405,766.095498
169.387480,0.000000,11177.109724,1915.238745
169.387801,0.000000,10658.965565,1685.410096
169.388122,0.000000,9474.636058,153.219100
169.388443,444.123565,8956.491898,153.219100
169.388764,1036.288319,10066.800811,0.000000
169.389085,1628.453072,12065.356855,-459.657299
169.389406,2072.576638,12805.562797,-1302.362347
169.389727,1628.453072,12213.398043,-2451.505594
169.390048,1628.453072,11325.150913,-2068.457845
169.390369,1702.473667,12361.439231,-459.657299
169.390690,148.041188,12731.542202,0.000000
169.391010,518.144159,11325.150913,229.828649
169.391331,1702.473667,9918.759623,612.876398
169.391652,-666.185348,9400.615463,1991.848295
169.391973,-814.226536,7994.224174,2221.676944
169.392294,-1258.350101,7772.162391,2068.457845
169.392615,-2072.576638,7402.059420,306.438199
169.392936,-148.041188,8290.306550,76.609550
169.393257,2368.659014,10140.821405,-459.657299
169.393578,2146.597232,11917.315666,-1532.190996
169.393899,2738.761985,14137.933492,-995.924147
169.394220,2368.659014,12731.542202,-1302.362347
169.394540,666.185348,9770.718434,-2451.505594
169.394861,1554.432478,5995.668130,-995.924147
169.395182,2886.803174,7105.977043,919.314598
169.395503,1554.432478,11251.130318,1532.190996
169.395824,0.000000,13767.830521,-842.705048
169.396145,740.205942,13767.830521,-3370.820191
169.396466,1332.370696,11621.233289,-3217.601092
169.396787,0.000000,7920.203579,-1302.362347
169.397108,-740.205942,6661.853478,229.828649
169.397429,-1036.288319,8586.388927,-229.828649
169.397750,-740.205942,12657.521608,612.876398
169.398070,-1184.329507,14730.098246,919.314598
169.398391,-814.226536,14434.015869,0.000000
169.398712,296.082377,15248.242405,0.000000
169.399033,-814.226536,14285.974681,919.314598
169.399354,-1332.370696,11843.295072,612.876398
169.399675,-370.102971,9474.636058,0.000000
169.399996,370.102971,9992.780217,0.000000
169.400317,0.000000,9918.759623,995.924147
169.400638,-370.102971,9474.636058,612.876398
169.400959,-296.082377,9548.656652,459.657299
169.401280,1184.329507,10066.800811,766.095498
169.401600,3997.112087,10362.883188,1455.581446
169.401921,4811.338623,11547.212695,536.266849
169.402242,4071.132681,11547.212695,-1302.362347
169.402563,3923.091493,11473.192101,-2145.067394
169.402884,3182.885551,10881.027347,-2604.724693
169.403205,666.185348,7846.182985,-2604.724693
169.403526,1998.556043,7031.956449,-842.705048
169.403847,3923.091493,9474.636058,153.219100
169.404168,1184.329507,12879.583391,459.657299
169.404489,518.144159,14285.974681,-766.095498
169.404809,888.247130,13175.665768,-2528.115143
169.405130,-296.082377,9992.780217,-306.438199
169.405451,-2368.659014,8438.347739,2145.067394
169.405771,-2368.659014,7624.121203,1838.629195
169.406092,-592.164754,11695.253884,536.266849
169.406413,-1850.514855,15544.324782,-612.876398
169.406733,-3552.988522,14211.954086,-2451.505594
169.407054,-1406.391290,11177.109724,-919.314598
169.407375,-444.123565,9844.739029,3217.601092
169.407695,-1332.370696,10510.924376,5515.887586
169.408016,-592.164754,10881.027347,3524.039291
169.408337,-1258.350101,9992.780217,-1378.971896
169.408657,0.000000,9178.553681,-1608.800546
169.408978,1776.494261,7550.100608,1302.362347
169.409299,3034.844362,6291.750507,1072.533697
169.409619,4589.276840,7031.956449,0.000000
169.409940,4663.297435,10436.903782,-919.314598
169.410261,3404.947333,10658.965565,-2068.457845
169.410581,3775.050304,9548.656652,-2911.162892
169.410902,6513.812290,10955.047942,-2145.067394
169.411223,5477.523971,11991.336260,-1608.800546
169.411543,3552.988522,9622.677246,-2068.457845
169.411864,2886.803174,8364.327145,-2757.943793
169.412185,518.144159,8882.471304,-1838.629195
169.412505,-592.164754,10955.047942,0.000000
169.412826,296.082377,12435.459826,995.924147
169.413146,-1110.308913,11103.089130,-995.924147
169.413467,-1184.329507,9770.718434,-229.828649
169.413788,1184.329507,10140.821405,2451.505594
169.414108,296.082377,11473.192101,4213.525239
169.414429,-888.247130,11843.295072,3600.648841
169.414750,-1258.350101,10140.821405,1608.800546
169.415070,444.123565,7402.059420,-306.438199
169.415391,3182.885551,6809.894666,1302.362347
169.415712,3849.070898,8438.347739,2911.162892
169.416032,3775.050304,11029.068536,536.266849
169.416353,4441.235652,10807.006753,-1378.971896
169.416674,5255.462188,9178.553681,-2221.676944
169.416994,6439.791695,6439.791695,-1532.190996
169.417315,8216.285956,5773.606348,766.095498
169.417636,8586.388927,7624.121203,689.485948
169.417956,6809.894666,8438.347739,-1455.581446
169.418277,6439.791695,7254.018232,-3370.820191
169.418598,9030.512492,7994.224174,-3140.991542
169.418918,8808.450710,8290.306550,-2145.067394
169.419239,6587.832884,8660.409521,-1149.143247
169.419560,5181.441594,8438.347739,-2298.286494
169.419880,3330.926739,7772.162391,-3064.381992
169.420201,3108.864956,8438.347739,-1915.238745
169.420522,3034.844362,9400.615463,995.924147
169.420842,2664.741391,10288.862594,1685.410096
169.421163,1480.411884,11103.089130,1532.190996
169.421483,1480.411884,10288.862594,612.876398
169.421804,2146.597232,9178.553681,0.000000
169.422125,2368.659014,8438.347739,2374.896044
169.422445,3404.947333,7179.997637,4596.572988
169.422766,3923.091493,6439.791695,3294.210641
169.423087,3701.029710,4959.379811,229.828649
169.423407,5773.606348,6661.853478,459.657299
169.423728,6143.709319,9548.656652,459.657299
169.424049,5107.421000,9474.636058,-383.047749
169.424369,7698.141797,8142.265362,-1378.971896
169.424690,9474.636058,6883.915261,-1149.143247
169.425011,6809.894666,5329.482782,-1302.362347
169.425331,7846.182985,6291.750507,-612.876398
169.425652,7624.121203,8142.265362,-1608.800546
169.425973,6809.894666,8956.491898,-2911.162892
169.426293,7624.121203,8216.285956,-766.095498
169.426614,7994.224174,7624.121203,-689.485948
169.426935,6217.729913,8142.265362,-919.314598
169.427255,4737.318029,9030.512492,-229.828649
169.427576,4589.276840,8882.471304,-995.924147
169.427897,3627.009116,7254.018232,-612.876398
169.428217,3034.844362,6661.853478,1378.971896
169.428538,2738.761985,7550.100608,1072.533697
169.428859,1628.453072,9622.677246,383.047749
169.429179,1406.391290,10732.986159,612.876398
169.429500,1406.391290,9844.739029,1072.533697
169.429820,2220.617826,8216.285956,1532.190996
169.430141,3849.070898,7698.141797,1608.800546
169.430462,3108.864956,7994.224174,842.705048
169.430782,2368.659014,7402.059420,919.314598
169.431103,4515.256246,6957.935855,1838.629195
169.431424,5773.606348,6217.729913,1302.362347
169.431744,6661.853478,5403.503377,76.609550
169.432065,7624.121203,7031.956449,-229.828649
169.432386,6291.750507,8290.306550,-1302.362347
169.432706,6365.771101,8216.285956,-2221.676944
169.433027,8216.285956,6957.935855,-3294.210641
169.433348,9104.533087,6883.915261,-3370.820191
169.433668,8660.409521,6661.853478,-1685.410096
169.433989,6809.894666,6365.771101,0.000000
169.434310,6513.812290,7624.121203,-1455.581446
169.434630,5921.647536,8216.285956,-2145.067394
169.434951,5847.626942,8142.265362,-2451.505594
169.435272,6365.771101,7624.121203,-1532.190996
169.435592,5625.565159,8290.306550,0.000000
169.435913,4959.379811,8734.430116,-153.219100
169.436234,4737.318029,7994.224174,-612.876398
169.436554,3478.967927,7031.956449,-536.266849
169.436875,3256.906145,7920.203579,689.485948
169.437195,3701.029710,9696.697840,1302.362347
169.437516,3330.926739,10140.821405,536.266849
169.437837,3775.050304,9548.656652,0.000000
169.438157,4071.132681,9104.533087,1915.238745
169.438478,4145.153275,9474.636058,2145.067394
169.438799,4589.276840,9030.512492,153.219100
169.439119,4663.297435,7031.956449,-1072.533697
169.439440,4663.297435,6735.874072,-383.047749
169.439761,5107.421000,7105.977043,1455.581446
169.440081,5551.544565,9178.553681,689.485948
169.440402,6365.771101,9696.697840,-1991.848295
169.440723,7105.977043,8956.491898,-2374.896044
169.441043,7772.162391,8660.409521,-612.876398
169.441364,7105.977043,8808.450710,-842.705048
169.441685,6513.812290,8364.327145,-2451.505594
169.442005,6513.812290,8808.450710,-3447.429741
169.442326,6217.729913,8142.265362,-459.657299
169.442647,7846.182985,8290.306550,1455.581446
169.442967,6069.688724,6661.853478,306.438199
169.443288,4737.318029,6439.791695,-2757.943793
169.443609,4663.297435,8290.306550,-1685.410096
169.443929,3256.906145,8586.388927,612.876398
169.444250,4441.235652,7994.224174,2451.505594
169.444571,6587.832884,7698.141797,1149.143247
169.444891,4811.338623,8438.347739,-1149.143247
169.445212,1998.556043,8660.409521,-1149.143247
169.445532,1406.391290,7994.224174,153.219100
169.445853,2960.823768,7846.182985,919.314598
169.446174,4663.297435,7550.100608,1838.629195
169.446494,5255.462188,7920.203579,2145.067394
169.446815,3627.009116,8512.368333,153.219100
169.447136,2368.659014,9326.594869,-842.705048
169.447456,3330.926739,8438.347739,-842.705048
169.447777,5255.462188,6069.688724,0.000000
169.448098,7031.956449,4145.153275,1608.800546
169.448418,7105.977043,5995.668130,1762.019645
169.448739,5847.626942,8142.265362,-306.438199
169.449060,5477.523971,9030.512492,-2068.457845
169.449380,7105.977043,7920.203579,-689.485948
169.449701,7994.224174,7254.018232,689.485948
169.450022,8364.327145,7328.038826,1302.362347
169.450342,7031.956449,7772.162391,-919.314598
169.450663,5699.585753,7624.121203,-2374.896044
169.450984,5699.585753,6439.791695,-536.266849
169.451304,6217.729913,5033.400406,689.485948
169.451625,5551.544565,4145.153275,842.705048
169.451946,6143.709319,5403.503377,536.266849
169.452266,6957.935855,8734.430116,766.095498
169.452587,4885.359217,9548.656652,689.485948
169.452908,5181.441594,8512.368333,-153.219100
169.453228,7031.956449,7920.203579,-1149.143247
169.453549,5477.523971,7179.997637,0.000000
169.453869,5107.421000,7328.038826,2604.724693
169.454190,4589.276840,7328.038826,2451.505594
169.454511,3256.906145,7624.121203,-1149.143247
169.454831,5403.503377,8882.471304,-1685.410096
169.455152,4959.379811,9326.594869,-612.876398
169.455473,4589.276840,8882.471304,-766.095498
169.455793,6143.709319,9104.533087,766.095498
169.456114,5625.565159,8290.306550,306.438199
169.456435,4589.276840,6809.894666,0.000000
169.456755,3775.050304,6513.812290,766.095498
169.457076,4663.297435,7772.162391,-536.266849
169.457397,4737.318029,9474.636058,-766.095498
169.457717,5773.606348,9696.697840,-766.095498
169.458038,5921.647536,8512.368333,-842.705048
169.458359,5181.441594,7402.059420,-995.924147
169.458679,5033.400406,8586.388927,-1225.752797
169.459000,5181.441594,8290.306550,-1915.238745
169.459321,4367.215058,6809.894666,-1455.581446
169.459641,4885.359217,6587.832884,-383.047749
169.459962,4959.379811,7105.977043,153.219100
169.460283,4219.173869,7920.203579,-459.657299
169.460603,5181.441594,9252.574275,-766.095498
169.460924,5403.503377,9844.739029,-1378.971896
169.461245,6217.729913,9178.553681,-1608.800546
169.461565,5033.400406,8290.306550,-1225.752797
169.461886,5551.544565,7105.977043,-383.047749
169.462206,6513.812290,9326.594869,689.485948
169.462527,4071.132681,8660.409521,842.705048
169.462848,4737.318029,9400.615463,-1838.629195
169.463168,6809.894666,9030.512492,-2374.896044
169.463489,4367.215058,8586.388927,-2145.067394
169.463810,4885.359217,7328.038826,612.876398
169.464130,5181.441594,7550.100608,1991.848295
169.464451,4663.297435,7698.141797,0.000000
169.464772,4959.379811,8068.244768,229.828649
169.465092,4589.276840,7624.121203,459.657299
169.465413,3256.906145,7550.100608,-536.266849
169.465734,4737.318029,9548.656652,995.924147
169.466054,5255.462188,9992.780217,229.828649
169.466375,6439.791695,9474.636058,-766.095498
169.466696,5921.647536,8438.347739,76.609550
169.467016,4885.359217,8660.409521,-689.485948
169.467337,4145.153275,8364.327145,-229.828649
169.467658,3923.091493,7698.141797,-689.485948
169.467978,5699.585753,6735.874072,383.047749
169.468299,5699.585753,5699.585753,842.705048
169.468620,5329.482782,5847.626942,612.876398
169.468940,4737.318029,7105.977043,-153.219100
169.469261,5921.647536,7846.182985,0.000000
169.469581,6069.688724,7920.203579,229.828649
169.469902,6587.832884,7105.977043,229.828649
169.470223,7328.038826,7550.100608,-612.876398
169.470543,6143.709319,8586.388927,-689.485948
169.470864,3552.988522,8808.450710,-919.314598
169.471185,5625.565159,8290.306550,0.000000
169.471505,5181.441594,7624.121203,-612.876398
169.471826,4515.256246,7179.997637,-919.314598
169.472147,4663.297435,8586.388927,306.438199
169.472467,2590.720797,9104.533087,1302.362347
169.472788,2072.576638,9326.594869,1149.143247
169.473109,3034.844362,8660.409521,689.485948
169.473429,2960.823768,6735.874072,-612.876398
169.473750,2590.720797,6439.791695,306.438199
169.474071,2812.782580,7920.203579,1915.238745
169.474391,2664.741391,9326.594869,995.924147
169.474712,4219.173869,9548.656652,153.219100
169.475033,4811.338623,9326.594869,-842.705048
169.475353,5107.421000,8956.491898,0.000000
169.475674,6365.771101,9474.636058,842.705048
169.475995,5699.585753,8734.430116,-383.047749
169.476315,4367.215058,7402.059420,-1915.238745
169.476636,5699.585753,5625.565159,-1378.971896
169.476957,6069.688724,6439.791695,0.000000
169.477277,5847.626942,7328.038826,306.438199
169.477598,7031.956449,9104.533087,-766.095498
169.477918,6587.832884,9252.574275,-919.314598
169.478239,5773.606348,8660.409521,-1378.971896
169.478560,6291.750507,8364.327145,-306.438199
169.478880,6069.688724,7772.162391,0.000000
169.479201,7031.956449,7476.080014,0.000000
169.479522,5921.647536,7105.977043,153.219100
169.479842,4071.132681,6217.729913,-1072.533697
169.480163,4441.235652,7328.038826,-1378.971896
169.480484,5181.441594,9400.615463,229.828649
169.480804,4737.318029,8290.306550,0.000000
169.481125,6735.874072,7031.956449,612.876398
169.481446,6143.709319,6439.791695,459.657299
169.481766,4589.276840,7105.977043,-1838.629195
169.482087,4663.297435,7254.018232,-1378.971896
169.482408,4663.297435,7698.141797,153.219100
169.482728,5625.565159,8512.368333,383.047749
169.483049,7994.224174,9770.718434,536.266849
169.483370,6883.915261,10214.842000,-2068.457845
169.483690,3923.091493,10214.842000,-3294.210641
169.484011,3775.050304,8808.450710,-459.657299
169.484332,5255.462188,8586.388927,766.095498
169.484652,5107.421000,6883.915261,689.485948
169.484973,4293.194464,5995.668130,-1225.752797
169.485294,3775.050304,6809.894666,-1762.019645
169.485614,2886.803174,9918.759623,0.000000
169.485935,3108.864956,10510.924376,689.485948
169.486255,4959.379811,9030.512492,229.828649
169.486576,4885.359217,7772.162391,995.924147
169.486897,3775.050304,9474.636058,689.485948
169.487217,3108.864956,11029.068536,229.828649
169.487538,2664.741391,10288.862594,-2145.067394
169.487859,3552.988522,9178.553681,-2451.505594
169.488179,4663.297435,8438.347739,0.000000
169.488500,4737.318029,8512.368333,1225.752797
169.488821,3997.112087,9696.697840,612.876398
169.489141,2960.823768,9992.780217,-536.266849
169.489462,2664.741391,8882.471304,-1225.752797
169.489783,3627.009116,7772.162391,153.219100
169.490103,5033.400406,7772.162391,1685.410096
169.490424,5847.626942,8438.347739,766.095498
169.490745,4219.173869,7624.121203,919.314598
169.491065,3404.947333,8660.409521,229.828649
169.491386,3108.864956,9400.615463,0.000000
169.491707,3849.070898,8808.450710,-383.047749
169.492027,5329.482782,8808.450710,0.000000
169.492348,5181.441594,8882.471304,383.047749
169.492669,3701.029710,8586.388927,-229.828649
169.492989,3775.050304,8660.409521,-919.314598
169.493310,3923.091493,7698.141797,-1608.800546
169.493631,3923.091493,6809.894666,-306.438199
169.493951,4885.359217,7031.956449,2298.286494
169.494272,5181.441594,7328.038826,1762.019645
169.494592,4885.359217,8290.306550,-306.438199
169.494913,5181.441594,7846.182985,0.000000
169.495234,5033.400406,7328.038826,153.219100
169.495554,6365.771101,6513.812290,1302.362347
169.495875,7402.059420,5995.668130,842.705048
169.496196,6809.894666,5403.503377,229.828649
169.496516,5625.565159,6809.894666,459.657299
169.496837,5995.668130,7550.100608,766.095498
169.497158,6069.688724,7846.182985,-459.657299
169.497478,8364.327145,7698.141797,-1149.143247
169.497799,8216.285956,7105.977043,-153.219100
169.498120,4811.338623,5625.565159,-919.314598
169.498440,4367.215058,6439.791695,-766.095498
169.498761,5107.421000,7328.038826,-306.438199
169.499082,4811.338623,6735.874072,-459.657299
169.499402,5995.668130,7698.141797,0.000000
169.499723,6291.750507,8586.388927,0.000000
169.500044,3775.050304,10584.944971,-1685.410096
169.500364,3923.091493,10881.027347,-1072.533697
169.500685,4441.235652,9770.718434,76.609550
169.501006,4737.318029,7698.141797,1225.752797
169.501326,4663.297435,6883.915261,383.047749
169.501647,4293.194464,8142.265362,-1455.581446
169.501967,2368.659014,9326.594869,-1838.629195
169.502288,3330.926739,10066.800811,612.876398
169.502609,4885.359217,8586.388927,1915.238745
169.502929,4515.256246,7031.956449,1532.190996
169.503250,5699.585753,7846.182985,459.657299
169.503571,4515.256246,9178.553681,0.000000
169.503891,2516.700203,9400.615463,-383.047749
169.504212,4737.318029,9252.574275,-1072.533697
169.504533,6883.915261,8216.285956,-1455.581446
169.504854,7031.956449,7920.203579,-536.266849
169.505175,6513.812290,9178.553681,689.485948
169.505495,3701.029710,9992.780217,-229.828649
169.505816,3034.844362,9844.739029,-2451.505594
169.506137,4663.297435,8364.327145,-1762.019645
169.506458,5625.565159,7328.038826,-306.438199
169.506779,5551.544565,7179.997637,766.095498
169.507099,3552.988522,8438.347739,-536.266849
169.507420,3108.864956,9030.512492,-1762.019645
169.507741,3256.906145,8734.430116,-995.924147
169.508062,3627.009116,7698.141797,1072.533697
169.508383,4589.276840,7179.997637,1608.800546
169.508703,5329.482782,9178.553681,766.095498
169.509024,4885.359217,10510.924376,0.000000
169.509345,3923.091493,9548.656652,-1225.752797
169.509666,4737.318029,7920.203579,-995.924147
169.509987,5773.606348,7550.100608,153.219100
169.510308,5995.668130,7254.018232,459.657299
169.510628,5477.523971,7254.018232,306.438199
169.510949,4737.318029,7328.038826,-689.485948
169.511270,4515.256246,7550.100608,-612.876398
169.511591,5847.626942,8216.285956,612.876398
169.511912,7031.956449,8068.244768,1225.752797
169.512232,6883.915261,6883.915261,1378.971896
169.512553,6587.832884,5995.668130,995.924147
169.512874,4515.256246,5625.565159,0.000000
169.513195,5107.421000,7624.121203,-612.876398
169.513516,5995.668130,8216.285956,-153.219100
169.513837,5773.606348,7402.059420,-1072.533697
169.514157,7624.121203,6809.894666,-459.657299
169.514478,7179.997637,7920.203579,0.000000
169.514799,4737.318029,8068.244768,-842.705048
169.515120,3552.988522,7402.059420,-459.657299
169.515441,4737.318029,7328.038826,229.828649
169.515761,6513.812290,7105.977043,995.924147
169.516082,5921.647536,7105.977043,0.000000
169.516403,4737.318029,7031.956449,-2221.676944
169.516724,3478.967927,7994.224174,-1225.752797
169.517045,3997.112087,9030.512492,1378.971896
169.517365,6291.750507,9474.636058,1608.800546
169.517686,6735.874072,8438.347739,1302.362347
169.518007,5255.462188,7402.059420,-459.657299
169.518328,4515.256246,8512.368333,-919.314598
169.518649,2960.823768,9030.512492,0.000000
169.518970,4071.132681,7994.224174,229.828649
169.519290,5699.585753,6809.894666,689.485948
169.519611,4959.379811,5847.626942,612.876398
169.519932,3330.926739,6957.935855,153.219100
169.520253,3330.926739,9178.553681,306.438199
169.520574,3552.988522,9992.780217,-306.438199
169.520894,4219.173869,8956.491898,-689.485948
169.521215,6883.915261,7920.203579,229.828649
169.521536,6735.874072,8808.450710,-306.438199
169.521857,4737.318029,8956.491898,-459.657299
169.522178,3849.070898,9178.553681,-1072.533697
169.522499,3923.091493,9030.512492,-2068.457845
169.522819,4441.235652,8216.285956,-689.485948
169.523140,6365.771101,8142.265362,536.266849
169.523461,7105.977043,7105.977043,306.438199
169.523782,4737.318029,7179.997637,-76.609550
169.524103,3552.988522,7179.997637,-919.314598
169.524423,4441.235652,7179.997637,-1455.581446
169.524744,6365.771101,7328.038826,-766.095498
169.525065,7402.059420,7254.018232,689.485948
169.525386,7031.956449,7920.203579,459.657299
169.525707,6439.791695,9252.574275,-689.485948
169.526027,5773.606348,10436.903782,-1378.971896
169.526348,4663.297435,8808.450710,-1532.190996
169.526669,6439.791695,7402.059420,-689.485948
169.526990,7179.997637,7105.977043,919.314598
169.527311,5033.400406,7846.182985,612.876398
169.527632,4441.235652,8068.244768,-1302.362347
169.527952,3849.070898,7994.224174,-1302.362347
169.528273,3108.864956,7846.182985,-766.095498
169.528594,6143.709319,7698.141797,1302.362347
169.528915,7031.956449,7031.956449,1302.362347
169.529236,3923.091493,6661.853478,229.828649
169.529556,3775.050304,7846.182985,306.438199
169.529877,4737.318029,9104.533087,229.828649
169.530198,5255.462188,9178.553681,-995.924147
169.530519,8068.244768,7105.977043,-689.485948
169.530840,7328.038826,6439.791695,-842.705048
169.531161,4959.379811,6439.791695,-1762.019645
169.531481,4589.276840,8216.285956,-995.924147
169.531802,5995.668130,9178.553681,229.828649
169.532123,7031.956449,8216.285956,306.438199
169.532444,7698.141797,6809.894666,689.485948
169.532765,6735.874072,6291.750507,-689.485948
169.533085,4663.297435,7031.956449,-1915.238745
169.533406,4737.318029,7846.182985,-76.609550
169.533727,5699.585753,7402.059420,612.876398
169.534048,6143.709319,6143.709319,842.705048
169.534369,6365.771101,6883.915261,229.828649
169.534689,5625.565159,9178.553681,-383.047749
169.535010,3404.947333,10140.821405,-612.876398
169.535331,3849.070898,9918.759623,383.047749
169.535652,4737.318029,8586.388927,459.657299
169.535973,5625.565159,6143.709319,-306.438199
169.536294,5699.585753,7550.100608,-153.219100
169.536614,3182.885551,7994.224174,153.219100
169.536935,1110.308913,8364.327145,-689.485948
169.537256,3404.947333,8660.409521,-689.485948
169.537577,5477.523971,7920.203579,612.876398
169.537898,6069.688724,7476.080014,1991.848295
169.538218,6069.688724,8660.409521,2374.896044
169.538539,3627.009116,9696.697840,-612.876398
169.538860,3404.947333,8956.491898,-2681.334243
169.539181,5625.565159,7476.080014,-1685.410096
169.539502,6957.935855,7772.162391,153.219100
169.539823,6143.709319,8660.409521,842.705048
169.540143,5477.523971,9696.697840,0.000000
169.540464,4811.338623,10288.862594,-1302.362347
169.540785,3330.926739,8216.285956,-766.095498
169.541106,4663.297435,5551.544565,995.924147
169.541427,6439.791695,5477.523971,842.705048
169.541747,5773.606348,8290.306550,-612.876398
169.542068,3923.091493,9400.615463,-919.314598
169.542389,5181.441594,8512.368333,-1838.629195
169.542710,4959.379811,7698.141797,-459.657299
169.543031,6439.791695,8512.368333,689.485948
169.543351,6291.750507,9178.553681,842.705048
169.543672,5181.441594,9326.594869,76.609550
169.543993,4071.132681,8512.368333,0.000000
169.544314,5329.482782,8734.430116,-229.828649
169.544635,5773.606348,7624.121203,-919.314598
169.544956,5477.523971,6735.874072,0.000000
169.545276,6143.709319,5699.585753,612.876398
169.545597,5773.606348,5551.544565,459.657299
169.545918,4663.297435,4811.338623,536.266849
169.546239,5847.626942,7254.018232,919.314598
169.546560,5995.668130,8956.491898,-153.219100
169.546880,6957.935855,9030.512492,-1302.362347
169.547201,8586.388927,7846.182985,-1532.190996
169.547522,7920.203579,7550.100608,-2221.676944
169.547843,6439.791695,6883.915261,-1225.752797
169.548164,4737.318029,7328.038826,-842.705048
169.548485,3997.112087,7476.080014,-689.485948
169.548805,6069.688724,7920.203579,-306.438199
169.549126,6587.832884,8882.471304,0.000000
169.549447,4367.215058,7846.182985,-1302.362347
169.549768,2516.700203,7624.121203,-1378.971896
169.550089,3775.050304,8734.430116,383.047749
169.550409,5033.400406,9030.512492,536.266849
169.550730,4737.318029,6661.853478,995.924147
169.551051,4515.256246,6513.812290,-229.828649
169.551372,3330.926739,8586.388927,153.219100
169.551693,2368.659014,11251.130318,1302.362347
169.552013,3108.864956,10288.862594,995.924147
169.552334,4811.338623,7698.141797,0.000000
169.552655,5255.462188,8290.306550,-229.828649
169.552976,4441.235652,10881.027347,-689.485948
169.553297,2590.720797,10066.800811,-1149.143247
169.553618,3034.844362,7772.162391,-1455.581446
169.553938,4589.276840,6365.771101,-306.438199
169.554259,5773.606348,7179.997637,1685.410096
169.554580,4959.379811,9030.512492,1608.800546
169.554901,3701.029710,10066.800811,-919.314598
169.555222,3849.070898,9918.759623,-1608.800546
169.555542,4811.338623,9548.656652,-689.485948
169.555863,5625.565159,8882.471304,383.047749
169.556184,6439.791695,8882.471304,306.438199
169.556505,4663.297435,8290.306550,-306.438199
169.556826,2960.823768,7920.203579,-536.266849
169.557147,3182.885551,8216.285956,0.000000
169.557467,3775.050304,8882.471304,306.438199
169.557788,3923.091493,8290.306550,383.047749
169.558109,4367.215058,7476.080014,689.485948
169.558430,4959.379811,7624.121203,842.705048
169.558751,4441.235652,7772.162391,536.266849
169.559071,4811.338623,7550.100608,-306.438199
169.559392,4811.338623,7105.977043,-1378.971896
169.559713,5477.523971,7846.182985,-689.485948
169.560034,5995.668130,8290.306550,842.705048
169.560355,6957.935855,8512.368333,612.876398
169.560675,6291.750507,8808.450710,-536.266849
169.560996,5477.523971,8882.471304,-1455.581446
169.561317,4663.297435,7476.080014,-612.876398
169.561638,6513.812290,7105.977043,536.266849
169.561959,7254.018232,5773.606348,842.705048
169.562280,4737.318029,4145.153275,0.000000
169.562600,4071.132681,5329.482782,-536.266849
169.562921,4959.379811,7624.121203,-153.219100
169.563242,4737.318029,8290.306550,-383.047749
169.563563,7402.059420,7698.141797,-766.095498
169.563884,7550.100608,6809.894666,-612.876398
169.564204,4367.215058,7994.224174,-995.924147
169.564525,4811.338623,9326.594869,-766.095498
169.564846,4515.256246,9178.553681,-306.438199
169.565167,4737.318029,8068.244768,-612.876398
169.565488,5477.523971,8142.265362,229.828649
169.565809,5329.482782,9252.574275,0.000000
169.566129,2738.761985,9696.697840,-1915.238745
169.566450,1776.494261,8734.430116,-1302.362347
169.566771,3775.050304,7846.182985,1455.581446
169.567092,5699.585753,8068.244768,2451.505594
169.567413,4441.235652,7105.977043,1532.190996
169.567733,4367.215058,8734.430116,-536.266849
169.568054,3330.926739,9400.615463,-1608.800546
169.568375,3034.844362,10436.903782,689.485948
169.568696,4145.153275,10140.821405,1532.190996
169.569017,5625.565159,8734.430116,153.219100
169.569337,5773.606348,9474.636058,0.000000
169.569658,4589.276840,10214.842000,-383.047749
169.569979,2812.782580,10140.821405,-1608.800546
169.570300,4071.132681,9696.697840,-1532.190996
169.570621,5551.544565,8438.347739,-612.876398
169.570942,5181.441594,6957.935855,766.095498
169.571262,4737.318029,6217.729913,1455.581446
169.571583,4663.297435,7550.100608,-229.828649
169.571904,3552.988522,8882.471304,-1915.238745
169.572225,3849.070898,9326.594869,-1378.971896
169.572546,5773.606348,8734.430116,-383.047749
169.572866,6217.729913,7994.224174,612.876398
169.573187,6957.935855,7994.224174,842.705048
169.573508,4811.338623,8216.285956,-536.266849
169.573829,2812.782580,7402.059420,-2298.286494
169.574150,3775.050304,7179.997637,-536.266849
169.574471,5847.626942,8142.265362,612.876398
169.574791,6291.750507,8142.265362,842.705048
169.575112,5403.503377,7402.059420,76.609550
169.575433,4367.215058,7550.100608,-689.485948
169.575754,3627.009116,7550.100608,-842.705048
169.576075,3997.112087,6513.812290,-383.047749
169.576395,5699.585753,5477.523971,-306.438199
169.576716,5477.523971,5773.606348,0.000000
169.577037,5033.400406,8438.347739,229.828649
169.577358,4441.235652,10658.965565,229.828649
169.577679,4367.215058,11177.109724,-1762.019645
169.577999,5255.462188,8734.430116,-383.047749
169.578320,6957.935855,6883.915261,689.485948
169.578641,6069.688724,5995.668130,76.609550
169.578962,3923.091493,5847.626942,-766.095498
169.579283,3849.070898,7698.141797,-1378.971896
169.579604,4219.173869,8216.285956,-1608.800546
169.579924,5477.523971,7624.121203,0.000000
169.580245,9178.553681,7179.997637,536.266849
169.580566,7772.162391,8068.244768,0.000000
169.580887,4811.338623,8808.450710,-766.095498
169.581208,4663.297435,8808.450710,-306.438199
169.581528,5995.668130,7402.059420,0.000000
169.581849,7105.977043,7994.224174,536.266849
169.582170,7105.977043,8438.347739,0.000000
169.582491,3997.112087,7846.182985,-2374.896044
169.582812,4515.256246,10066.800811,-1302.362347
169.583133,4737.318029,10436.903782,536.266849
169.583453,3552.988522,8438.347739,842.705048
169.583774,4885.359217,7846.182985,1302.362347
169.584095,3627.009116,8512.368333,0.000000
169.584416,1036.288319,10362.883188,-306.438199
169.584737,1702.473667,10658.965565,1455.581446
169.585057,2738.761985,8364.327145,919.314598
169.585378,2664.741391,6365.771101,689.485948
169.585699,3627.009116,8660.409521,1762.019645
169.586020,3478.967927,12435.459826,306.438199
169.586341,2146.597232,12509.480420,-1915.238745
169.586661,2590.720797,10214.842000,-1302.362347
169.586982,5329.482782,7698.141797,536.266849
169.587303,6365.771101,7254.018232,2221.676944
169.587624,4885.359217,7550.100608,2145.067394
169.587945,3034.844362,6735.874072,-1225.752797
169.588266,3330.926739,6587.832884,-3064.381992
169.588586,5033.400406,6809.894666,-1915.238745
169.588907,5995.668130,6291.750507,-383.047749
169.589228,7550.100608,7105.977043,76.609550
169.589549,7105.977043,8142.265362,-383.047749
169.589870,5773.606348,8586.388927,-842.705048
169.590190,5699.585753,7772.162391,-995.924147
169.590511,6513.812290,7031.956449,-1149.143247
169.590832,6439.791695,6365.771101,-1532.190996
169.591153,6809.894666,7105.977043,-919.314598
169.591474,5921.647536,7920.203579,-1302.362347
169.591795,5773.606348,8660.409521,-1072.533697
169.592115,4293.194464,7550.100608,-383.047749
169.592436,3182.885551,6513.812290,153.219100
169.592757,3997.112087,7254.018232,229.828649
169.593078,4219.173869,8290.306550,612.876398
169.593399,4293.194464,8290.306550,-306.438199
169.593719,4367.215058,7328.038826,-229.828649
169.594040,3849.070898,7920.203579,-766.095498
169.594361,4145.153275,8808.450710,919.314598
169.594682,6069.688724,9622.677246,1455.581446
169.595003,7031.956449,8882.471304,459.657299
169.595323,5625.565159,7624.121203,-459.657299
169.595644,5403.503377,7920.203579,-229.828649
169.595965,7031.956449,8512.368333,229.828649
169.596286,7254.018232,8142.265362,-76.609550
169.596607,7772.162391,5551.544565,-842.705048
169.596928,8216.285956,3849.070898,-1838.629195
169.597248,6957.935855,5551.544565,-1532.190996
169.597569,6291.750507,7920.203579,-612.876398
169.597890,6513.812290,8660.409521,229.828649
169.598211,7476.080014,8290.306550,-153.219100
169.598532,9622.677246,9400.615463,229.828649
169.598852,6957.935855,9844.739029,-306.438199
169.599173,4367.215058,8364.327145,-2374.896044
169.599494,3997.112087,7402.059420,-2374.896044
169.599815,4071.132681,7550.100608,-306.438199
169.600136,5181.441594,8438.347739,1072.533697
169.600457,4293.194464,8734.430116,1302.362347
169.600777,1406.391290,8586.388927,-842.705048
169.601098,1110.308913,10362.883188,689.485948
169.601419,1628.453072,10288.862594,2681.334243
169.601740,1184.329507,7254.018232,689.485948
169.602061,3627.009116,5403.503377,0.000000
169.602381,3997.112087,6809.894666,306.438199
169.602702,2294.638420,10362.883188,229.828649
169.603023,2960.823768,10658.965565,536.266849
169.603344,4145.153275,10807.006753,-995.924147
169.603665,5181.441594,9770.718434,-995.924147
169.603985,5477.523971,8290.306550,842.705048
169.604306,5847.626942,8808.450710,766.095498
169.604627,4811.338623,8438.347739,-1225.752797
169.604947,5033.400406,7550.100608,-1685.410096
169.605268,5181.441594,5551.544565,-1532.190996
169.605589,5477.523971,5329.482782,-306.438199
169.605909,6439.791695,6883.915261,1149.143247
169.606230,5847.626942,8068.244768,919.314598
169.606550,5477.523971,8660.409521,0.000000
169.606871,5699.585753,7698.141797,-229.828649
169.607192,6587.832884,6735.874072,-383.047749
169.607512,7920.203579,6661.853478,229.828649
169.607833,6587.832884,7920.203579,-306.438199
169.608154,4367.215058,7402.059420,-1378.971896
169.608474,6217.729913,7328.038826,-1072.533697
169.608795,6439.791695,7994.224174,536.266849
169.609116,5551.544565,7846.182985,306.438199
169.609436,5921.647536,6513.812290,153.219100
169.609757,5477.523971,7698.141797,995.924147
169.610078,5181.441594,7105.977043,689.485948
169.610398,5773.606348,7105.977043,612.876398
169.610719,5551.544565,6291.750507,-766.095498
169.611040,4737.318029,6513.812290,-1608.800546
169.611360,6365.771101,8586.388927,1302.362347
169.611681,5921.647536,9622.677246,1072.533697
169.612002,6439.791695,9104.533087,-153.219100
169.612322,5773.606348,8216.285956,-306.438199
169.612643,5255.462188,7920.203579,-766.095498
169.612963,5403.503377,8586.388927,919.314598
169.613284,5107.421000,7920.203579,0.000000
169.613605,4737.318029,6365.771101,-1991.848295
169.613925,4811.338623,5551.544565,-2221.676944
169.614246,4737.318029,7179.997637,-766.095498
169.614567,4737.318029,9326.594869,-229.828649
169.614887,4663.297435,9474.636058,0.000000
169.615208,5107.421000,9030.512492,-689.485948
169.615529,5329.482782,8808.450710,-766.095498
169.615849,5403.503377,9992.780217,0.000000
169.616170,5107.421000,10288.862594,-229.828649
169.616491,5033.400406,8734.430116,-1685.410096
169.616811,4737.318029,7328.038826,-1302.362347
169.617132,4441.235652,6587.832884,153.219100
169.617453,4293.194464,8216.285956,919.314598
169.617773,4145.153275,8882.471304,383.047749
169.618094,3330.926739,7920.203579,-306.438199
169.618415,6143.709319,7105.977043,-306.438199
169.618735,5773.606348,6143.709319,0.000000
169.619056,4219.173869,6883.915261,-383.047749
169.619376,4737.318029,7179.997637,-766.095498
169.619697,4885.359217,8216.285956,-612.876398
169.620018,5995.668130,9178.553681,-153.219100
169.620338,7105.977043,10807.006753,0.000000
169.620659,5625.565159,9696.697840,-2068.457845
169.620980,3849.070898,9770.718434,-2757.943793
169.621300,4515.256246,9918.759623,0.000000
169.621621,4663.297435,9548.656652,766.095498
169.621942,5551.544565,7846.182985,459.657299
169.622262,3997.112087,5255.462188,-1378.971896
169.622583,3330.926739,5699.585753,-1991.848295
169.622904,2590.720797,7328.038826,229.828649
169.623224,3182.885551,7994.224174,995.924147
169.623545,4811.338623,7328.038826,536.266849
169.623866,5625.565159,7772.162391,383.047749
169.624186,5625.565159,10066.800811,0.000000
169.624507,5329.482782,11177.109724,153.219100
169.624828,5477.523971,10881.027347,-76.609550
169.625148,5403.503377,8216.285956,-995.924147
169.625469,5477.523971,5699.585753,919.314598
169.625789,7550.100608,6217.729913,2374.896044
169.626110,6365.771101,7772.162391,1149.143247
169.626431,3775.050304,7476.080014,-1225.752797
169.626751,4441.235652,6587.832884,-3064.381992
169.627072,5625.565159,6069.688724,-995.924147
169.627393,6957.935855,6587.832884,1608.800546
169.627713,7476.080014,7105.977043,1915.238745
169.628034,4885.359217,6513.812290,-1302.362347
169.628355,3552.988522,7328.038826,-2681.334243
169.628675,4663.297435,9178.553681,-1302.362347
169.628996,5773.606348,10658.965565,153.219100
169.629317,6291.750507,10510.924376,536.266849
169.629637,6291.750507,9770.718434,0.000000
169.629958,5181.441594,8438.347739,0.000000
169.630279,4885.359217,8734.430116,612.876398
169.630599,4219.173869,7254.018232,766.095498
169.630920,3182.885551,4959.379811,-842.705048
169.631240,4219.173869,4589.276840,0.000000
169.631561,5551.544565,6291.750507,1762.019645
169.631882,4811.338623,8142.265362,1072.533697
169.632202,4145.153275,7402.059420,-229.828649
169.632523,5181.441594,8586.388927,-1455.581446
169.632844,6439.791695,9622.677246,0.000000
169.633164,7105.977043,9104.533087,1532.190996
169.633485,6883.915261,7846.182985,995.924147
169.633806,4367.215058,6439.791695,-842.705048
169.634126,4515.256246,7994.224174,-842.705048
169.634447,4515.256246,9252.574275,153.219100
169.634768,5107.421000,8290.306550,-1608.800546
169.635088,6957.935855,6291.750507,-2221.676944
169.635409,6143.709319,6957.935855,-1762.019645
169.635730,4663.297435,8068.244768,-842.705048
169.636050,4663.297435,8734.430116,383.047749
169.636371,4811.338623,7772.162391,-153.219100
169.636692,4589.276840,6439.791695,-612.876398
169.637012,5477.523971,7772.162391,842.705048
169.637333,4145.153275,9548.656652,0.000000
169.637653,3034.844362,11029.068536,-919.314598
169.637974,3182.885551,11103.089130,-766.095498
169.638295,4293.194464,9326.594869,-1149.143247
169.638615,4737.318029,7328.038826,459.657299
169.638936,5403.503377,7994.224174,1072.533697
169.639257,3256.906145,8142.265362,76.609550
169.639577,1036.288319,6957.935855,-536.266849
169.639898,3923.091493,7105.977043,76.609550
169.640219,6069.688724,7698.141797,1455.581446
169.640539,5847.626942,8734.430116,536.266849
169.640860,6809.894666,9474.636058,-842.705048
169.641181,5847.626942,10732.986159,-1838.629195
169.641501,5107.421000,10066.800811,-2221.676944
169.641822,5995.668130,8290.306550,-383.047749
169.642143,6513.812290,6365.771101,76.609550
169.642463,5403.503377,7254.018232,1072.533697
169.642784,4145.153275,9400.615463,1455.581446
169.643105,3997.112087,10288.862594,-766.095498
169.643425,4663.297435,9104.533087,-2145.067394
169.643746,4589.276840,7624.121203,-1072.533697
169.644066,4885.359217,6957.935855,383.047749
169.644387,5551.544565,7031.956449,842.705048
169.644708,4441.235652,7328.038826,689.485948
169.645028,3256.906145,6809.894666,-612.876398
169.645349,2960.823768,6291.750507,-842.705048
169.645670,5255.462188,8734.430116,995.924147
169.645990,6439.791695,11547.212695,2068.457845
169.646311,6217.729913,10658.965565,76.609550
169.646632,5847.626942,8142.265362,-1225.752797
169.646952,5773.606348,6957.935855,-306.438199
169.647273,5699.585753,6735.874072,842.705048
169.647594,5403.503377,6143.709319,1378.971896
169.647914,5329.482782,5477.523971,-842.705048
169.648235,5033.400406,6069.688724,-919.314598
169.648556,5699.585753,6883.915261,383.047749
169.648876,5625.565159,7254.018232,842.705048
169.649197,5403.503377,7772.162391,76.609550
169.649517,5477.523971,7105.977043,-766.095498
169.649838,5773.606348,7254.018232,-995.924147
169.650159,6217.729913,7105.977043,-612.876398
169.650479,4811.338623,7254.018232,0.000000
169.650800,4885.359217,8734.430116,612.876398
169.651121,3997.112087,9696.697840,229.828649
169.651441,3701.029710,9400.615463,-1225.752797
169.651762,5921.647536,8734.430116,-536.266849
169.652083,4737.318029,7476.080014,-766.095498
169.652403,2886.803174,6587.832884,766.095498
169.652724,4145.153275,6957.935855,1225.752797
169.653045,4071.132681,7624.121203,842.705048
169.653365,3849.070898,8734.430116,76.609550
169.653686,3849.070898,8290.306550,-536.266849
169.654007,3256.906145,8956.491898,-842.705048
169.654327,3552.988522,10214.842000,766.095498
169.654648,4515.256246,11325.150913,1762.019645
169.654969,5773.606348,11177.109724,153.219100
169.655289,4589.276840,9326.594869,-383.047749
169.655610,3775.050304,8438.347739,-536.266849
169.655930,3182.885551,9104.533087,-229.828649
169.656251,2960.823768,8882.471304,153.219100
169.656572,2664.741391,7105.977043,-306.438199
169.656892,4737.318029,6883.915261,76.609550
169.657213,4959.379811,8660.409521,536.266849
169.657534,3997.112087,9252.574275,919.314598
169.657854,4145.153275,9252.574275,229.828649
169.658175,4737.318029,8734.430116,-1608.800546
169.658496,5255.462188,8068.244768,-1302.362347
169.658816,7254.018232,8290.306550,-153.219100
169.659137,7179.997637,8734.430116,0.000000
169.659458,4959.379811,9400.615463,-1072.533697
169.659778,4737.318029,8660.409521,-612.876398
169.660099,5255.462188,8734.430116,-76.609550
169.660420,5625.565159,7994.224174,0.000000
169.660740,5477.523971,7031.956449,766.095498
169.661061,5699.585753,5921.647536,-306.438199
169.661382,5477.523971,6513.812290,-842.705048
169.661702,4441.235652,7920.203579,0.000000
169.662023,4441.235652,7105.977043,0.000000
169.662343,4589.276840,6735.874072,-995.924147
169.662664,4737.318029,7550.100608,306.438199
169.662985,5033.400406,9622.677246,1072.533697
169.663305,4811.338623,10214.842000,306.438199
169.663626,4293.194464,8882.471304,-1608.800546
169.663947,4737.318029,7846.182985,-1378.971896
169.664267,5181.441594,7328.038826,229.828649
169.664588,4663.297435,7846.182985,383.047749
169.664909,3849.070898,7105.977043,-1302.362347
169.665229,3849.070898,6513.812290,-1762.019645
169.665550,5847.626942,6883.915261,-536.266849
169.665871,5921.647536,7846.182985,1532.190996
169.666191,6809.894666,8512.368333,1225.752797
169.666512,7402.059420,7105.977043,459.657299
169.666833,6365.771101,6809.894666,-1072.533697
169.667153,6069.688724,6513.812290,0.000000
169.667474,7105.977043,8142.265362,919.314598
169.667794,5921.647536,7550.100608,0.000000
169.668115,6439.791695,7031.956449,-842.705048
169.668436,7550.100608,6587.832884,-536.266849
169.668756,5995.668130,7994.224174,0.000000
169.669077,4515.256246,8290.306550,0.000000
169.669398,4071.132681,8512.368333,612.876398
169.669718,4293.194464,8290.306550,306.438199
169.670039,5477.523971,8290.306550,1149.143247
169.670360,5477.523971,8068.244768,689.485948
169.670680,2368.659014,7772.162391,-2298.286494
169.671001,1184.329507,8660.409521,-2298.286494
169.671322,2960.823768,10140.821405,383.047749
169.671642,4811.338623,11695.253884,1378.971896
169.671963,4959.379811,11547.212695,1532.190996
169.672284,2738.761985,10510.924376,-766.095498
169.672604,1776.494261,9474.636058,-1455.581446
169.672925,1258.350101,9696.697840,1225.752797
169.673246,2294.638420,9104.533087,2374.896044
169.673566,3478.967927,6513.812290,1225.752797
169.673887,3478.967927,5773.606348,0.000000
169.674207,3997.112087,8290.306550,-459.657299
169.674528,3849.070898,10362.883188,1072.533697
169.674849,4959.379811,9992.780217,689.485948
169.675169,5551.544565,7254.018232,-689.485948
169.675490,6217.729913,5995.668130,0.000000
169.675811,7328.038826,7698.141797,1838.629195
169.676131,5995.668130,8956.491898,919.314598
169.676452,3923.091493,7105.977043,-2604.724693
169.676773,5477.523971,7105.977043,-3983.696590
169.677093,7698.141797,6883.915261,-1532.190996
169.677414,8734.430116,7846.182985,-536.266849
169.677735,7402.059420,7698.141797,459.657299
169.678055,5255.462188,5921.647536,-1225.752797
169.678376,4663.297435,5847.626942,-1225.752797
169.678697,5403.503377,6957.935855,383.047749
169.679017,5033.400406,7031.956449,612.876398
169.679338,7031.956449,6957.935855,-766.095498
169.679659,6365.771101,7031.956449,-1455.581446
169.679979,4515.256246,7994.224174,-612.876398
169.680300,4959.379811,9104.533087,689.485948
169.680620,5033.400406,8364.327145,1072.533697
169.680941,4663.297435,7550.100608,-306.438199
169.681262,6439.791695,8438.347739,1225.752797
169.681582,5625.565159,8956.491898,1302.362347
169.681903,5107.421000,7698.141797,229.828649
169.682224,4515.256246,6883.915261,-842.705048
169.682544,4367.215058,6513.812290,-306.438199
169.682865,5107.421000,7328.038826,1302.362347
169.683186,5329.482782,7402.059420,1762.019645
169.683506,4959.379811,7550.100608,383.047749
169.683827,4367.215058,9178.553681,0.000000
169.684148,4515.256246,9622.677246,-229.828649
169.684468,5255.462188,9326.594869,-612.876398
169.684789,5847.626942,8216.285956,-766.095498
169.685110,5995.668130,8660.409521,-842.705048
169.685430,4589.276840,8438.347739,-1838.629195
169.685751,3627.009116,8956.491898,-1149.143247
169.686071,5107.421000,10140.821405,-689.485948
169.686392,5107.421000,9104.533087,-766.095498
169.686713,5551.544565,8068.244768,-689.485948
169.687033,4663.297435,7920.203579,229.828649
169.687354,3775.050304,7254.018232,842.705048
169.687675,4441.235652,7105.977043,-229.828649
169.687995,3849.070898,5477.523971,-689.485948
169.688316,4367.215058,6957.935855,-459.657299
169.688637,7846.182985,10732.986159,1915.238745
169.688957,5329.482782,11103.089130,1302.362347
169.689278,4663.297435,8956.491898,-1378.971896
169.689599,5403.503377,6291.750507,-612.876398
169.689919,5773.606348,6957.935855,459.657299
169.690240,4811.338623,7994.224174,766.095498
169.690561,4589.276840,7920.203579,-153.219100
169.690881,5921.647536,7031.956449,-2451.505594
169.691202,6069.688724,7254.018232,-995.924147
169.691523,5033.400406,7846.182985,842.705048
169.691843,4367.215058,8142.265362,153.219100
169.692164,4219.173869,8734.430116,-612.876398
169.692484,4441.235652,8068.244768,-766.095498
169.692805,6365.771101,9178.553681,612.876398
169.693126,4885.359217,8660.409521,229.828649
169.693446,4071.132681,8734.430116,-1685.410096
169.693767,2590.720797,7846.182985,-1225.752797
169.694088,3256.906145,7254.018232,459.657299
169.694408,5255.462188,7772.162391,2451.505594
169.694729,6143.709319,7920.203579,1302.362347
169.695050,3849.070898,7772.162391,-1455.581446
169.695370,4145.153275,8068.244768,-1685.410096
169.695691,6069.688724,8290.306550,306.438199
169.696012,5921.647536,6809.894666,1532.190996
169.696332,7624.121203,5995.668130,459.657299
169.696653,6587.832884,6365.771101,-536.266849
169.696974,5181.441594,7846.182985,-919.314598
169.697294,5995.668130,8660.409521,383.047749
169.697615,7254.018232,9400.615463,153.219100
169.697936,7254.018232,8512.368333,-995.924147
169.698256,5477.523971,7328.038826,-689.485948
169.698577,5551.544565,6883.915261,-306.438199
169.698897,5181.441594,7772.162391,153.219100
169.699218,3478.967927,7105.977043,-306.438199
169.699539,3701.029710,6513.812290,-1608.800546
169.699859,4071.132681,7698.141797,-1149.143247
169.700180,3923.091493,9696.697840,919.314598
169.700501,4589.276840,9992.780217,1225.752797
169.700821,4663.297435,8512.368333,-459.657299
169.701142,4071.132681,7846.182985,-1378.971896
169.701463,3849.070898,8956.491898,-536.266849
169.701783,3997.112087,9548.656652,459.657299
169.702104,5255.462188,8660.409521,-153.219100
169.702425,4737.318029,7550.100608,689.485948
169.702745,4737.318029,8364.327145,919.314598
169.703066,4663.297435,8808.450710,766.095498
169.703387,4737.318029,7994.224174,612.876398
169.703707,4071.132681,6661.853478,-766.095498
169.704028,6587.832884,6661.853478,306.438199
169.704348,6809.894666,6809.894666,1302.362347
169.704669,4441.235652,6439.791695,-689.485948
169.704990,5107.421000,8142.265362,-1378.971896
169.705310,5403.503377,9104.533087,-995.924147
169.705631,4367.215058,8364.327145,-1149.143247
169.705952,7254.018232,8142.265362,536.266849
169.706272,7031.956449,9178.553681,-383.047749
169.706593,3330.926739,8660.409521,-2911.162892
169.706914,4367.215058,8364.327145,-1608.800546
169.707235,6661.853478,9474.636058,0.000000
169.707555,5477.523971,9178.553681,-383.047749
169.707876,4737.318029,8068.244768,-536.266849
169.708197,4293.194464,6809.894666,-1685.410096
169.708518,2738.761985,6069.688724,-766.095498
169.708838,3478.967927,6809.894666,2298.286494
169.709159,4885.359217,8142.265362,689.485948
169.709480,5255.462188,7698.141797,-1915.238745
169.709800,4515.256246,8882.471304,-2374.896044
169.710121,5921.647536,9918.759623,-383.047749
169.710442,5107.421000,10066.800811,919.314598
169.710763,4737.318029,8734.430116,1072.533697
169.711083,5181.441594,7105.977043,-76.609550
169.711404,5921.647536,7624.121203,-153.219100
169.711725,5699.585753,9104.533087,689.485948
169.712046,5033.400406,8882.471304,0.000000
169.712366,5107.421000,7179.997637,-1302.362347
169.712687,5847.626942,6365.771101,-766.095498
169.713008,6439.791695,6883.915261,766.095498
169.713329,6217.729913,6143.709319,612.876398
169.713649,5033.400406,5847.626942,-612.876398
169.713970,5107.421000,6513.812290,-1762.019645
169.714291,5921.647536,8512.368333,-1532.190996
169.714612,7105.977043,10955.047942,0.000000
169.714932,6735.874072,11029.068536,-689.485948
169.715253,6291.750507,8956.491898,-995.924147
169.715574,6143.709319,8438.347739,-229.828649
169.715894,4367.215058,8512.368333,459.657299
169.716215,3701.029710,8438.347739,-306.438199
169.716536,3256.906145,6587.832884,-766.095498
169.716857,2886.803174,5921.647536,-306.438199
169.717177,3552.988522,6661.853478,1149.143247
169.717498,4145.153275,7994.224174,2221.676944
169.717819,3923.091493,8808.450710,536.266849
169.718140,3034.844362,9252.574275,-1378.971896
169.718460,3775.050304,10066.800811,-1455.581446
169.718781,5699.585753,10140.821405,536.266849
169.719102,5477.523971,9844.739029,2374.896044
169.719423,3552.988522,9030.512492,383.047749
169.719743,3478.967927,8660.409521,-766.095498
169.720064,3775.050304,9400.615463,153.219100
169.720385,4145.153275,10140.821405,1685.410096
169.720705,4811.338623,7846.182985,842.705048
169.721026,4589.276840,4663.297435,-1149.143247
169.721347,3997.112087,5625.565159,-1225.752797
169.721668,3849.070898,8364.327145,306.438199
169.721988,3627.009116,7994.224174,153.219100
169.722309,4663.297435,5773.606348,-1608.800546
169.722630,7179.997637,6513.812290,-766.095498
169.722951,5551.544565,9548.656652,383.047749
169.723271,5033.400406,11177.109724,0.000000
169.723592,4811.338623,10732.986159,-1149.143247
169.723913,6439.791695,9696.697840,-1378.971896
169.724234,6661.853478,7772.162391,76.609550
169.724554,6217.729913,6365.771101,1149.143247
169.724875,4219.173869,5995.668130,0.000000
169.725196,2442.679609,5551.544565,-766.095498
169.725517,3404.947333,6217.729913,0.000000
169.725837,6957.935855,6513.812290,842.705048
169.726158,7179.997637,6587.832884,1532.190996
169.726479,5329.482782,7624.121203,-459.657299
169.726799,5403.503377,9474.636058,-2145.067394
169.727120,4219.173869,10140.821405,-995.924147
169.727441,4737.318029,8142.265362,536.266849
169.727762,7698.141797,7105.977043,1762.019645
169.728082,5403.503377,7920.203579,-919.314598
169.728403,4293.194464,9770.718434,-2451.505594
169.728724,4737.318029,11325.150913,-766.095498
169.729045,5551.544565,9548.656652,-306.438199
169.729365,5107.421000,6365.771101,-459.657299
169.729686,5403.503377,3997.112087,1149.143247
169.730007,5181.441594,5255.462188,1072.533697
169.730328,4367.215058,8586.388927,1225.752797
169.730648,4219.173869,8734.430116,-383.047749
169.730969,4885.359217,6809.894666,-3064.381992
169.731290,7031.956449,6957.935855,-2068.457845
169.731610,7105.977043,8660.409521,1685.410096
169.731931,6513.812290,10362.883188,1225.752797
169.732252,5107.421000,9844.739029,-1838.629195
169.732573,4293.194464,9178.553681,-2987.772442
169.732893,5107.421000,9326.594869,-1149.143247
169.733214,6439.791695,8290.306550,229.828649
169.733535,5403.503377,7624.121203,0.000000
169.733856,4737.318029,7031.956449,-1608.800546
169.734176,3997.112087,7254.018232,-536.266849
169.734497,4071.132681,8808.450710,0.000000
169.734818,3552.988522,9400.615463,919.314598
169.735139,4515.256246,10584.944971,0.000000
169.735459,3849.070898,10807.006753,153.219100
169.735780,3552.988522,9918.759623,995.924147
169.736101,3701.029710,8216.285956,995.924147
169.736422,3034.844362,8290.306550,459.657299
169.736742,2368.659014,7846.182985,-153.219100
169.737063,4071.132681,8216.285956,-459.657299
169.737384,4737.318029,9178.553681,76.609550
169.737704,4145.153275,8660.409521,0.000000
169.738025,3923.091493,8734.430116,766.095498
169.738346,4367.215058,8216.285956,842.705048
169.738667,5255.462188,7402.059420,995.924147
169.738987,6735.874072,6735.874072,766.095498
169.739308,5033.400406,5921.647536,-1685.410096
169.739629,3997.112087,5699.585753,-3524.039291
169.739950,5329.482782,7105.977043,-766.095498
169.740270,7179.997637,9770.718434,1149.143247
169.740591,8290.306550,9992.780217,995.924147
169.740912,6809.894666,9252.574275,-842.705048
169.741233,3997.112087,7846.182985,-2681.334243
169.741553,2664.741391,7031.956449,-689.485948
169.741874,4589.276840,7254.018232,2911.162892
169.742195,4885.359217,7179.997637,1225.752797
169.742516,4589.276840,5995.668130,-766.095498
169.742836,5181.441594,6735.874072,-1455.581446
169.743157,3330.926739,9844.739029,-766.095498
169.743478,1628.453072,9844.739029,1532.190996
169.743798,3182.885551,7624.121203,1838.629195
169.744119,5773.606348,6883.915261,1378.971896
169.744440,5329.482782,7328.038826,995.924147
169.744761,4367.215058,9400.615463,459.657299
169.745081,3478.967927,8956.491898,-1838.629195
169.745402,4737.318029,8734.430116,-2298.286494
169.745723,6513.812290,8512.368333,689.485948
169.746044,7179.997637,7994.224174,995.924147
169.746364,6439.791695,7105.977043,306.438199
169.746685,4811.338623,6513.812290,153.219100
169.747006,4811.338623,7031.956449,-1072.533697
169.747327,5329.482782,6883.915261,0.000000
169.747647,7031.956449,6957.935855,-612.876398
169.747968,7254.018232,6809.894666,-1378.971896
169.748289,7179.997637,7179.997637,-306.438199
169.748609,5699.585753,8512.368333,383.047749
169.748930,5255.462188,9622.677246,0.000000
169.749251,4811.338623,9030.512492,-1225.752797
169.749572,5033.400406,8660.409521,-2221.676944
169.749892,6439.791695,8586.388927,0.000000
169.750213,5033.400406,8956.491898,919.314598
169.750534,4441.235652,8808.450710,306.438199
169.750855,3849.070898,7402.059420,-1149.143247
169.751175,3404.947333,7105.977043,-1915.238745
169.751496,4515.256246,7772.162391,-153.219100
169.751817,6143.709319,8956.491898,1838.629195
169.752138,4737.318029,8734.430116,1149.143247
169.752458,3701.029710,8882.471304,0.000000
169.752779,4367.215058,8956.491898,-459.657299
169.753100,4663.297435,9104.533087,536.266849
169.753421,7031.956449,8438.347739,1072.533697
169.753741,5921.647536,7105.977043,-76.609550
169.754062,4293.194464,5551.544565,-1455.581446
169.754383,4885.359217,7994.224174,-536.266849
169.754703,5403.503377,10288.862594,842.705048
169.755024,4515.256246,8956.491898,306.438199
169.755345,6587.832884,6883.915261,-383.047749
169.755666,6513.812290,6513.812290,-612.876398
169.755986,3627.009116,7402.059420,-612.876398
169.756307,2886.803174,7105.977043,-919.314598
169.756628,4071.132681,7624.121203,-1915.238745
169.756949,5477.523971,9104.533087,-1838.629195
169.757269,5847.626942,11177.109724,459.657299
169.757590,5255.462188,10658.965565,-459.657299
169.757911,2220.617826,9622.677246,-2681.334243
169.758232,1258.350101,9104.533087,-919.314598
169.758552,3775.050304,8808.450710,1608.800546
169.758873,5329.482782,8216.285956,1991.848295
169.759194,4441.235652,6587.832884,1149.143247
169.759514,3701.029710,7105.977043,-1608.800546
169.759835,2516.700203,8068.244768,-1225.752797
169.760156,1776.494261,7254.018232,1378.971896
169.760477,5403.503377,7179.997637,2911.162892
169.760797,6661.853478,6587.832884,1532.190996
169.761118,5551.544565,8216.285956,-459.657299
169.761439,5107.421000,9400.615463,-536.266849
169.761760,4589.276840,9918.759623,-919.314598
169.762080,7254.018232,8660.409521,-383.047749
169.762401,7772.162391,6439.791695,306.438199
169.762722,7550.100608,6365.771101,-1072.533697
169.763043,6661.853478,7624.121203,-229.828649
169.763363,4441.235652,8068.244768,76.609550
169.763684,3701.029710,7476.080014,-1378.971896
169.764005,6291.750507,7402.059420,-1149.143247
169.764326,6439.791695,6735.874072,-306.438199
169.764646,6513.812290,7105.977043,383.047749
169.764967,5329.482782,6735.874072,612.876398
169.765288,4293.194464,7254.018232,0.000000
169.765608,3627.009116,8216.285956,-995.924147
169.765929,5107.421000,9252.574275,306.438199
169.766250,6069.688724,10658.965565,153.219100
169.766571,5995.668130,9844.739029,306.438199
169.766891,4959.379811,8290.306550,919.314598
169.767212,5921.647536,8882.471304,766.095498
169.767533,4885.359217,7179.997637,459.657299
169.767854,3552.988522,5847.626942,-689.485948
169.768174,5107.421000,5107.421000,-995.924147
169.768495,5773.606348,5921.647536,766.095498
169.768816,5181.441594,7476.080014,1991.848295
169.769137,5255.462188,8512.368333,1225.752797
169.769457,4737.318029,7698.141797,-919.314598
169.769778,7105.977043,8808.450710,-842.705048
169.770099,7105.977043,7994.224174,842.705048
169.770419,4885.359217,6143.709319,0.000000
169.770740,4959.379811,7254.018232,-1225.752797
169.771061,4737.318029,9104.533087,-1532.190996
169.771382,4367.215058,8660.409521,-1991.848295
169.771702,7254.018232,7698.141797,-1225.752797
169.772023,7402.059420,7994.224174,0.000000
169.772344,3849.070898,7254.018232,-1608.800546
169.772665,3182.885551,6217.729913,-1455.581446
169.772985,5329.482782,7402.059420,-612.876398
169.773306,6291.750507,8734.430116,-459.657299
169.773627,5847.626942,8364.327145,-536.266849
169.773948,5699.585753,7402.059420,-2221.676944
169.774268,4145.153275,8586.388927,-1762.019645
169.774589,3182.885551,11325.150913,1915.238745
169.774910,4219.173869,11251.130318,1225.752797
169.775231,4811.338623,8734.430116,-1532.190996
169.775551,4589.276840,7846.182985,-383.047749
169.775872,4145.153275,9030.512492,1149.143247
169.776193,2220.617826,8956.491898,1455.581446
169.776513,2442.679609,7920.203579,1302.362347
169.776834,4219.173869,7624.121203,1685.410096
169.777155,4441.235652,7772.162391,1915.238745
169.777476,4293.194464,8660.409521,842.705048
169.777796,4219.173869,9104.533087,-229.828649
169.778117,3701.029710,8586.388927,-1915.238745
169.778438,5921.647536,8290.306550,-383.047749
169.778759,6365.771101,8734.430116,919.314598
169.779079,6217.729913,9252.574275,-306.438199
169.779400,4959.379811,8882.471304,-1149.143247
169.779721,4071.132681,9104.533087,-1225.752797
169.780042,4959.379811,8660.409521,-1302.362347
169.780362,6365.771101,8216.285956,-153.219100
169.780683,6883.915261,7105.977043,-459.657299
169.781004,6735.874072,7031.956449,-612.876398
169.781324,5625.565159,6735.874072,0.000000
169.781645,5255.462188,6809.894666,536.266849
169.781966,5551.544565,7031.956449,229.828649
169.782287,5477.523971,5921.647536,-229.828649
169.782607,6513.812290,6957.935855,-459.657299
169.782928,7105.977043,8068.244768,1149.143247
169.783249,5477.523971,8364.327145,1072.533697
169.783570,4737.318029,7994.224174,-229.828649
169.783890,4589.276840,7105.977043,-1378.971896
169.784211,4885.359217,8142.265362,0.000000
169.784532,5255.462188,9178.553681,1532.190996
169.784853,4737.318029,7550.100608,1532.190996
169.785173,3775.050304,6291.750507,-766.095498
169.785494,3478.967927,6069.688724,-153.219100
169.785815,3256.906145,6513.812290,1149.143247
169.786136,4737.318029,7476.080014,1762.019645
169.786456,5847.626942,7031.956449,689.485948
169.786777,4885.359217,5329.482782,-1685.410096
169.787098,5773.606348,6439.791695,-1915.238745
169.787418,6439.791695,9918.759623,306.438199
169.787739,5699.585753,10362.883188,-306.438199
169.788060,6143.709319,7920.203579,-2451.505594
169.788381,8956.491898,6291.750507,-1991.848295
169.788701,7031.956449,7031.956449,-842.705048
169.789022,5033.400406,8142.265362,-229.828649
169.789343,5551.544565,8216.285956,-612.876398
169.789664,7254.018232,8142.265362,-1608.800546
169.789984,7772.162391,7550.100608,306.438199
169.790305,7179.997637,7772.162391,1225.752797
169.790626,4293.194464,6291.750507,-229.828649
169.790947,2516.700203,6661.853478,-612.876398
169.791267,3701.029710,8956.491898,842.705048
169.791588,5551.544565,10658.965565,1455.581446
169.791909,5107.421000,10214.842000,76.609550
169.792229,4959.379811,9474.636058,-536.266849
169.792550,2886.803174,10214.842000,-1302.362347
169.792871,74.020594,11103.089130,229.828649
169.793192,814.226536,8734.430116,1532.190996
169.793512,4737.318029,7402.059420,1838.629195
169.793833,4219.173869,7402.059420,229.828649
169.794154,2960.823768,9400.615463,-1072.533697
169.794475,3182.885551,10807.006753,-995.924147
169.794795,3775.050304,10140.821405,-2145.067394
169.795116,5033.400406,8808.450710,-229.828649
169.795437,7105.977043,7402.059420,766.095498
169.795758,7254.018232,7994.224174,153.219100
169.796078,4663.297435,9030.512492,0.000000
169.796399,3256.906145,9252.574275,-1455.581446
169.796720,5329.482782,8290.306550,-2451.505594
169.797041,7105.977043,7476.080014,-1532.190996
169.797361,7994.224174,7920.203579,842.705048
169.797682,6809.894666,7328.038826,919.314598
169.798003,4959.379811,6587.832884,-612.876398
169.798323,3775.050304,6217.729913,-612.876398
169.798644,4293.194464,5773.606348,153.219100
169.798965,6661.853478,6883.915261,229.828649
169.799286,6587.832884,7328.038826,0.000000
169.799606,5625.565159,7402.059420,-1149.143247
169.799927,6809.894666,8364.327145,-306.438199
169.800248,5477.523971,7846.182985,766.095498
169.800569,4663.297435,7179.997637,459.657299
169.800889,4885.359217,8142.265362,-612.876398
169.801210,4663.297435,8808.450710,-689.485948
169.801531,4737.318029,8734.430116,1302.362347
169.801852,5329.482782,8734.430116,1455.581446
169.802172,4071.132681,7550.100608,0.000000
169.802493,3034.844362,6069.688724,-459.657299
169.802814,5403.503377,5773.606348,689.485948
169.803135,6069.688724,5995.668130,1762.019645
169.803455,5255.462188,6809.894666,689.485948
169.803776,4663.297435,7624.121203,-536.266849
169.804097,5329.482782,9548.656652,-1455.581446
169.804417,5847.626942,9844.739029,-689.485948
169.804738,7105.977043,8216.285956,1762.019645
169.805059,7846.182985,6661.853478,-153.219100
169.805380,5255.462188,6883.915261,-2528.115143
169.805700,3034.844362,7920.203579,-1149.143247
169.806021,4885.359217,9770.718434,1225.752797
169.806341,6291.750507,9548.656652,689.485948
169.806662,5847.626942,8068.244768,459.657299
169.806983,5107.421000,7105.977043,-229.828649
169.807304,2664.741391,7402.059420,-383.047749
169.807624,1998.556043,7476.080014,919.314598
169.807945,3034.844362,6661.853478,842.705048
169.808266,5329.482782,6513.812290,-153.219100
169.808586,5403.503377,9400.615463,0.000000
169.808907,5403.503377,11547.212695,383.047749
169.809228,2886.803174,10658.965565,-1149.143247
169.809548,4071.132681,9622.677246,-1685.410096
169.809869,4145.153275,7624.121203,0.000000
169.810190,3552.988522,6661.853478,536.266849
169.810510,4663.297435,7624.121203,306.438199
169.810831,4145.153275,8882.471304,-536.266849
169.811152,3108.864956,8438.347739,-2221.676944
169.811472,6439.791695,8142.265362,-1302.362347
169.811793,6957.935855,8660.409521,0.000000
169.812114,4959.379811,8364.327145,0.000000
169.812435,4737.318029,7772.162391,0.000000
169.812755,6069.688724,8068.244768,153.219100
169.813076,5033.400406,8586.388927,0.000000
169.813397,4959.379811,9326.594869,306.438199
169.813717,5477.523971,8586.388927,-1608.800546
169.814038,5403.503377,9252.574275,-2451.505594
169.814359,5773.606348,9474.636058,1225.752797
169.814679,5329.482782,8882.471304,2068.457845
169.815000,4737.318029,6587.832884,536.266849
169.815321,3627.009116,6291.750507,-612.876398
169.815641,3627.009116,7624.121203,-229.828649
169.815962,4589.276840,7994.224174,1302.362347
169.816283,6217.729913,8068.244768,1378.971896
169.816603,5921.647536,7105.977043,-306.438199
169.816924,4959.379811,7105.977043,-2145.067394
169.817245,5847.626942,8734.430116,-1532.190996
169.817566,5551.544565,9696.697840,-229.828649
169.817886,6439.791695,9104.533087,612.876398
169.818207,6809.894666,8808.450710,-76.609550
169.818528,5551.544565,8882.471304,-612.876398
169.818848,3108.864956,8734.430116,383.047749
169.819169,4219.173869,8438.347739,1302.362347
169.819490,4959.379811,5551.544565,689.485948
169.819810,5551.544565,3552.988522,153.219100
169.820131,5773.606348,4145.153275,-153.219100
169.820452,4811.338623,6957.935855,229.828649
169.820772,4737.318029,9548.656652,689.485948
169.821093,4737.318029,9400.615463,-229.828649
169.821414,7105.977043,7328.038826,76.609550
169.821734,7550.100608,6513.812290,919.314598
169.822055,5477.523971,7031.956449,-229.828649
169.822376,3034.844362,7328.038826,-2145.067394
169.822697,4145.153275,7624.121203,-2145.067394
169.823017,6217.729913,7920.203579,0.000000
169.823338,7031.956449,8660.409521,766.095498
169.823659,5181.441594,7179.997637,0.000000
169.823979,3404.947333,7328.038826,-1608.800546
169.824300,2516.700203,8216.285956,0.000000
169.824621,3256.906145,7846.182985,2374.896044
169.824941,5181.441594,6143.709319,1685.410096
169.825262,4885.359217,5699.585753,-1072.533697
169.825583,4737.318029,9030.512492,-2834.553343
169.825903,2960.823768,11843.295072,-995.924147
169.826224,2072.576638,11843.295072,153.219100
169.826545,5477.523971,9548.656652,153.219100
169.826865,4811.338623,7772.162391,459.657299
169.827186,4293.194464,8956.491898,229.828649
169.827507,2886.803174,10584.944971,229.828649
169.827828,1184.329507,9844.739029,-612.876398
169.828148,3034.844362,7772.162391,-1608.800546
169.828469,6291.750507,7846.182985,306.438199
169.828790,5477.523971,8364.327145,689.485948
169.829110,4589.276840,9696.697840,612.876398
169.829431,3923.091493,9918.759623,689.485948
169.829752,4219.173869,9252.574275,-153.219100
169.830072,5625.565159,7550.100608,689.485948
169.830393,6069.688724,6069.688724,1072.533697
169.830714,7031.956449,7105.977043,-153.219100
169.831034,5403.503377,9474.636058,76.609550
169.831355,3997.112087,9326.594869,-919.314598
169.831676,6069.688724,8882.471304,-1915.238745
169.831996,7772.162391,7846.182985,-842.705048
169.832317,5403.503377,7772.162391,-459.657299
169.832638,4885.359217,6587.832884,-689.485948
169.832959,5921.647536,6661.853478,-153.219100
169.833279,5107.421000,7772.162391,766.095498
169.833600,4737.318029,6661.853478,-689.485948
169.833921,4737.318029,7402.059420,-2221.676944
169.834241,5181.441594,8512.368333,-1685.410096
169.834562,4885.359217,10288.862594,689.485948
169.834883,5403.503377,9844.739029,1149.143247
169.835203,4663.297435,8068.244768,-842.705048
169.835524,3108.864956,6957.935855,-1072.533697
169.835845,3478.967927,7698.141797,153.219100
169.836165,3330.926739,7994.224174,1302.362347
169.836486,4219.173869,7254.018232,919.314598
169.836807,4737.318029,6439.791695,153.219100
169.837127,4811.338623,5847.626942,76.609550
169.837448,4663.297435,7179.997637,1072.533697
169.837769,5995.668130,8216.285956,1455.581446
169.838090,5699.585753,7105.977043,0.000000
169.838410,7328.038826,6883.915261,-1072.533697
169.838731,6883.915261,7031.956449,-1072.533697
169.839052,6439.791695,7920.203579,-1225.752797
169.839372,6735.874072,7920.203579,-766.095498
169.839693,5921.647536,7624.121203,-842.705048
169.840014,8142.265362,7328.038826,0.000000
169.840334,7624.121203,6809.894666,-306.438199
169.840655,4959.379811,6365.771101,-1378.971896
169.840976,4885.359217,7698.141797,-842.705048
169.841296,5551.544565,8142.265362,0.000000
169.841617,5033.400406,7402.059420,459.657299
169.841938,7105.977043,7254.018232,-153.219100
169.842258,4959.379811,7254.018232,-766.095498
169.842579,2590.720797,8956.491898,-1685.410096
169.842900,2960.823768,9548.656652,612.876398
169.843221,4737.318029,10881.027347,1378.971896
169.843541,4589.276840,10510.924376,0.000000
169.843862,4663.297435,9844.739029,-153.219100
169.844183,2664.741391,9474.636058,-1149.143247
169.844503,1036.288319,10140.821405,-383.047749
169.844824,1776.494261,9474.636058,1915.238745
169.845145,3627.009116,8142.265362,842.705048
169.845465,3182.885551,7476.080014,-459.657299
169.845786,2516.700203,7402.059420,766.095498
169.846107,3552.988522,10436.903782,383.047749
169.846427,3404.947333,10807.006753,842.705048
169.846748,3923.091493,8734.430116,-306.438199
169.847069,6661.853478,6809.894666,-536.266849
169.847389,6587.832884,7994.224174,76.609550
169.847710,4737.318029,9622.677246,612.876398
169.848031,3552.988522,8956.491898,-1378.971896
169.848351,5921.647536,8142.265362,-3524.039291
169.848672,7624.121203,8364.327145,-2451.505594
169.848993,6587.832884,8512.368333,-76.609550
169.849314,6513.812290,7772.162391,-1149.143247
169.849634,6069.688724,7846.182985,-1149.143247
169.849955,4589.276840,7624.121203,-76.609550
169.850276,5329.482782,7105.977043,0.000000
169.850596,7105.977043,6957.935855,-459.657299
169.850917,5181.441594,6957.935855,-995.924147
169.851238,5107.421000,7920.203579,76.609550
169.851558,6143.709319,8438.347739,842.705048
169.851879,4663.297435,9252.574275,689.485948
169.852200,4367.215058,8364.327145,0.000000
169.852520,4293.194464,7402.059420,0.000000
169.852841,4145.153275,7476.080014,766.095498
169.853162,4071.132681,7328.038826,2298.286494
169.853482,4737.318029,7328.038826,1302.362347
169.853803,4737.318029,5625.565159,-995.924147
169.854124,4145.153275,5255.462188,-1455.581446
169.854445,5403.503377,6735.874072,153.219100
169.854765,5921.647536,7994.224174,995.924147
169.855086,7328.038826,7920.203579,0.000000
169.855407,7402.059420,7994.224174,-1991.848295
169.855727,7179.997637,9252.574275,-2068.457845
169.856048,7179.997637,9548.656652,-306.438199
169.856369,6735.874072,8142.265362,0.000000
169.856689,6587.832884,6143.709319,-459.657299
169.857010,7550.100608,5699.585753,-459.657299
169.857331,5995.668130,6069.688724,-689.485948
169.857651,3923.091493,6291.750507,-1225.752797
169.857972,5255.462188,7550.100608,-459.657299
169.858293,6587.832884,7994.224174,306.438199
169.858613,5255.462188,7105.977043,0.000000
169.858934,6069.688724,6217.729913,-536.266849
169.859255,5033.400406,6957.935855,-995.924147
169.859576,3330.926739,7550.100608,-919.314598
169.859896,3849.070898,8216.285956,383.047749
169.860217,5477.523971,9770.718434,766.095498
169.860538,5329.482782,11177.109724,-383.047749
169.860858,4293.194464,11917.315666,-689.485948
169.861179,1776.494261,10288.862594,-1302.362347
169.861500,1628.453072,8438.347739,-612.876398
169.861820,2442.679609,8216.285956,2068.457845
169.862141,2812.782580,8734.430116,1608.800546
169.862462,1850.514855,7846.182985,383.047749
169.862782,1776.494261,7846.182985,-383.047749
169.863103,3627.009116,10362.883188,0.000000
169.863424,1776.494261,10955.047942,153.219100
169.863744,2738.761985,9326.594869,-536.266849
169.864065,5995.668130,8290.306550,-1302.362347
169.864386,5699.585753,9474.636058,0.000000
169.864707,5329.482782,10955.047942,766.095498
169.865027,5329.482782,9918.759623,-766.095498
169.865348,5551.544565,8734.430116,-2987.772442
169.865669,5995.668130,8734.430116,-1072.533697
169.865989,6809.894666,8364.327145,1915.238745
169.866310,6735.874072,7105.977043,536.266849
169.866631,5773.606348,6587.832884,-383.047749
169.866951,4441.235652,6291.750507,-766.095498
169.867272,5329.482782,6291.750507,-459.657299
169.867593,7031.956449,6735.874072,153.219100
169.867913,6439.791695,6587.832884,-306.438199
169.868234,6513.812290,6883.915261,-306.438199
169.868555,6735.874072,7550.100608,612.876398
169.868875,5773.606348,9696.697840,153.219100
169.869196,4737.318029,9474.636058,-536.266849
169.869517,4959.379811,8364.327145,-766.095498
169.869838,5995.668130,8068.244768,-459.657299
169.870158,5625.565159,7624.121203,766.095498
169.870479,4737.318029,6883.915261,1455.581446
169.870800,3478.967927,5477.523971,-766.095498
169.871120,2886.803174,4663.297435,-1378.971896
169.871441,3849.070898,6439.791695,306.438199
169.871762,5255.462188,7476.080014,1838.629195
169.872082,5699.585753,8438.347739,229.828649
169.872403,4959.379811,8290.306550,-1149.143247
169.872724,4885.359217,7920.203579,-1149.143247
169.873044,5773.606348,7772.162391,0.000000
169.873365,6809.894666,8068.244768,1072.533697
169.873686,7254.018232,7476.080014,-153.219100
169.874006,6439.791695,6513.812290,-2451.505594
169.874327,5477.523971,7254.018232,-1991.848295
169.874648,6143.709319,8660.409521,229.828649
169.874969,6217.729913,8364.327145,1302.362347
169.875289,5995.668130,6957.935855,0.000000
169.875610,7031.956449,6143.709319,-1378.971896
169.875931,5107.421000,6735.874072,-536.266849
169.876251,3627.009116,7624.121203,0.000000
169.876572,5033.400406,7179.997637,0.000000
169.876893,4959.379811,7624.121203,-689.485948
169.877213,6439.791695,10362.883188,0.000000
169.877534,5181.441594,12361.439231,383.047749
169.877855,2220.617826,11325.150913,-1149.143247
169.878175,2220.617826,9326.594869,-1608.800546
169.878496,2812.782580,8660.409521,1302.362347
169.878817,2886.803174,9104.533087,1302.362347
169.879137,3552.988522,9474.636058,536.266849
169.879458,1998.556043,8956.491898,-995.924147
169.879779,1406.391290,8734.430116,-2451.505594
169.880100,1258.350101,8808.450710,842.705048
169.880420,2590.720797,9104.533087,2068.457845
169.880741,4663.297435,9400.615463,689.485948
169.881062,4663.297435,9992.780217,536.266849
169.881382,4441.235652,10510.924376,-1302.362347
169.881703,5033.400406,10140.821405,-383.047749
169.882024,5403.503377,9400.615463,383.047749
169.882344,5773.606348,8438.347739,0.000000
169.882665,5403.503377,8068.244768,-1072.533697
169.882986,6365.771101,7254.018232,-1225.752797
169.883306,6957.935855,7994.224174,-229.828649
169.883627,5921.647536,7624.121203,689.485948
169.883948,5847.626942,7105.977043,-919.314598
169.884268,5995.668130,7105.977043,-459.657299
169.884589,6365.771101,7550.100608,-76.609550
169.884910,7254.018232,7920.203579,612.876398
169.885231,5477.523971,6513.812290,-306.438199
169.885551,4219.173869,6143.709319,-1532.190996
169.885872,5847.626942,7772.162391,-153.219100
169.886193,5403.503377,8882.471304,689.485948
169.886513,5625.565159,8586.388927,612.876398
169.886834,5995.668130,7772.162391,153.219100
169.887155,5403.503377,6809.894666,0.000000
169.887475,3404.947333,6365.771101,995.924147
169.887796,3552.988522,5181.441594,1149.143247
169.888117,4959.379811,4737.318029,-383.047749
169.888437,5107.421000,5773.606348,0.000000
169.888758,5107.421000,8142.265362,919.314598
169.889079,5107.421000,8512.368333,0.000000
169.889399,5033.400406,8290.306550,-995.924147
169.889720,6069.688724,8290.306550,-383.047749
169.890041,6439.791695,8142.265362,153.219100
169.890362,6217.729913,7105.977043,689.485948
169.890682,6143.709319,7179.997637,536.266849
169.891003,5107.421000,7624.121203,-842.705048
169.891324,5477.523971,7772.162391,-612.876398
169.891644,7031.956449,8512.368333,536.266849
169.891965,7105.977043,8142.265362,229.828649
169.892286,6439.791695,7105.977043,229.828649
169.892606,6661.853478,7031.956449,383.047749
169.892927,5403.503377,6439.791695,229.828649
169.893248,6143.709319,6217.729913,612.876398
169.893568,8438.347739,5847.626942,383.047749
169.893889,7772.162391,5403.503377,-383.047749
169.894210,8142.265362,6291.750507,-383.047749
169.894530,9104.533087,8142.265362,766.095498
169.894851,7994.224174,8290.306550,-689.485948
169.895172,8956.491898,7550.100608,-995.924147
169.895493,9548.656652,6735.874072,-536.266849
169.895813,8586.388927,5107.421000,-612.876398
169.896134,8956.491898,5403.503377,612.876398
169.896455,8660.409521,5921.647536,383.047749
169.896775,7179.997637,6069.688724,-1685.410096
169.897096,7550.100608,5255.462188,-1302.362347
169.897417,8364.327145,5033.400406,-306.438199
169.897737,8512.368333,6513.812290,153.219100
169.898058,6957.935855,7550.100608,306.438199
169.898379,5329.482782,7031.956449,-1685.410096
169.898699,6439.791695,6661.853478,-1532.190996
169.899020,7698.141797,8512.368333,0.000000
169.899341,7105.977043,9696.697840,459.657299
169.899661,5995.668130,8586.388927,-1762.019645
169.899982,6513.812290,7105.977043,-1991.848295
169.900303,6735.874072,7550.100608,76.609550
169.900623,6809.894666,7254.018232,1532.190996
169.900944,7476.080014,6513.812290,2068.457845
169.901265,8512.368333,5329.482782,1072.533697
169.901586,7994.224174,3849.070898,919.314598
169.901906,9178.553681,2960.823768,1455.581446
169.902227,11103.089130,3404.947333,612.876398
169.902548,10807.006753,4441.235652,-76.609550
169.902868,11547.212695,3997.112087,-919.314598
169.903189,14656.077652,3775.050304,-1149.143247
169.903510,14952.160028,4441.235652,-766.095498
169.903830,13767.830521,4367.215058,-766.095498
169.904151,13767.830521,4663.297435,-1378.971896
169.904472,12731.542202,4219.173869,-2374.896044
169.904792,11991.336260,3034.844362,-1149.143247
169.905113,13249.686362,2368.659014,-459.657299
169.905434,11843.295072,3256.906145,-1915.238745
169.905754,8216.285956,4663.297435,-2068.457845
169.906075,7105.977043,5699.585753,-612.876398
169.906396,8438.347739,5773.606348,306.438199
169.906716,9326.594869,5403.503377,1455.581446
169.907037,8068.244768,7031.956449,842.705048
169.907358,5995.668130,7698.141797,-842.705048
169.907678,4589.276840,6957.935855,229.828649
169.907999,5847.626942,6365.771101,2221.676944
169.908320,7328.038826,5921.647536,2451.505594
169.908640,7772.162391,7402.059420,1225.752797
169.908961,6439.791695,9030.512492,-229.828649
169.909282,5773.606348,7624.121203,0.000000
169.909602,7402.059420,3701.029710,1838.629195
169.909923,10807.006753,1110.308913,3140.991542
169.910244,11695.253884,1480.411884,2145.067394
169.910565,9696.697840,4367.215058,0.000000
169.910885,10214.842000,5625.565159,-1225.752797
169.911206,12435.459826,4515.256246,-842.705048
169.911527,14137.933492,3182.885551,229.828649
169.911847,15100.201217,3330.926739,76.609550
169.912168,13471.748144,5625.565159,-2451.505594
169.912489,10732.986159,7698.141797,-4213.525239
169.912809,9696.697840,6735.874072,-3677.258390
169.913130,10510.924376,4441.235652,-1302.362347
169.913451,10955.047942,3256.906145,536.266849
169.913771,8216.285956,6069.688724,0.000000
169.914092,5477.523971,8660.409521,-1608.800546
169.914413,4071.132681,8882.471304,-2604.724693
169.914733,4959.379811,7328.038826,-153.219100
169.915054,5773.606348,6291.750507,2834.553343
169.915375,5551.544565,7105.977043,2911.162892
169.915695,3701.029710,8586.388927,459.657299
169.916016,3034.844362,8882.471304,-842.705048
169.916337,4589.276840,9548.656652,76.609550
169.916657,6291.750507,9474.636058,3294.210641
169.916978,5625.565159,7698.141797,3140.991542
169.917299,7550.100608,6883.915261,1991.848295
169.917619,7328.038826,6365.771101,919.314598
169.917940,7254.018232,4663.297435,76.609550
169.918261,9548.656652,2664.741391,229.828649
169.918581,11917.315666,2664.741391,153.219100
169.918902,13397.727550,4441.235652,0.000000
169.919223,14434.015869,6291.750507,-153.219100
169.919543,14063.912898,5255.462188,-1302.362347
169.919864,14063.912898,3108.864956,-2068.457845
169.920185,13619.789333,1554.432478,-1302.362347
169.920505,13545.768739,1850.514855,-2374.896044
169.920826,13915.871710,2368.659014,-3064.381992
169.921147,13323.706956,4737.318029,-2987.772442
169.921467,12731.542202,6809.894666,-3524.039291
169.921788,10807.006753,6143.709319,-2374.896044
169.922109,10214.842000,5107.421000,-459.657299
169.922429,8956.491898,4367.215058,1378.971896
169.922750,7402.059420,3256.906145,1149.143247
169.923071,6735.874072,3108.864956,0.000000
169.923391,5995.668130,3108.864956,-536.266849
169.923712,6735.874072,5477.523971,459.657299
169.924033,7476.080014,8068.244768,1532.190996
169.924353,7476.080014,8512.368333,1455.581446
169.924674,6883.915261,7179.997637,153.219100
169.924995,6809.894666,5921.647536,536.266849
169.925315,7402.059420,4293.194464,1915.238745
169.925636,7105.977043,3404.947333,1915.238745
169.925957,8364.327145,3849.070898,612.876398
169.926277,10584.944971,5329.482782,-1838.629195
169.926598,11695.253884,7105.977043,-2221.676944
169.926919,12065.356855,7402.059420,-995.924147
169.927239,12657.521608,7179.997637,-153.219100
169.927560,12213.398043,5625.565159,76.609550
169.927881,10955.047942,3923.091493,0.000000
169.928201,10955.047942,3330.926739,-919.314598
169.928522,11177.109724,3997.112087,-1685.410096
169.928843,10214.842000,5033.400406,-1608.800546
169.929163,10214.842000,5847.626942,-1915.238745
169.929484,10881.027347,6883.915261,-2145.067394
169.929805,10584.944971,8142.265362,-1685.410096
169.930125,9918.759623,7698.141797,76.609550
169.930446,8660.409521,5847.626942,1838.629195
169.930767,7550.100608,4367.215058,2221.676944
169.931087,6809.894666,4515.256246,2298.286494
169.931408,6587.832884,5847.626942,919.314598
169.931729,6661.853478,7105.977043,-383.047749
169.932049,7105.977043,7994.224174,-842.705048
169.932370,7476.080014,7105.977043,536.266849
169.932691,7550.100608,5181.441594,306.438199
169.933011,7328.038826,4219.173869,1225.752797
169.933332,7105.977043,4737.318029,1532.190996
169.933653,7846.182985,6143.709319,1378.971896
169.933973,8438.347739,6439.791695,766.095498
169.934294,9770.718434,5181.441594,229.828649
169.934615,10584.944971,4885.359217,-612.876398
169.934935,9844.739029,6143.709319,-1378.971896
169.935256,9400.615463,7031.956449,-2298.286494
169.935577,10066.800811,7105.977043,-1991.848295
169.935897,10658.965565,5551.544565,-1149.143247
169.936218,10732.986159,3775.050304,153.219100
169.936539,9844.739029,3034.844362,536.266849
169.936859,9400.615463,2812.782580,153.219100
169.937180,9918.759623,2072.576638,0.000000
169.937501,11103.089130,1850.514855,-689.485948
169.937821,11695.253884,2220.617826,-689.485948
169.938142,11843.295072,2960.823768,-1225.752797
169.938463,11547.212695,4811.338623,-1302.362347
169.938783,12065.356855,6217.729913,-1838.629195
169.939104,12065.356855,7402.059420,-2374.896044
169.939425,11843.295072,7105.977043,-1608.800546
169.939745,11399.171507,6809.894666,-229.828649
169.940066,10066.800811,6735.874072,1455.581446
169.940387,8068.244768,6661.853478,2221.676944
169.940707,7031.956449,5255.462188,1991.848295
169.941028,6587.832884,4441.235652,1915.238745
169.941349,6735.874072,3775.050304,2068.457845
169.941669,6809.894666,3627.009116,2068.457845
169.941990,6143.709319,3775.050304,1225.752797
169.942311,7328.038826,4071.132681,306.438199
169.942631,8290.306550,5329.482782,0.000000
169.942952,9474.636058,6661.853478,-306.438199
169.943273,10955.047942,7624.121203,0.000000
169.943594,11769.274478,8512.368333,-919.314598
169.943914,11843.295072,8438.347739,-1072.533697
169.944235,11399.171507,7328.038826,-1225.752797
169.944556,11325.150913,5329.482782,-612.876398
169.944876,10732.986159,4219.173869,-1302.362347
169.945197,10436.903782,3478.967927,-766.095498
169.945518,10288.862594,3034.844362,-766.095498
169.945838,10288.862594,2886.803174,-153.219100
169.946159,10140.821405,4071.132681,153.219100
169.946480,10066.800811,5699.585753,306.438199
169.946800,9770.718434,7031.956449,536.266849
169.947121,9104.533087,7772.162391,919.314598
169.947442,7476.080014,7698.141797,766.095498
169.947762,6217.729913,7624.121203,612.876398
169.948083,5477.523971,7846.182985,229.828649
169.948404,4367.215058,8216.285956,0.000000
169.948724,4219.173869,7994.224174,-612.876398
169.949045,4293.194464,8142.265362,-459.657299
169.949366,3701.029710,8068.244768,306.438199
169.949686,2960.823768,8660.409521,1532.190996
169.950007,3478.967927,9474.636058,2604.724693
169.950328,4441.235652,9770.718434,3753.867940
169.950648,5329.482782,9918.759623,4443.353888
169.950969,5477.523971,8882.471304,3983.696590
169.951290,5255.462188,7846.182985,2681.334243
169.951610,5107.421000,7254.018232,2911.162892
169.951931,5551.544565,8142.265362,3370.820191
169.952252,6661.853478,9326.594869,2987.772442
169.952572,7698.141797,10510.924376,2757.943793
169.952893,8142.265362,10214.842000,2911.162892
169.953214,7624.121203,9104.533087,3907.087040
169.953534,7328.038826,7772.162391,5362.668486
169.953855,7105.977043,6883.915261,4673.182538
169.954176,7179.997637,6439.791695,4136.915689
169.954496,7476.080014,7105.977043,4290.134789
169.954817,7254.018232,7698.141797,4673.182538
169.955138,7772.162391,8512.368333,5592.497135
169.955458,7624.121203,9474.636058,7277.907231
169.955779,6957.935855,8660.409521,7660.954980
169.956100,6513.812290,7772.162391,7814.174080
169.956420,5699.585753,6957.935855,7660.954980
169.956741,5477.523971,5921.647536,8120.612279
169.957062,5181.441594,5033.400406,7277.907231
169.957382,5107.421000,5033.400406,6971.469032
169.957703,5477.523971,6143.709319,6358.592633
169.958024,5255.462188,7698.141797,5975.544884
169.958344,4959.379811,7772.162391,6435.202183
169.958665,4737.318029,7624.121203,7431.126331
169.958986,4441.235652,6809.894666,8044.002729
169.959306,3997.112087,6365.771101,7890.783629
169.959627,4071.132681,6365.771101,7124.688131
169.959948,3552.988522,6217.729913,6971.469032
169.960268,3330.926739,6217.729913,6052.154434
169.960589,2960.823768,5773.606348,6052.154434
169.960910,3034.844362,5625.565159,5592.497135
169.961230,2960.823768,5773.606348,5592.497135
169.961551,3478.967927,6217.729913,6281.983084
169.961872,3849.070898,6957.935855,6358.592633
169.962192,3330.926739,7179.997637,6205.373534
169.962513,3923.091493,7550.100608,6205.373534
169.962834,3701.029710,7402.059420,5515.887586
169.963154,3923.091493,7105.977043,5132.839837
169.963475,3627.009116,6661.853478,4673.182538
169.963796,3330.926739,6291.750507,4213.525239
169.964116,3478.967927,5773.606348,3753.867940
169.964437,3627.009116,5847.626942,3677.258390
169.964758,2812.782580,6291.750507,2681.334243
169.965078,3775.050304,7105.977043,3294.210641
169.965399,5033.400406,8882.471304,3447.429741
169.965720,5255.462188,9918.759623,3600.648841
169.966040,5995.668130,10658.965565,3370.820191
169.966361,6661.853478,11473.192101,3600.648841
169.966682,6809.894666,10955.047942,4443.353888
169.967002,6365.771101,10584.944971,5975.544884
169.967323,5625.565159,9992.780217,6511.811733
169.967644,4885.359217,9548.656652,6205.373534
169.967964,4219.173869,8660.409521,5822.325785
169.968285,3108.864956,6439.791695,5132.839837
169.968606,3034.844362,3775.050304,3140.991542
169.968926,3997.112087,2368.659014,1455.581446
169.969247,4811.338623,3478.967927,612.876398
169.969568,5995.668130,7105.977043,-383.047749
169.969888,8290.306550,11843.295072,-1455.581446
169.970209,10214.842000,16210.510130,-2221.676944
169.970530,10807.006753,18505.148550,-1225.752797
169.970850,10881.027347,17987.004391,1608.800546
169.971171,9918.759623,15988.448347,3983.696590
169.971492,7550.100608,11621.233289,5898.935335
169.971812,5255.462188,7179.997637,7354.516781
169.972133,4737.318029,5625.565159,8120.612279
169.972454,962.267725,4885.359217,7507.735880
169.972774,0.000000,5477.523971,5209.449386
169.973095,1480.411884,5625.565159,4213.525239
169.973416,3256.906145,5551.544565,3830.477490
169.973736,3701.029710,5403.503377,4366.744339
169.974057,6069.688724,7328.038826,4366.744339
169.974378,6587.832884,11547.212695,2681.334243
169.974698,5033.400406,14730.098246,1915.238745
169.975019,6365.771101,15026.180623,1608.800546
169.975340,9770.718434,15248.242405,1762.019645
169.975660,7698.141797,13323.706956,3294.210641
169.975981,4737.318029,8364.327145,4519.963438
169.976302,4367.215058,4515.256246,5822.325785
169.976622,2590.720797,3256.906145,7814.174080
169.976943,666.185348,3552.988522,5822.325785
169.977264,2442.679609,4589.276840,3907.087040
169.977585,4737.318029,6809.894666,3677.258390
169.977905,4145.153275,7105.977043,6358.592633
169.978226,5033.400406,6365.771101,9116.536426
169.978547,7476.080014,8290.306550,9806.022374
169.978867,5255.462188,11769.274478,7967.393179
169.979188,1036.288319,11621.233289,5209.449386
169.979509,2442.679609,8734.430116,3907.087040
169.979829,5625.565159,6365.771101,3983.696590
169.980150,4663.297435,5107.421000,7814.174080
169.980471,5625.565159,7772.162391,9806.022374
169.980791,2664.741391,9770.718434,7584.345430
169.981112,962.267725,10214.842000,5745.716235
169.981433,2368.659014,7105.977043,6588.421283
169.981753,4663.297435,3552.988522,7048.078582
169.982074,3849.070898,962.267725,7354.516781
169.982395,4367.215058,2812.782580,7890.783629
169.982715,5625.565159,7994.224174,6588.421283
169.983036,5181.441594,11399.171507,4826.401637
169.983357,4367.215058,9622.677246,4519.963438
169.983677,5255.462188,7920.203579,4903.011187
169.983998,3256.906145,6957.935855,6741.640382
169.984319,1850.514855,5699.585753,8733.488677
169.984639,4737.318029,6069.688724,8963.317327
169.984960,5255.462188,8438.347739,7890.783629
169.985281,2368.659014,11843.295072,4903.011187
169.985601,2812.782580,12435.459826,2681.334243
169.985922,4959.379811,10955.047942,2221.676944
169.986243,2886.803174,6735.874072,4366.744339
169.986563,4145.153275,2590.720797,7814.174080
169.986884,7179.997637,2368.659014,8580.269578
169.987205,4737.318029,5181.441594,6435.202183
169.987525,1628.453072,7328.038826,4136.915689
169.987846,4367.215058,8734.430116,3064.381992
169.988167,7846.182985,10955.047942,4213.525239
169.988487,5699.585753,11325.150913,6894.859482
169.988808,6883.915261,10658.965565,7277.907231
169.989129,8068.244768,9622.677246,4443.353888
169.989449,5995.668130,8512.368333,1532.190996
169.989770,3108.864956,5699.585753,766.095498
169.990091,5403.503377,4737.318029,2681.334243
169.990411,7328.038826,7994.224174,5132.839837
169.990732,3478.967927,10584.944971,6435.202183
169.991053,4515.256246,9992.780217,4290.134789
169.991373,6661.853478,10436.903782,2374.896044
169.991694,6069.688724,11695.253884,3064.381992
169.992015,5329.482782,10955.047942,5056.230287
169.992335,6291.750507,9696.697840,4903.011187
169.992656,5107.421000,10362.883188,4826.401637
169.992977,3997.112087,11325.150913,6818.249932
169.993297,4589.276840,10140.821405,6894.859482
169.993618,4885.359217,9178.553681,5056.230287
169.993939,4293.194464,9030.512492,4749.792088
169.994259,3330.926739,7772.162391,5132.839837
169.994580,4737.318029,5625.565159,5898.935335
169.994901,5181.441594,4959.379811,6205.373534
169.995221,4737.318029,6809.894666,4443.353888
169.995542,5551.544565,8882.471304,2451.505594
169.995863,6217.729913,8734.430116,1225.752797
169.996183,7328.038826,8142.265362,3524.039291
169.996504,9104.533087,9030.512492,6205.373534
169.996825,7994.224174,10214.842000,5515.887586
169.997145,5181.441594,10066.800811,2068.457845
169.997466,3404.947333,8438.347739,2374.896044
169.997787,4737.318029,6735.874072,4136.915689
169.998107,5995.668130,5921.647536,5286.058936
169.998428,4441.235652,6143.709319,5209.449386
169.998749,1850.514855,7254.018232,4519.963438
169.999069,1036.288319,8660.409521,4903.011187
169.999390,1332.370696,8068.244768,6128.763984
169.999711,1480.411884,5625.565159,5515.887586
170.000031,4071.132681,6143.709319,4673.182538
170.000352,4885.359217,10732.986159,3370.820191
170.000673,2368.659014,12435.459826,3983.696590
170.000993,1702.473667,10140.821405,3370.820191
170.001314,3997.112087,7105.977043,4290.134789
170.001635,4885.359217,5625.565159,5515.887586
170.001955,3404.947333,5699.585753,5439.278036
170.002276,3701.029710,7698.141797,3064.381992
170.002597,3627.009116,7920.203579,1302.362347
170.002917,4737.318029,5255.462188,2757.943793
170.003238,7328.038826,2812.782580,5056.230287
170.003559,7920.203579,3627.009116,5056.230287
170.003879,5773.606348,6809.894666,2834.553343
170.004200,5477.523971,8882.471304,919.314598
170.004521,6661.853478,7105.977043,-536.266849
170.004841,8364.327145,5625.565159,2298.286494
170.005162,9474.636058,7105.977043,5209.449386
170.005483,7624.121203,9030.512492,3370.820191
170.005803,3256.906145,9400.615463,-919.314598
170.006124,2072.576638,7105.977043,-2834.553343
170.006445,4441.235652,5477.523971,-1225.752797
170.006765,5551.544565,6291.750507,2298.286494
170.007086,4441.235652,8660.409521,2987.772442
170.007407,2072.576638,9696.697840,153.219100
170.007727,1776.494261,9474.636058,-2145.067394
170.008048,3849.070898,9696.697840,76.609550
170.008369,5699.585753,10881.027347,3524.039291
170.008690,5255.462188,12361.439231,4366.744339
170.009010,4885.359217,12509.480420,2145.067394
170.009331,3404.947333,10807.006753,919.314598
170.009652,5329.482782,8882.471304,2528.115143
170.009972,5625.565159,8290.306550,3983.696590
170.010293,3256.906145,8290.306550,2068.457845
170.010614,2442.679609,7550.100608,229.828649
170.010935,4737.318029,7476.080014,-536.266849
170.011255,6809.894666,8290.306550,0.000000
170.011576,6661.853478,8956.491898,1762.019645
170.011897,6217.729913,9178.553681,306.438199
170.012217,6587.832884,9622.677246,-2681.334243
170.012538,6217.729913,10288.862594,-2528.115143
170.012859,8068.244768,9770.718434,-919.314598
170.013180,9844.739029,8882.471304,-306.438199
170.013500,8290.306550,7846.182985,689.485948
170.013821,5699.585753,8142.265362,-612.876398
170.014142,5699.585753,8734.430116,-2145.067394
170.014462,7105.977043,9548.656652,-995.924147
170.014783,5107.421000,7920.203579,1302.362347
170.015104,3775.050304,5551.544565,1685.410096
170.015424,4071.132681,4737.318029,229.828649
170.015745,3182.885551,5181.441594,306.438199
170.016066,2960.823768,4885.359217,383.047749
170.016387,4071.132681,5995.668130,-1838.629195
170.016707,4145.153275,7846.182985,-3140.991542
170.017028,4589.276840,10584.944971,-1762.019645
170.017349,5625.565159,11621.233289,-995.924147
170.017669,5699.585753,10584.944971,-229.828649
170.017990,5625.565159,10362.883188,919.314598
170.018311,5107.421000,9548.656652,842.705048
170.018632,3552.988522,7105.977043,766.095498
170.018952,3552.988522,5255.462188,919.314598
170.019273,4367.215058,4589.276840,383.047749
170.019594,3775.050304,3997.112087,0.000000
170.019914,4515.256246,3997.112087,-383.047749
170.020235,5847.626942,5847.626942,-689.485948
170.020556,5699.585753,5921.647536,-536.266849
170.020877,5551.544565,6143.709319,-1608.800546
170.021197,6587.832884,7624.121203,-1762.019645
170.021518,7254.018232,10066.800811,-536.266849
170.021839,8216.285956,10510.924376,-689.485948
170.022159,8438.347739,9696.697840,-2757.943793
170.022480,7254.018232,10362.883188,-2451.505594
170.022801,6365.771101,10510.924376,0.000000
170.023121,5921.647536,9326.594869,689.485948
170.023442,4145.153275,6661.853478,-689.485948
170.023763,2886.803174,4885.359217,-919.314598
170.024084,3330.926739,4811.338623,459.657299
170.024404,3923.091493,6143.709319,1149.143247
170.024725,3478.967927,7254.018232,919.314598
170.025046,3552.988522,8660.409521,-1302.362347
170.025366,4071.132681,9770.718434,-2911.162892
170.025687,5033.400406,10881.027347,306.438199
170.026008,5551.544565,11769.274478,1685.410096
170.026329,5847.626942,11251.130318,1149.143247
170.026649,4737.318029,11621.233289,-919.314598
170.026970,3034.844362,10362.883188,-1762.019645
170.027291,3849.070898,8290.306550,-229.828649
170.027611,3775.050304,5699.585753,536.266849
170.027932,3034.844362,5181.441594,-1685.410096
170.028253,3849.070898,5773.606348,-3217.601092
170.028574,4959.379811,7476.080014,-1838.629195
170.028894,6439.791695,9178.553681,459.657299
170.029215,7920.203579,8660.409521,229.828649
170.029536,7476.080014,8068.244768,-1532.190996
170.029856,6143.709319,7476.080014,-1532.190996
170.030177,6513.812290,7772.162391,-536.266849
170.030498,7105.977043,7994.224174,-919.314598
170.030818,5625.565159,7254.018232,-2757.943793
170.031139,6439.791695,8142.265362,-3064.381992
170.031460,6291.750507,9030.512492,-1378.971896
170.031781,4959.379811,8142.265362,-459.657299
170.032101,4589.276840,5699.585753,-995.924147
170.032422,5477.523971,5773.606348,-2221.676944
170.032743,4515.256246,5847.626942,-1915.238745
170.033063,4737.318029,6809.894666,153.219100
170.033384,6439.791695,8290.306550,306.438199
170.033705,7031.956449,9030.512492,-995.924147
170.034026,5625.565159,9030.512492,-995.924147
170.034346,4663.297435,8364.327145,-536.266849
170.034667,5107.421000,8216.285956,0.000000
170.034988,5773.606348,8586.388927,-229.828649
170.035308,4737.318029,7328.038826,-1608.800546
170.035629,4071.132681,7550.100608,-2451.505594
170.035950,5181.441594,8808.450710,-306.438199
170.036270,3849.070898,8142.265362,2068.457845
170.036591,4811.338623,6513.812290,612.876398
170.036912,6439.791695,7031.956449,-1915.238745
170.037233,4737.318029,8364.327145,-2528.115143
170.037553,4811.338623,6957.935855,-1991.848295
170.037874,7031.956449,6809.894666,-919.314598
170.038195,7105.977043,8216.285956,-995.924147
170.038515,6291.750507,9696.697840,-459.657299
170.038836,6143.709319,10658.965565,-689.485948
170.039157,4737.318029,10510.924376,-1302.362347
170.039478,4663.297435,9400.615463,306.438199
170.039798,5551.544565,7994.224174,306.438199
170.040119,4145.153275,5773.606348,-1762.019645
170.040440,2368.659014,5181.441594,-1915.238745
170.040760,3404.947333,6735.874072,-1608.800546
170.041081,3997.112087,7994.224174,-2451.505594
170.041402,2960.823768,7846.182985,-1685.410096
170.041723,4145.153275,8512.368333,-459.657299
170.042043,5551.544565,9178.553681,536.266849
170.042364,4293.194464,8512.368333,153.219100
170.042685,4145.153275,9030.512492,-919.314598
170.043005,5921.647536,10881.027347,-1149.143247
170.043326,6291.750507,12139.377449,0.000000
170.043647,4663.297435,9622.677246,766.095498
170.043967,4959.379811,6883.915261,0.000000
170.044288,5699.585753,6735.874072,-536.266849
170.044609,3552.988522,6143.709319,153.219100
170.044930,2368.659014,4515.256246,-689.485948
170.045250,5107.421000,4441.235652,-2068.457845
170.045571,6143.709319,6735.874072,-1225.752797
170.045892,7105.977043,9400.615463,-536.266849
170.046212,7105.977043,9992.780217,-1532.190996
170.046533,6439.791695,9918.759623,-1838.629195
170.046854,7105.977043,10362.883188,-919.314598
170.047175,7105.977043,9030.512492,-459.657299
170.047495,5921.647536,7105.977043,-306.438199
170.047816,5255.462188,6661.853478,76.609550
170.048137,5403.503377,7920.203579,-459.657299
170.048457,4737.318029,9178.553681,-995.924147
170.048778,3775.050304,8586.388927,-995.924147
170.049099,4293.194464,6439.791695,-1072.533697
170.049420,4441.235652,4811.338623,76.609550
170.049740,3182.885551,4737.318029,1302.362347
170.050061,3775.050304,6957.935855,-229.828649
170.050382,4293.194464,7920.203579,-919.314598
170.050702,5255.462188,8512.368333,-766.095498
170.051023,6513.812290,9992.780217,-842.705048
170.051344,6439.791695,11843.295072,0.000000
170.051664,5403.503377,10881.027347,1072.533697
170.051985,5921.647536,9326.594869,-229.828649
170.052306,4589.276840,7772.162391,-1762.019645
170.052627,3256.906145,7105.977043,-766.095498
170.052947,4367.215058,7476.080014,689.485948
170.053268,4441.235652,7105.977043,842.705048
170.053589,2886.803174,5477.523971,689.485948
170.053909,4885.359217,5921.647536,306.438199
170.054230,5477.523971,7179.997637,-1149.143247
170.054551,3627.009116,6661.853478,-1532.190996
170.054872,5699.585753,7179.997637,-919.314598
170.055192,7550.100608,9770.718434,-2451.505594
170.055513,6143.709319,10510.924376,-2221.676944
170.055834,6217.729913,10288.862594,153.219100
170.056154,6365.771101,10214.842000,76.609550
170.056475,5551.544565,10066.800811,383.047749
170.056796,3701.029710,9104.533087,689.485948
170.057117,4219.173869,7698.141797,-536.266849
170.057437,3849.070898,6809.894666,-536.266849
170.057758,3330.926739,5995.668130,536.266849
170.058079,3478.967927,5329.482782,306.438199
170.058399,3849.070898,6439.791695,0.000000
170.058720,4293.194464,7698.141797,766.095498
170.059041,3478.967927,7179.997637,76.609550
170.059361,4293.194464,6217.729913,-2681.334243
170.059682,5477.523971,8364.327145,-1532.190996
170.060003,6365.771101,11621.233289,842.705048
170.060324,6735.874072,12657.521608,-306.438199
170.060644,6069.688724,12213.398043,-2221.676944
170.060965,5033.400406,10362.883188,-2681.334243
170.061286,5107.421000,8142.265362,0.000000
170.061606,4737.318029,6587.832884,1991.848295
170.061927,2886.803174,4959.379811,919.314598
170.062248,3256.906145,4811.338623,-689.485948
170.062569,5403.503377,6439.791695,-1072.533697
170.062889,5107.421000,7550.100608,0.000000
170.063210,5329.482782,8586.388927,995.924147
170.063531,6809.894666,9696.697840,0.000000
170.063851,6143.709319,9992.780217,-1762.019645
170.064172,4367.215058,7550.100608,-995.924147
170.064493,5773.606348,6217.729913,0.000000
170.064814,5921.647536,7624.121203,76.609550
170.065134,4145.153275,9252.574275,-459.657299
170.065455,4737.318029,11325.150913,-1608.800546
170.065776,5699.585753,11843.295072,-1991.848295
170.066096,4515.256246,9918.759623,76.609550
170.066417,4663.297435,6439.791695,2374.896044
170.066738,5403.503377,5847.626942,2145.067394
170.067058,3330.926739,6883.915261,1378.971896
170.067379,1702.473667,6217.729913,-306.438199
170.067700,4515.256246,5773.606348,-2068.457845
170.068021,6587.832884,8512.368333,-536.266849
170.068341,6143.709319,10584.944971,2681.334243
170.068662,6069.688724,11843.295072,1838.629195
170.068983,5995.668130,11621.233289,-689.485948
170.069303,2664.741391,8364.327145,-536.266849
170.069624,3997.112087,6291.750507,1072.533697
170.069945,6809.894666,8364.327145,1838.629195
170.070266,3849.070898,9548.656652,1072.533697
170.070586,1776.494261,8438.347739,-229.828649
170.070907,4885.359217,7254.018232,-1302.362347
170.071228,5329.482782,6809.894666,1685.410096
170.071548,3404.947333,6661.853478,4596.572988
170.071869,4737.318029,6439.791695,1302.362347
170.072190,4515.256246,7328.038826,-2451.505594
170.072511,4219.173869,8956.491898,-689.485948
170.072831,7179.997637,9696.697840,2221.676944
170.073152,8660.409521,9474.636058,1991.848295
170.073473,5921.647536,9992.780217,1532.190996
170.073793,4145.153275,8956.491898,76.609550
170.074114,4145.153275,6291.750507,-1532.190996
170.074435,4293.194464,5107.421000,-76.609550
170.074755,5477.523971,5773.606348,1838.629195
170.075076,5329.482782,7105.977043,153.219100
170.075397,3701.029710,7846.182985,-1455.581446
170.075718,3034.844362,7846.182985,-842.705048
170.076038,4737.318029,7476.080014,306.438199
170.076359,4959.379811,5403.503377,1225.752797
170.076680,4737.318029,4959.379811,229.828649
170.077000,5625.565159,9178.553681,-612.876398
170.077321,4885.359217,11843.295072,-689.485948
170.077642,4885.359217,9918.759623,-153.219100
170.077963,5995.668130,7994.224174,459.657299
170.078283,5773.606348,8142.265362,1685.410096
170.078604,2590.720797,7624.121203,1072.533697
170.078925,2072.576638,6513.812290,-1455.581446
170.079245,3627.009116,5847.626942,-1149.143247
170.079566,4367.215058,6291.750507,689.485948
170.079887,4367.215058,6291.750507,1072.533697
170.080208,3997.112087,8808.450710,-995.924147
170.080528,4589.276840,11473.192101,-1838.629195
170.080849,5625.565159,11843.295072,-689.485948
170.081170,7105.977043,10955.047942,306.438199
170.081490,6957.935855,10140.821405,1072.533697
170.081811,6661.853478,9918.759623,1302.362347
170.082132,6143.709319,9696.697840,1915.238745
170.082452,4885.359217,8586.388927,1225.752797
170.082773,5255.462188,8808.450710,612.876398
170.083094,6291.750507,8290.306550,76.609550
170.083415,4071.132681,6365.771101,76.609550
170.083735,4219.173869,5625.565159,612.876398
170.084056,7476.080014,8660.409521,1838.629195
170.084377,5699.585753,10214.842000,1455.581446
170.084697,3330.926739,8512.368333,-1378.971896
170.085018,5773.606348,7698.141797,-1455.581446
170.085339,6883.915261,9548.656652,766.095498
170.085660,5033.400406,10066.800811,3140.991542
170.085980,6143.709319,9770.718434,689.485948
170.086301,5699.585753,10214.842000,-2987.772442
170.086622,3330.926739,8956.491898,-766.095498
170.086942,4663.297435,8660.409521,3140.991542
170.087263,5477.523971,8068.244768,2221.676944
170.087584,2146.597232,5847.626942,1072.533697
170.087905,2664.741391,4811.338623,306.438199
170.088225,4515.256246,5551.544565,-306.438199
170.088546,3404.947333,6217.729913,766.095498
170.088867,3775.050304,7031.956449,1532.190996
170.089187,5255.462188,6735.874072,-1149.143247
170.089508,4071.132681,8142.265362,-1915.238745
170.089829,4441.235652,9918.759623,919.314598
170.090149,5033.400406,9104.533087,1378.971896
170.090470,5477.523971,7031.956449,-229.828649
170.090791,4441.235652,6513.812290,-1225.752797
170.091112,3775.050304,7920.203579,-2068.457845
170.091432,4737.318029,8882.471304,-306.438199
170.091753,5033.400406,7624.121203,2068.457845
170.092074,4515.256246,5699.585753,536.266849
170.092394,5329.482782,5699.585753,153.219100
170.092715,3552.988522,6069.688724,459.657299
170.093036,3108.864956,5625.565159,-383.047749
170.093357,6069.688724,5847.626942,-842.705048
170.093677,6365.771101,6587.832884,-1532.190996
170.093998,5625.565159,7624.121203,-1838.629195
170.094319,6957.935855,9992.780217,0.000000
170.094639,7031.956449,11103.089130,459.657299
170.094960,5995.668130,11103.089130,-766.095498
170.095281,7846.182985,11473.192101,-1302.362347
170.095601,5847.626942,10436.903782,612.876398
170.095922,4737.318029,7624.121203,2451.505594
170.096243,4885.359217,5625.565159,1685.410096
170.096564,2812.782580,5847.626942,-1915.238745
170.096884,2516.700203,6809.894666,-2221.676944
170.097205,4959.379811,8512.368333,-153.219100
170.097526,5477.523971,9030.512492,153.219100
170.097846,5107.421000,9104.533087,-306.438199
170.098167,6439.791695,11547.212695,0.000000
170.098488,5773.606348,12065.356855,689.485948
170.098809,4145.153275,10288.862594,1991.848295
170.099129,5625.565159,8290.306550,1225.752797
170.099450,5773.606348,7328.038826,-1685.410096
170.099771,3849.070898,6883.915261,-2068.457845
170.100091,4145.153275,8216.285956,-1302.362347
170.100412,4959.379811,9770.718434,-842.705048
170.100733,5033.400406,9326.594869,-1762.019645
170.101054,6439.791695,8068.244768,-1455.581446
170.101374,5107.421000,7402.059420,76.609550
170.101695,4367.215058,7550.100608,1225.752797
170.102016,3997.112087,7402.059420,612.876398
170.102336,4959.379811,7031.956449,-2451.505594
170.102657,6587.832884,8512.368333,-2451.505594
170.102978,7920.203579,10881.027347,-766.095498
170.103298,6217.729913,10510.924376,76.609550
170.103619,4885.359217,8512.368333,842.705048
170.103940,5847.626942,8142.265362,766.095498
170.104261,4737.318029,7550.100608,1072.533697
170.104581,2960.823768,5699.585753,536.266849
170.104902,2960.823768,3182.885551,-306.438199
170.105223,4885.359217,4071.132681,-459.657299
170.105543,5033.400406,4959.379811,689.485948
170.105864,4663.297435,6735.874072,-383.047749
170.106185,4737.318029,8882.471304,-2757.943793
170.106506,5477.523971,9252.574275,-1532.190996
170.106826,5921.647536,8734.430116,0.000000
170.107147,7031.956449,7179.997637,1378.971896
170.107468,6069.688724,7254.018232,0.000000
170.107788,4515.256246,9030.512492,-1302.362347
170.108109,4219.173869,9622.677246,-1991.848295
170.108430,4219.173869,8882.471304,-1378.971896
170.108751,4885.359217,8142.265362,-306.438199
170.109071,4663.297435,6661.853478,76.609550
170.109392,3997.112087,5551.544565,-229.828649
170.109713,3627.009116,6661.853478,0.000000
170.110033,3404.947333,7550.100608,0.000000
170.110354,3997.112087,7105.977043,-995.924147
170.110675,4737.318029,6587.832884,-1149.143247
170.110996,5773.606348,7994.224174,-1225.752797
170.111316,6069.688724,11177.109724,-536.266849
170.111637,7105.977043,11991.336260,0.000000
170.111958,7254.018232,12065.356855,-459.657299
170.112279,7105.977043,11251.130318,919.314598
170.112599,5773.606348,8956.491898,2451.505594
170.112920,4293.194464,6661.853478,2068.457845
170.113241,3923.091493,5699.585753,536.266849
170.113562,2886.803174,5995.668130,-689.485948
170.113882,4589.276840,5477.523971,-383.047749
170.114203,7179.997637,6809.894666,76.609550
170.114524,6217.729913,8660.409521,0.000000
170.114845,5551.544565,8586.388927,-612.876398
170.115165,6217.729913,9992.780217,-1072.533697
170.115486,5329.482782,9844.739029,-842.705048
170.115807,5255.462188,8068.244768,612.876398
170.116128,7920.203579,8660.409521,-229.828649
170.116448,6365.771101,9474.636058,-2451.505594
170.116769,4441.235652,10658.965565,-1302.362347
170.117090,5699.585753,11399.171507,306.438199
170.117411,5773.606348,9992.780217,0.000000
170.117731,2516.700203,6365.771101,0.000000
170.118052,3775.050304,4441.235652,612.876398
170.118373,4219.173869,5181.441594,1455.581446
170.118694,2664.741391,6883.915261,2451.505594
170.119014,3256.906145,7920.203579,0.000000
170.119335,4737.318029,7624.121203,-2451.505594
170.119656,4293.194464,8290.306550,-76.609550
170.119977,5847.626942,9770.718434,2834.553343
170.120297,5699.585753,9474.636058,1532.190996
170.120618,4441.235652,8586.388927,-2451.505594
170.120939,4737.318029,7698.141797,-2068.457845
170.121260,5477.523971,7105.977043,229.828649
170.121580,5255.462188,7328.038826,1838.629195
170.121901,4737.318029,7476.080014,995.924147
170.122222,4145.153275,7550.100608,-2221.676944
170.122543,4071.132681,6365.771101,-2068.457845
170.122863,4145.153275,4737.318029,459.657299
170.123184,5921.647536,4293.194464,229.828649
170.123505,6809.894666,6143.709319,-1149.143247
170.123826,5477.523971,8586.388927,-2528.115143
170.124146,4811.338623,9918.759623,-2911.162892
170.124467,6957.935855,10881.027347,-1149.143247
170.124788,7476.080014,9918.759623,459.657299
170.125109,6143.709319,7772.162391,0.000000
170.125429,5699.585753,7328.038826,-383.047749
170.125750,3404.947333,8216.285956,-612.876398
170.126071,2516.700203,7328.038826,-1685.410096
170.126392,3775.050304,5847.626942,-1685.410096
170.126712,4219.173869,5403.503377,-1455.581446
170.127033,3552.988522,6513.812290,0.000000
170.127354,4441.235652,9400.615463,-229.828649
170.127675,4219.173869,8808.450710,-1991.848295
170.127995,4441.235652,8068.244768,-2221.676944
170.128316,5995.668130,9030.512492,-766.095498
170.128637,5255.462188,9474.636058,459.657299
170.128958,4885.359217,9918.759623,-766.095498
170.129278,6365.771101,10288.862594,-1915.238745
170.129599,5921.647536,10140.821405,-2681.334243
170.129920,5033.400406,10288.862594,-1608.800546
170.130241,4885.359217,9474.636058,-689.485948
170.130561,3923.091493,6883.915261,-1608.800546
170.130882,4737.318029,5773.606348,-612.876398
170.131203,5625.565159,6809.894666,383.047749
170.131524,5033.400406,8734.430116,-383.047749
170.131844,5551.544565,9474.636058,-1225.752797
170.132165,6365.771101,9770.718434,-1302.362347
170.132486,6143.709319,9474.636058,-2451.505594
170.132807,6439.791695,9326.594869,-1149.143247
170.133127,6809.894666,8882.471304,0.000000
170.133448,4811.338623,8068.244768,-612.876398
170.133769,6513.812290,9474.636058,-842.705048
170.134090,6291.750507,11325.150913,-306.438199
170.134410,5477.523971,11473.192101,0.000000
170.134731,5995.668130,8660.409521,1072.533697
170.135052,6365.771101,7476.080014,1608.800546
170.135373,4589.276840,5033.400406,1838.629195
170.135693,3256.906145,4367.215058,1455.581446
170.136014,4145.153275,5773.606348,536.266849
170.136335,4219.173869,7105.977043,-383.047749
170.136656,3923.091493,8068.244768,-306.438199
170.136976,6365.771101,8956.491898,-689.485948
170.137297,6069.688724,10732.986159,306.438199
170.137618,4367.215058,10584.944971,1608.800546
170.137939,4737.318029,8956.491898,919.314598
170.138259,5033.400406,7698.141797,-459.657299
170.138580,2812.782580,7550.100608,-229.828649
170.138901,3404.947333,7550.100608,766.095498
170.139222,3627.009116,5847.626942,-229.828649
170.139542,2812.782580,4885.359217,-383.047749
170.139863,3478.967927,6143.709319,536.266849
170.140184,4737.318029,7550.100608,0.000000
170.140505,4219.173869,7772.162391,0.000000
170.140825,3849.070898,7846.182985,306.438199
170.141146,6735.874072,7920.203579,919.314598
170.141467,6365.771101,8142.265362,1915.238745
170.141788,4293.194464,7031.956449,1532.190996
170.142109,4811.338623,6291.750507,0.000000
170.142429,6735.874072,7105.977043,0.000000
170.142750,5033.400406,6957.935855,1225.752797
170.143071,4737.318029,5847.626942,153.219100
170.143392,5699.585753,5329.482782,-306.438199
170.143712,4811.338623,6735.874072,0.000000
170.144033,4071.132681,7624.121203,689.485948
170.144354,4737.318029,7846.182985,153.219100
170.144675,4737.318029,6365.771101,-383.047749
170.144995,5847.626942,5995.668130,-383.047749
170.145316,5921.647536,8068.244768,-153.219100
170.145637,5329.482782,11177.109724,-76.609550
170.145958,4293.194464,11769.274478,-689.485948
170.146278,5255.462188,10436.903782,-995.924147
170.146599,5403.503377,8882.471304,229.828649
170.146920,3923.091493,7328.038826,689.485948
170.147241,3256.906145,7402.059420,-536.266849
170.147561,3182.885551,7402.059420,-1149.143247
170.147882,2812.782580,6883.915261,-2221.676944
170.148203,4663.297435,6809.894666,-2374.896044
170.148524,5995.668130,8808.450710,-459.657299
170.148844,5921.647536,9844.739029,919.314598
170.149165,6439.791695,9992.780217,-612.876398
170.149486,5625.565159,9474.636058,-2221.676944
170.149807,5477.523971,8734.430116,-2145.067394
170.150127,6957.935855,8216.285956,-766.095498
170.150448,7698.141797,8512.368333,-459.657299
170.150769,4959.379811,8586.388927,-1378.971896
170.151090,5625.565159,10436.903782,-1915.238745
170.151410,6883.915261,11251.130318,-1455.581446
170.151731,4293.194464,9178.553681,-153.219100
170.152052,4145.153275,6661.853478,766.095498
170.152373,6365.771101,7031.956449,0.000000
170.152693,4367.215058,8438.347739,-383.047749
170.153014,2812.782580,8512.368333,-766.095498
170.153335,5107.421000,8438.347739,-2145.067394
170.153656,6143.709319,9474.636058,-1302.362347
170.153976,5625.565159,10362.883188,1072.533697
170.154297,6365.771101,11029.068536,842.705048
170.154618,5995.668130,11103.089130,-1072.533697
170.154939,4145.153275,10436.903782,-229.828649
170.155259,4737.318029,9030.512492,1225.752797
170.155580,6735.874072,7994.224174,1838.629195
170.155901,5033.400406,7698.141797,2068.457845
170.156222,3404.947333,6809.894666,689.485948
170.156542,5107.421000,5921.647536,-1072.533697
170.156863,4145.153275,5551.544565,383.047749
170.157184,4441.235652,5773.606348,2681.334243
170.157505,6365.771101,6735.874072,1608.800546
170.157825,5329.482782,7772.162391,-766.095498
170.158146,4071.132681,8734.430116,0.000000
170.158467,5847.626942,9622.677246,1685.410096
170.158788,6735.874072,9474.636058,1915.238745
170.159108,4219.173869,8364.327145,306.438199
170.159429,4219.173869,7105.977043,229.828649
170.159750,4663.297435,7328.038826,689.485948
170.160071,3701.029710,7328.038826,1838.629195
170.160391,4071.132681,7179.997637,1455.581446
170.160712,3627.009116,6217.729913,689.485948
170.161033,4071.132681,5921.647536,1838.629195
170.161354,3478.967927,6661.853478,2604.724693
170.161674,3849.070898,6291.750507,1378.971896
170.161995,2960.823768,5181.441594,-995.924147
170.162316,3478.967927,5625.565159,-1225.752797
170.162637,5477.523971,7920.203579,1072.533697
170.162957,7402.059420,10881.027347,1915.238745
170.163278,7031.956449,11251.130318,-306.438199
170.163599,5329.482782,9770.718434,-1608.800546
170.163920,4737.318029,7328.038826,2145.067394
170.164240,5847.626942,6439.791695,3907.087040
170.164561,4441.235652,4885.359217,2681.334243
170.164882,2368.659014,3552.988522,-766.095498
170.165203,4145.153275,4959.379811,-1991.848295
170.165523,3997.112087,6661.853478,-536.266849
170.165844,3627.009116,6291.750507,1302.362347
170.166165,6513.812290,6883.915261,153.219100
