#time,accel_x,accel_y,accel_z
191.123191,4885.359217,8364.327145,0.000000
191.123512,4959.379811,7920.203579,-153.219100
191.123833,5033.400406,8068.244768,0.000000
191.124154,4811.338623,8068.244768,0.000000
191.124474,5107.421000,8068.244768,-229.828649
191.124795,4811.338623,8142.265362,-153.219100
191.125116,4885.359217,8068.244768,-306.438199
191.125437,5107.421000,8068.244768,-306.438199
191.125758,4811.338623,7994.224174,0.000000
191.126078,4811.338623,7846.182985,-76.609550
191.126399,4959.379811,7772.162391,0.000000
191.126720,4959.379811,7994.224174,0.000000
191.127041,4959.379811,7994.224174,0.000000
191.127362,5107.421000,8290.306550,0.000000
191.127682,4811.338623,8216.285956,76.609550
191.128003,4959.379811,7994.224174,-153.219100
191.128324,4885.359217,7920.203579,0.000000
191.128645,4959.379811,8142.265362,0.000000
191.128966,5033.400406,7994.224174,-306.438199
191.129286,4959.379811,7698.141797,-306.438199
191.129607,5033.400406,7994.224174,0.000000
191.129928,4663.297435,8290.306550,0.000000
191.130249,5033.400406,8142.265362,0.000000
191.130570,5033.400406,7920.203579,0.000000
191.130890,5033.400406,8142.265362,-76.609550
191.131211,5107.421000,7994.224174,-229.828649
191.131532,4959.379811,7920.203579,0.000000
191.131853,4811.338623,7994.224174,0.000000
191.132173,4959.379811,7920.203579,-229.828649
191.132494,5033.400406,7994.224174,153.219100
191.132815,5181.441594,7994.224174,-306.438199
191.133136,4959.379811,8142.265362,-229.828649
191.133457,5033.400406,8068.244768,0.000000
191.133777,5033.400406,8290.306550,-229.828649
191.134098,4959.379811,8068.244768,-153.219100
191.134419,4737.318029,7994.224174,0.000000
191.134740,4737.318029,7994.224174,-383.047749
191.135061,4589.276840,7624.121203,-383.047749
191.135381,3775.050304,7920.203579,0.000000
191.135702,4663.297435,9252.574275,-383.047749
191.136023,4441.235652,9770.718434,-919.314598
191.136344,4737.318029,9918.759623,-1149.143247
191.136665,4663.297435,9400.615463,-1072.533697
191.136985,4145.153275,8586.388927,-306.438199
191.137306,3330.926739,8512.368333,612.876398
191.137627,3182.885551,9400.615463,995.924147
191.137948,2664.741391,9696.697840,766.095498
191.138269,2812.782580,8882.471304,306.438199
191.138589,2812.782580,8142.265362,-383.047749
191.138910,3108.864956,8586.388927,-612.876398
191.139231,2960.823768,9400.615463,76.609550
191.139552,2812.782580,9548.656652,153.219100
191.139873,2294.638420,9104.533087,229.828649
191.140193,2516.700203,8956.491898,0.000000
191.140514,2220.617826,9992.780217,-459.657299
191.140835,1702.473667,11399.171507,-995.924147
191.141156,1406.391290,11843.295072,-1302.362347
191.141476,1184.329507,11547.212695,-1378.971896
191.141797,444.123565,11325.150913,-689.485948
191.142118,0.000000,10732.986159,-1378.971896
191.142439,-592.164754,11769.274478,-842.705048
191.142760,-1702.473667,12953.603985,306.438199
191.143080,-2220.617826,12953.603985,536.266849
191.143401,-1776.494261,12213.398043,1149.143247
191.143722,-962.267725,11769.274478,1608.800546
191.144043,-1554.432478,11843.295072,2068.457845
191.144364,-2368.659014,11843.295072,1455.581446
191.144684,-2442.679609,11029.068536,-153.219100
191.145005,-1776.494261,10214.842000,-1149.143247
191.145326,-1554.432478,9844.739029,76.609550
191.145647,-518.144159,10214.842000,995.924147
191.145968,0.000000,10584.944971,842.705048
191.146288,222.061783,11177.109724,-383.047749
191.146609,740.205942,11843.295072,-1225.752797
191.146930,1924.535449,10881.027347,-1378.971896
191.147251,2516.700203,10584.944971,0.000000
191.147572,3256.906145,10362.883188,229.828649
191.147892,2294.638420,10584.944971,-1378.971896
191.148213,1628.453072,9474.636058,-2604.724693
191.148534,1776.494261,9178.553681,-1685.410096
191.148855,2220.617826,9474.636058,-459.657299
191.149176,2072.576638,9770.718434,76.609550
191.149496,1628.453072,10066.800811,0.000000
191.149817,1332.370696,11177.109724,-689.485948
191.150138,0.000000,11547.212695,0.000000
191.150459,-296.082377,11103.089130,383.047749
191.150779,-296.082377,10288.862594,842.705048
191.151100,296.082377,10214.842000,153.219100
191.151421,0.000000,10288.862594,842.705048
191.151742,-1036.288319,10658.965565,1072.533697
191.152063,-666.185348,10881.027347,1225.752797
191.152383,370.102971,11547.212695,1455.581446
191.152704,1110.308913,11325.150913,1302.362347
191.153025,1776.494261,11177.109724,76.609550
191.153346,1924.535449,10807.006753,-689.485948
191.153667,1776.494261,10288.862594,-1149.143247
191.153987,1480.411884,9770.718434,-919.314598
191.154308,1702.473667,9104.533087,-536.266849
191.154629,2072.576638,8216.285956,153.219100
191.154950,2072.576638,9030.512492,229.828649
191.155271,2220.617826,10140.821405,0.000000
191.155591,2590.720797,11251.130318,-612.876398
191.155912,2738.761985,10807.006753,-1072.533697
191.156233,3034.844362,9622.677246,-1378.971896
191.156554,3330.926739,9400.615463,-1149.143247
191.156875,2960.823768,9622.677246,-995.924147
191.157195,2294.638420,10288.862594,-1149.143247
191.157516,2072.576638,11177.109724,-459.657299
191.157837,1776.494261,10807.006753,-76.609550
191.158158,1184.329507,10658.965565,-689.485948
191.158478,740.205942,10140.821405,-766.095498
191.158799,74.020594,10066.800811,-1608.800546
191.159120,-1480.411884,9548.656652,-1455.581446
191.159441,-1702.473667,8882.471304,-229.828649
191.159762,-888.247130,9548.656652,842.705048
191.160082,-222.061783,11251.130318,2374.896044
191.160403,0.000000,13471.748144,2451.505594
191.160724,-592.164754,14285.974681,1149.143247
191.161045,0.000000,14211.954086,0.000000
191.161366,518.144159,12509.480420,-306.438199
191.161686,1036.288319,10436.903782,0.000000
191.162007,1110.308913,9252.574275,0.000000
191.162328,-444.123565,9252.574275,-919.314598
191.162649,-1036.288319,10140.821405,-1455.581446
191.162970,-1998.556043,10140.821405,-1838.629195
191.163290,-1924.535449,10732.986159,-1302.362347
191.163611,-444.123565,11029.068536,0.000000
191.163932,1332.370696,12139.377449,689.485948
191.164253,1258.350101,13397.727550,459.657299
191.164574,518.144159,13693.809927,-459.657299
191.164894,814.226536,13175.665768,-689.485948
191.165215,1184.329507,11843.295072,-459.657299
191.165536,1258.350101,9548.656652,-306.438199
191.165857,1850.514855,7994.224174,-689.485948
191.166178,1850.514855,7624.121203,-689.485948
191.166498,1184.329507,9178.553681,383.047749
191.166819,518.144159,10510.924376,1302.362347
191.167140,74.020594,10288.862594,995.924147
191.167461,740.205942,9548.656652,995.924147
191.167781,740.205942,9252.574275,536.266849
191.168102,666.185348,10214.842000,0.000000
191.168423,592.164754,11177.109724,-995.924147
191.168744,666.185348,12287.418637,-1915.238745
191.169065,444.123565,12435.459826,-1838.629195
191.169385,444.123565,12435.459826,-1455.581446
191.169706,592.164754,12879.583391,-306.438199
191.170027,-518.144159,12953.603985,306.438199
191.170348,-370.102971,11769.274478,1149.143247
191.170669,666.185348,11029.068536,2068.457845
191.170989,-518.144159,9622.677246,2298.286494
191.171310,-1036.288319,9178.553681,1302.362347
191.171631,-1850.514855,8216.285956,459.657299
191.171952,-1332.370696,7846.182985,0.000000
191.172273,-592.164754,9030.512492,0.000000
191.172593,666.185348,11177.109724,689.485948
191.172914,2146.597232,13249.686362,76.609550
191.173235,2664.741391,13915.871710,-689.485948
191.173556,2368.659014,11843.295072,-1608.800546
191.173877,1998.556043,9104.533087,-2145.067394
191.174197,1924.535449,6143.709319,-1991.848295
191.174518,2442.679609,7105.977043,536.266849
191.174839,2812.782580,10807.006753,1991.848295
191.175160,1554.432478,13471.748144,-689.485948
191.175481,1184.329507,13767.830521,-3983.696590
191.175801,2294.638420,11473.192101,-3600.648841
191.176122,1554.432478,8660.409521,-1991.848295
191.176443,-888.247130,6217.729913,-612.876398
191.176764,-148.041188,7328.038826,-153.219100
191.177084,222.061783,12065.356855,76.609550
191.177405,-1850.514855,14878.139434,842.705048
191.177726,-1850.514855,15396.283594,0.000000
191.178047,0.000000,15026.180623,-536.266849
191.178368,-1036.288319,13693.809927,76.609550
191.178688,-1332.370696,11547.212695,1378.971896
191.179009,-962.267725,9696.697840,1991.848295
191.179330,-1184.329507,9400.615463,1225.752797
191.179651,-814.226536,10140.821405,1532.190996
191.179972,-888.247130,10584.944971,689.485948
191.180292,-518.144159,10214.842000,153.219100
191.180613,592.164754,9178.553681,919.314598
191.180934,3256.906145,9178.553681,1762.019645
191.181255,4515.256246,10436.903782,459.657299
191.181576,4441.235652,11621.233289,-1225.752797
191.181896,4145.153275,11769.274478,-3140.991542
191.182217,3775.050304,11621.233289,-3983.696590
191.182538,2368.659014,9030.512492,-2911.162892
191.182859,2590.720797,6661.853478,-1685.410096
191.183180,3627.009116,7624.121203,383.047749
191.183500,2516.700203,12509.480420,1915.238745
191.183821,518.144159,14359.995275,-306.438199
191.184142,-370.102971,12805.562797,-3447.429741
191.184463,74.020594,10732.986159,-1838.629195
191.184783,-1184.329507,9696.697840,1838.629195
191.185104,-2664.741391,9178.553681,2604.724693
191.185425,-814.226536,10066.800811,76.609550
191.185746,-1110.308913,13397.727550,-919.314598
191.186066,-3552.988522,14063.912898,-306.438199
191.186387,-3404.947333,13101.645173,536.266849
191.186708,-1702.473667,11177.109724,1762.019645
191.187029,-1036.288319,11103.089130,3064.381992
191.187349,74.020594,11843.295072,3447.429741
191.187670,-1628.453072,11103.089130,1149.143247
191.187991,-666.185348,9474.636058,-995.924147
191.188311,-296.082377,8882.471304,842.705048
191.188632,888.247130,8438.347739,1532.190996
191.188953,1332.370696,6883.915261,0.000000
191.189274,3256.906145,8068.244768,-153.219100
191.189594,4811.338623,10362.883188,-689.485948
191.189915,4145.153275,10881.027347,-1915.238745
191.190236,4959.379811,10510.924376,-2221.676944
191.190557,5773.606348,10658.965565,-2298.286494
191.190877,3923.091493,9696.697840,-2604.724693
191.191198,3256.906145,7846.182985,-2604.724693
191.191519,3627.009116,7772.162391,-1685.410096
191.191839,1110.308913,10214.842000,-995.924147
191.192160,888.247130,11991.336260,-1302.362347
191.192481,148.041188,11843.295072,-2451.505594
191.192802,-666.185348,9844.739029,-2451.505594
191.193122,148.041188,11695.253884,1378.971896
191.193443,-888.247130,12509.480420,4366.744339
191.193764,-2664.741391,12065.356855,2068.457845
191.194085,-2738.761985,11917.315666,76.609550
191.194405,-3404.947333,11917.315666,383.047749
191.194726,-3034.844362,11621.233289,1225.752797
191.195047,-1258.350101,11843.295072,2528.115143
191.195367,-2368.659014,11769.274478,1302.362347
191.195688,-1702.473667,12361.439231,1225.752797
191.196009,0.000000,13101.645173,1838.629195
191.196330,-222.061783,12657.521608,0.000000
191.196650,1554.432478,11251.130318,459.657299
191.196971,1850.514855,9844.739029,459.657299
191.197292,2516.700203,7846.182985,-383.047749
191.197613,3997.112087,6809.894666,-536.266849
191.197933,4515.256246,9474.636058,-766.095498
191.198254,3478.967927,10732.986159,-2834.553343
191.198575,3478.967927,10510.924376,-2757.943793
191.198895,5699.585753,9992.780217,-2221.676944
191.199216,5551.544565,9844.739029,0.000000
191.199537,4367.215058,10140.821405,-1149.143247
191.199858,2738.761985,11251.130318,-2757.943793
191.200178,-1184.329507,11399.171507,-3294.210641
191.200499,-296.082377,11177.109724,-766.095498
191.200820,1258.350101,9918.759623,153.219100
191.201141,-888.247130,9474.636058,229.828649
191.201461,-370.102971,10881.027347,1302.362347
191.201782,-2812.782580,12583.501014,1685.410096
191.202103,-5329.482782,12287.418637,1072.533697
191.202423,-3330.926739,13249.686362,2221.676944
191.202744,-2220.617826,12213.398043,2068.457845
191.203065,-1628.453072,12435.459826,1532.190996
191.203386,-666.185348,12065.356855,1685.410096
191.203706,-5181.441594,9992.780217,-306.438199
191.204027,-1702.473667,10881.027347,-612.876398
191.204348,518.144159,12065.356855,3753.867940
191.204669,-1258.350101,11621.233289,3064.381992
191.204989,1850.514855,9992.780217,2068.457845
191.205310,4145.153275,9548.656652,842.705048
191.205631,2294.638420,9104.533087,-536.266849
191.205951,3849.070898,8364.327145,-229.828649
191.206272,5329.482782,6217.729913,-842.705048
191.206593,6217.729913,4515.256246,-3294.210641
191.206914,8364.327145,4737.318029,-2451.505594
191.207234,8882.471304,6735.874072,-2145.067394
191.207555,6957.935855,8068.244768,-2374.896044
191.207876,6883.915261,8882.471304,-1608.800546
191.208197,8216.285956,8882.471304,-1762.019645
191.208517,6809.894666,6735.874072,-3064.381992
191.208838,7328.038826,6069.688724,-1762.019645
191.209159,5033.400406,8068.244768,-1072.533697
191.209479,3108.864956,10214.842000,-1378.971896
191.209800,3552.988522,10881.027347,229.828649
191.210121,1850.514855,8882.471304,383.047749
191.210442,2146.597232,7402.059420,1378.971896
191.210762,2368.659014,8438.347739,3370.820191
191.211083,-814.226536,9548.656652,2298.286494
191.211404,-1332.370696,8364.327145,1302.362347
191.211725,1406.391290,8586.388927,2145.067394
191.212045,1036.288319,7624.121203,2221.676944
191.212366,1554.432478,7920.203579,1838.629195
191.212687,3404.947333,9918.759623,536.266849
191.213008,2368.659014,10214.842000,-2068.457845
191.213328,4367.215058,8882.471304,-1915.238745
191.213649,8142.265362,8142.265362,-459.657299
191.213970,8142.265362,7846.182985,383.047749
191.214290,7254.018232,7550.100608,229.828649
191.214611,8586.388927,8956.491898,-1685.410096
191.214932,7105.977043,7994.224174,-3447.429741
191.215253,9622.677246,5033.400406,-3370.820191
191.215573,11547.212695,4515.256246,-1838.629195
191.215894,9770.718434,4737.318029,-2911.162892
191.216215,7994.224174,6291.750507,-3064.381992
191.216536,5995.668130,7402.059420,-2528.115143
191.216856,5403.503377,6735.874072,-3600.648841
191.217177,6365.771101,7476.080014,-1915.238745
191.217498,5921.647536,10658.965565,-459.657299
191.217818,4589.276840,14137.933492,-306.438199
191.218139,1998.556043,14063.912898,-919.314598
191.218460,740.205942,11029.068536,-919.314598
191.218781,1924.535449,8956.491898,1378.971896
191.219101,0.000000,8512.368333,2987.772442
191.219422,-592.164754,8142.265362,2451.505594
191.219743,148.041188,10214.842000,306.438199
191.220064,-370.102971,9252.574275,459.657299
191.220384,1776.494261,10732.986159,1762.019645
191.220705,3330.926739,8808.450710,3370.820191
191.221026,2368.659014,6883.915261,3294.210641
191.221346,5477.523971,7254.018232,2911.162892
191.221667,4367.215058,5847.626942,459.657299
191.221988,4515.256246,5255.462188,-2911.162892
191.222309,7994.224174,6513.812290,-2221.676944
191.222629,10510.924376,9400.615463,76.609550
191.222950,10584.944971,9400.615463,-536.266849
191.223271,12435.459826,8808.450710,-2757.943793
191.223592,9918.759623,6957.935855,-5209.449386
191.223912,7105.977043,6143.709319,-3370.820191
191.224233,7105.977043,6143.709319,0.000000
191.224554,9696.697840,5773.606348,-383.047749
191.224874,8290.306550,3701.029710,-1838.629195
191.225195,5625.565159,3701.029710,-2145.067394
191.225516,4737.318029,7179.997637,-995.924147
191.225837,2590.720797,9030.512492,1072.533697
191.226157,2812.782580,8734.430116,1455.581446
191.226478,4293.194464,7105.977043,1532.190996
191.226799,5847.626942,6439.791695,2374.896044
191.227120,4219.173869,8290.306550,1915.238745
191.227440,740.205942,8142.265362,842.705048
191.227761,1110.308913,9696.697840,536.266849
191.228082,3849.070898,9548.656652,2374.896044
191.228402,3478.967927,7550.100608,2221.676944
191.228723,5255.462188,7105.977043,0.000000
191.229044,5329.482782,8882.471304,76.609550
191.229365,2220.617826,9770.718434,-612.876398
191.229685,2146.597232,6735.874072,-76.609550
191.230006,4515.256246,4663.297435,306.438199
191.230327,5995.668130,5255.462188,842.705048
191.230648,7105.977043,9252.574275,2451.505594
191.230968,5699.585753,11325.150913,153.219100
191.231289,6217.729913,11251.130318,-3600.648841
191.231610,5921.647536,7698.141797,-3217.601092
191.231930,8808.450710,6365.771101,-306.438199
191.232251,9400.615463,7105.977043,1455.581446
191.232572,4959.379811,5921.647536,-536.266849
191.232893,4441.235652,6217.729913,-3830.477490
191.233213,4959.379811,6291.750507,-2834.553343
191.233534,5625.565159,7179.997637,-995.924147
191.233855,5551.544565,9178.553681,1915.238745
191.234176,4589.276840,8586.388927,229.828649
191.234496,3108.864956,8882.471304,-1991.848295
191.234817,4515.256246,10214.842000,-689.485948
191.235138,3478.967927,8290.306550,0.000000
191.235458,3849.070898,8068.244768,-383.047749
191.235779,5033.400406,10288.862594,1455.581446
191.236100,3478.967927,9918.759623,1378.971896
191.236421,4145.153275,9400.615463,536.266849
191.236741,4885.359217,9030.512492,459.657299
191.237062,2960.823768,8808.450710,-1149.143247
191.237383,2368.659014,8068.244768,-995.924147
191.237704,4219.173869,6735.874072,153.219100
191.238024,6587.832884,7179.997637,842.705048
191.238345,6735.874072,7254.018232,919.314598
191.238666,5255.462188,7402.059420,-459.657299
191.238986,3034.844362,7179.997637,-3447.429741
191.239307,5477.523971,7698.141797,-1762.019645
191.239628,7920.203579,9178.553681,612.876398
191.239949,9104.533087,7698.141797,383.047749
191.240269,8808.450710,8660.409521,-459.657299
191.240590,7179.997637,10658.965565,-2145.067394
191.240911,6735.874072,10436.903782,-2757.943793
191.241232,6809.894666,8142.265362,-1455.581446
191.241552,7254.018232,5403.503377,-612.876398
191.241873,5921.647536,6069.688724,536.266849
191.242194,4071.132681,7402.059420,842.705048
191.242514,1924.535449,9770.718434,-1378.971896
191.242835,3330.926739,9400.615463,-383.047749
191.243156,1924.535449,7328.038826,612.876398
191.243477,1924.535449,6143.709319,689.485948
191.243797,3404.947333,7254.018232,1685.410096
191.244118,2590.720797,9474.636058,2221.676944
191.244439,2146.597232,9178.553681,536.266849
191.244760,4515.256246,8734.430116,536.266849
191.245080,5551.544565,9252.574275,306.438199
191.245401,5255.462188,10214.842000,0.000000
191.245722,7105.977043,10140.821405,766.095498
191.246042,5921.647536,9104.533087,-459.657299
191.246363,3552.988522,5403.503377,-689.485948
191.246684,5699.585753,3923.091493,-689.485948
191.247005,6217.729913,4219.173869,-229.828649
191.247325,4885.359217,6365.771101,229.828649
191.247646,7920.203579,8808.450710,536.266849
191.247967,6217.729913,6513.812290,-536.266849
191.248288,5255.462188,4219.173869,-1915.238745
191.248608,8882.471304,4737.318029,1608.800546
191.248929,9178.553681,6957.935855,1915.238745
191.249250,6217.729913,6365.771101,-689.485948
191.249571,8882.471304,6365.771101,-1532.190996
191.249891,8956.491898,5255.462188,-2221.676944
191.250212,7328.038826,6809.894666,-459.657299
191.250533,7846.182985,9252.574275,842.705048
191.250853,6439.791695,7920.203579,-1378.971896
191.251174,5107.421000,6365.771101,-2757.943793
191.251495,6217.729913,5625.565159,-995.924147
191.251816,5181.441594,7846.182985,0.000000
191.252136,1702.473667,8290.306550,689.485948
191.252457,2146.597232,9844.739029,536.266849
191.252778,2146.597232,9400.615463,-459.657299
191.253099,2664.741391,7994.224174,-229.828649
191.253419,5107.421000,9992.780217,2221.676944
191.253740,2812.782580,10066.800811,1455.581446
191.254061,1702.473667,11251.130318,689.485948
191.254381,3478.967927,10140.821405,2298.286494
191.254702,3404.947333,9178.553681,306.438199
191.255023,4737.318029,9104.533087,459.657299
191.255344,5329.482782,10140.821405,153.219100
191.255664,4071.132681,8882.471304,-1915.238745
191.255985,3627.009116,6809.894666,-1302.362347
191.256306,5403.503377,7328.038826,306.438199
191.256627,6069.688724,8438.347739,153.219100
191.256947,4293.194464,9770.718434,76.609550
191.257268,3923.091493,9178.553681,-1302.362347
191.257589,5551.544565,8512.368333,-2451.505594
191.257909,5033.400406,8660.409521,-1225.752797
191.258230,5329.482782,9030.512492,-536.266849
191.258551,5847.626942,9622.677246,-919.314598
191.258872,4737.318029,9252.574275,-842.705048
191.259192,5773.606348,9178.553681,536.266849
191.259513,4293.194464,8512.368333,0.000000
191.259834,3034.844362,8512.368333,-2298.286494
191.260155,3256.906145,7624.121203,-2145.067394
191.260475,4441.235652,6957.935855,-306.438199
191.260796,6365.771101,8882.471304,1149.143247
191.261117,4959.379811,8734.430116,2451.505594
191.261437,1480.411884,7031.956449,-383.047749
191.261758,2368.659014,6587.832884,-1378.971896
191.262079,4293.194464,8734.430116,1455.581446
191.262400,5477.523971,9474.636058,1302.362347
191.262720,6365.771101,8290.306550,-153.219100
191.263041,6587.832884,7624.121203,-612.876398
191.263362,6809.894666,8364.327145,842.705048
191.263683,5181.441594,7920.203579,2298.286494
191.264003,5181.441594,6587.832884,76.609550
191.264324,7179.997637,6735.874072,-2451.505594
191.264645,5995.668130,6291.750507,-2451.505594
191.264965,5699.585753,6217.729913,-919.314598
191.265286,7328.038826,6587.832884,-153.219100
191.265607,7698.141797,7031.956449,612.876398
191.265928,5625.565159,7698.141797,536.266849
191.266248,3701.029710,5551.544565,-1149.143247
191.266569,5181.441594,6069.688724,-1378.971896
191.266890,6439.791695,7772.162391,0.000000
191.267211,6883.915261,8512.368333,0.000000
191.267531,7402.059420,8364.327145,-919.314598
191.267852,7328.038826,8364.327145,0.000000
191.268173,5551.544565,8142.265362,612.876398
191.268493,6143.709319,8290.306550,1072.533697
191.268814,6809.894666,8142.265362,76.609550
191.269135,4959.379811,8068.244768,-1532.190996
191.269456,4219.173869,6957.935855,-766.095498
191.269776,6735.874072,8290.306550,0.000000
191.270097,6809.894666,8956.491898,1072.533697
191.270418,2960.823768,8882.471304,1072.533697
191.270739,3034.844362,7105.977043,459.657299
191.271059,1332.370696,6513.812290,-1072.533697
191.271380,2664.741391,8142.265362,-229.828649
191.271701,6587.832884,11029.068536,2068.457845
191.272021,5921.647536,10436.903782,1455.581446
191.272342,5477.523971,10214.842000,0.000000
191.272663,4515.256246,9770.718434,-153.219100
191.272984,2738.761985,8290.306550,-995.924147
191.273304,2442.679609,8142.265362,-766.095498
191.273625,4219.173869,8808.450710,0.000000
191.273946,4737.318029,9030.512492,-1302.362347
191.274267,4367.215058,7772.162391,-306.438199
191.274587,4737.318029,9474.636058,-919.314598
191.274908,2664.741391,9844.739029,0.000000
191.275229,1110.308913,9104.533087,153.219100
191.275549,2072.576638,7476.080014,383.047749
191.275870,3923.091493,7772.162391,-995.924147
191.276191,4145.153275,7179.997637,-76.609550
191.276512,5255.462188,9622.677246,459.657299
191.276832,4663.297435,10510.924376,689.485948
191.277153,4071.132681,10140.821405,-1072.533697
191.277474,4885.359217,7994.224174,-689.485948
191.277795,5847.626942,7179.997637,-1532.190996
191.278115,5995.668130,9474.636058,76.609550
191.278436,2960.823768,7994.224174,306.438199
191.278757,4367.215058,5995.668130,-2221.676944
191.279077,7105.977043,7328.038826,-766.095498
191.279398,5033.400406,8586.388927,919.314598
191.279719,3034.844362,9622.677246,306.438199
191.280040,3627.009116,7994.224174,-612.876398
191.280360,4589.276840,8438.347739,-612.876398
191.280681,5403.503377,7698.141797,1685.410096
191.281002,5995.668130,7402.059420,1838.629195
191.281323,5699.585753,8068.244768,229.828649
191.281643,4071.132681,8956.491898,-153.219100
191.281964,5551.544565,8808.450710,536.266849
191.282285,7105.977043,6809.894666,229.828649
191.282606,6143.709319,6809.894666,0.000000
191.282926,5699.585753,7698.141797,-229.828649
191.283247,5551.544565,7846.182985,-1225.752797
191.283568,5847.626942,6883.915261,-1149.143247
191.283888,7846.182985,6365.771101,459.657299
191.284209,6217.729913,5773.606348,612.876398
191.284530,4071.132681,5551.544565,-1608.800546
191.284850,5181.441594,7772.162391,-995.924147
191.285171,6365.771101,7920.203579,459.657299
191.285492,7254.018232,7920.203579,1225.752797
191.285812,8068.244768,8512.368333,153.219100
191.286133,5847.626942,8956.491898,-2528.115143
191.286453,3330.926739,8882.471304,-2145.067394
191.286774,6217.729913,9178.553681,1225.752797
191.287095,5033.400406,8438.347739,995.924147
191.287415,3997.112087,6513.812290,0.000000
191.287736,3108.864956,5033.400406,-1302.362347
191.288057,2442.679609,7698.141797,-612.876398
191.288377,2812.782580,10436.903782,1225.752797
191.288698,3330.926739,10066.800811,919.314598
191.289019,2516.700203,7920.203579,-1762.019645
191.289339,3849.070898,6809.894666,-1991.848295
191.289660,4515.256246,8808.450710,1608.800546
191.289980,4663.297435,9992.780217,2681.334243
191.290301,4367.215058,9400.615463,229.828649
191.290622,5329.482782,9104.533087,-1072.533697
191.290942,5107.421000,8290.306550,-1302.362347
191.291263,5847.626942,9696.697840,0.000000
191.291584,5551.544565,10214.842000,1302.362347
191.291904,5551.544565,8882.471304,-919.314598
191.292225,4737.318029,7105.977043,-2068.457845
191.292545,4219.173869,5921.647536,-1302.362347
191.292866,4145.153275,7624.121203,76.609550
191.293187,3701.029710,8512.368333,1225.752797
191.293507,3997.112087,8808.450710,-536.266849
191.293828,3627.009116,7920.203579,-842.705048
191.294149,4441.235652,8364.327145,-1072.533697
191.294469,5625.565159,9474.636058,383.047749
191.294790,4663.297435,10362.883188,689.485948
191.295111,5847.626942,10362.883188,383.047749
191.295431,5551.544565,7846.182985,-153.219100
191.295752,5033.400406,6365.771101,0.000000
191.296072,5551.544565,8216.285956,766.095498
191.296393,4737.318029,10066.800811,0.000000
191.296714,2738.761985,8882.471304,-1685.410096
191.297034,5625.565159,6439.791695,-1608.800546
191.297355,6587.832884,6809.894666,842.705048
191.297676,4959.379811,7920.203579,1302.362347
191.297996,3552.988522,8364.327145,459.657299
191.298317,2590.720797,6735.874072,-689.485948
191.298638,4219.173869,6735.874072,766.095498
191.298958,5477.523971,6217.729913,1685.410096
191.299279,7402.059420,8882.471304,0.000000
191.299599,5847.626942,9696.697840,-1991.848295
191.299920,5699.585753,8734.430116,-1225.752797
191.300241,7994.224174,8216.285956,383.047749
191.300561,7698.141797,6069.688724,1378.971896
191.300882,6069.688724,5847.626942,459.657299
191.301203,5921.647536,5329.482782,-1608.800546
191.301523,4811.338623,6365.771101,-2221.676944
191.301844,7179.997637,7624.121203,-612.876398
191.302164,7698.141797,7402.059420,-229.828649
191.302485,5625.565159,6661.853478,-1991.848295
191.302806,4663.297435,7476.080014,-612.876398
191.303126,4589.276840,8512.368333,1378.971896
191.303447,4589.276840,6809.894666,1149.143247
191.303768,6143.709319,7624.121203,-766.095498
191.304088,5255.462188,8512.368333,-1838.629195
191.304409,4737.318029,10807.006753,-1378.971896
191.304730,4737.318029,11029.068536,1072.533697
191.305050,4367.215058,8512.368333,1225.752797
191.305371,5329.482782,8216.285956,842.705048
191.305691,3108.864956,7179.997637,536.266849
191.306012,518.144159,7105.977043,-1685.410096
191.306333,2590.720797,8216.285956,-1225.752797
191.306653,5403.503377,9622.677246,536.266849
191.306974,3997.112087,8660.409521,1225.752797
191.307295,3478.967927,7328.038826,153.219100
191.307615,2664.741391,8734.430116,-766.095498
191.307936,3330.926739,9918.759623,-689.485948
191.308256,4663.297435,10881.027347,0.000000
191.308577,6735.874072,10140.821405,-536.266849
191.308898,6587.832884,9030.512492,-383.047749
191.309218,5107.421000,7920.203579,995.924147
191.309539,6143.709319,11251.130318,306.438199
191.309860,4663.297435,10584.944971,-995.924147
191.310180,3256.906145,8068.244768,-2145.067394
191.310501,6365.771101,5773.606348,-1225.752797
191.310822,6069.688724,4663.297435,-536.266849
191.311142,5995.668130,7402.059420,229.828649
191.311463,5921.647536,8882.471304,919.314598
191.311783,3849.070898,8142.265362,-766.095498
191.312104,4071.132681,6809.894666,-1149.143247
191.312425,6365.771101,6143.709319,383.047749
191.312745,5551.544565,6513.812290,-229.828649
191.313066,5551.544565,8660.409521,76.609550
191.313387,5995.668130,10288.862594,0.000000
191.313707,5773.606348,9474.636058,-919.314598
191.314028,5625.565159,7624.121203,-689.485948
191.314349,5551.544565,6291.750507,153.219100
191.314669,3923.091493,8216.285956,689.485948
191.314990,3330.926739,8660.409521,536.266849
191.315310,3404.947333,7031.956449,-1378.971896
191.315631,5033.400406,6069.688724,-2757.943793
191.315952,6143.709319,6587.832884,459.657299
191.316272,4959.379811,8808.450710,2451.505594
191.316593,1480.411884,7105.977043,-766.095498
191.316914,3627.009116,7402.059420,-1991.848295
191.317234,6365.771101,7402.059420,-689.485948
191.317555,6735.874072,7920.203579,229.828649
191.317875,7105.977043,9770.718434,1225.752797
191.318196,6365.771101,9918.759623,383.047749
191.318517,4737.318029,9252.574275,0.000000
191.318837,6439.791695,8512.368333,1455.581446
191.319158,5699.585753,7031.956449,459.657299
191.319479,4145.153275,5847.626942,-919.314598
191.319799,6069.688724,6661.853478,-153.219100
191.320120,6661.853478,6291.750507,-229.828649
191.320441,6809.894666,7105.977043,919.314598
191.320761,5847.626942,7328.038826,612.876398
191.321082,2442.679609,6217.729913,-689.485948
191.321402,2368.659014,6883.915261,-689.485948
191.321723,6365.771101,7328.038826,0.000000
191.322044,6809.894666,7772.162391,-1225.752797
191.322364,5403.503377,7624.121203,-1608.800546
191.322685,5033.400406,10881.027347,-1762.019645
191.323006,3849.070898,11547.212695,-536.266849
191.323326,3997.112087,10732.986159,689.485948
191.323647,5403.503377,8290.306550,1225.752797
191.323967,4441.235652,7105.977043,-459.657299
191.324288,3775.050304,8364.327145,-1685.410096
191.324609,3404.947333,8364.327145,-612.876398
191.324929,4959.379811,8142.265362,612.876398
191.325250,5255.462188,6365.771101,995.924147
191.325571,4737.318029,7105.977043,536.266849
191.325891,2146.597232,6365.771101,-1762.019645
191.326212,2072.576638,7179.997637,-2145.067394
191.326533,5255.462188,10140.821405,229.828649
191.326853,6217.729913,10362.883188,842.705048
191.327174,5033.400406,8290.306550,0.000000
191.327494,5181.441594,7772.162391,-995.924147
191.327815,4959.379811,9548.656652,-1378.971896
191.328136,2590.720797,10584.944971,306.438199
191.328456,4589.276840,9400.615463,-1225.752797
191.328777,5625.565159,7254.018232,-3064.381992
191.329098,7031.956449,6439.791695,-1838.629195
191.329418,6513.812290,8142.265362,383.047749
191.329739,4737.318029,8216.285956,229.828649
191.330060,3775.050304,7994.224174,-919.314598
191.330380,3108.864956,6439.791695,-1072.533697
191.330701,5477.523971,6217.729913,-1302.362347
191.331021,7994.224174,8512.368333,689.485948
191.331342,7031.956449,11103.089130,919.314598
191.331663,5107.421000,11769.274478,-1149.143247
191.331983,5255.462188,10214.842000,-1225.752797
191.332304,5403.503377,8142.265362,-536.266849
191.332625,6143.709319,7254.018232,1838.629195
191.332945,4219.173869,8142.265362,1455.581446
191.333266,2812.782580,8512.368333,-1378.971896
191.333586,4885.359217,9030.512492,-1762.019645
191.333907,5033.400406,8216.285956,229.828649
191.334228,5181.441594,8068.244768,919.314598
191.334548,3256.906145,6439.791695,1838.629195
191.334869,3256.906145,5847.626942,0.000000
191.335190,3182.885551,5847.626942,-995.924147
191.335510,4737.318029,6661.853478,459.657299
191.335831,7254.018232,8290.306550,0.000000
191.336152,6883.915261,9252.574275,0.000000
191.336472,6661.853478,9548.656652,229.828649
191.336793,8512.368333,8216.285956,459.657299
191.337113,6069.688724,6143.709319,-766.095498
191.337434,6735.874072,6883.915261,-2221.676944
191.337755,5847.626942,6661.853478,-2911.162892
191.338075,5329.482782,6661.853478,-2068.457845
191.338396,7105.977043,6809.894666,-306.438199
191.338717,7994.224174,8808.450710,0.000000
191.339037,3923.091493,8216.285956,-1685.410096
191.339358,518.144159,6661.853478,-2068.457845
191.339678,2590.720797,6735.874072,306.438199
191.339999,6439.791695,6883.915261,2681.334243
191.340320,5403.503377,7105.977043,2528.115143
191.340640,3997.112087,6735.874072,-1149.143247
191.340961,4071.132681,9178.553681,-2528.115143
191.341282,3701.029710,11325.150913,459.657299
191.341602,5921.647536,10658.965565,2451.505594
191.341923,7105.977043,9252.574275,76.609550
191.342244,6661.853478,6883.915261,-2068.457845
191.342564,3849.070898,7105.977043,-1532.190996
191.342885,3849.070898,7994.224174,919.314598
191.343205,5847.626942,9474.636058,842.705048
191.343526,5181.441594,8586.388927,689.485948
191.343847,3775.050304,7254.018232,-1302.362347
191.344167,4071.132681,8364.327145,-1225.752797
191.344488,3330.926739,8882.471304,1149.143247
191.344809,3182.885551,9178.553681,842.705048
191.345129,5403.503377,8882.471304,842.705048
191.345450,5329.482782,8660.409521,0.000000
191.345771,5107.421000,8512.368333,-842.705048
191.346091,5699.585753,8586.388927,536.266849
191.346412,6365.771101,9252.574275,383.047749
191.346732,6809.894666,10436.903782,-306.438199
191.347053,4959.379811,8142.265362,-1532.190996
191.347374,5329.482782,6735.874072,-3064.381992
191.347694,6809.894666,7772.162391,-1225.752797
191.348015,4811.338623,8438.347739,229.828649
191.348336,3330.926739,7624.121203,-1685.410096
191.348656,2442.679609,6439.791695,-1762.019645
191.348977,3552.988522,8882.471304,229.828649
191.349297,5255.462188,10584.944971,3294.210641
191.349618,3923.091493,9918.759623,3064.381992
191.349939,3330.926739,9918.759623,0.000000
191.350259,3552.988522,7846.182985,-153.219100
191.350580,3256.906145,6661.853478,-842.705048
191.350901,5773.606348,7031.956449,76.609550
191.351221,5403.503377,7920.203579,229.828649
191.351542,4589.276840,7105.977043,0.000000
191.351863,5255.462188,6069.688724,-536.266849
191.352183,6069.688724,8068.244768,-612.876398
191.352504,5181.441594,8438.347739,-612.876398
191.352824,4293.194464,6883.915261,-919.314598
191.353145,5329.482782,6217.729913,-1072.533697
191.353466,6143.709319,7550.100608,-306.438199
191.353786,5107.421000,5995.668130,-612.876398
191.354107,6513.812290,7624.121203,-2834.553343
191.354428,6513.812290,11621.233289,-1685.410096
191.354748,4737.318029,12361.439231,306.438199
191.355069,5107.421000,8956.491898,995.924147
191.355389,5477.523971,6587.832884,229.828649
191.355710,4959.379811,8586.388927,919.314598
191.356031,1332.370696,8808.450710,2068.457845
191.356351,222.061783,6143.709319,-1149.143247
191.356672,5181.441594,5921.647536,-1378.971896
191.356993,5329.482782,6957.935855,1072.533697
191.357313,3849.070898,7105.977043,995.924147
191.357634,4959.379811,7698.141797,0.000000
191.357955,3404.947333,8364.327145,-1149.143247
191.358275,5477.523971,8808.450710,-995.924147
191.358596,8660.409521,8142.265362,-153.219100
191.358916,7105.977043,7550.100608,-1302.362347
191.359237,7254.018232,9918.759623,-306.438199
191.359558,8734.430116,9992.780217,536.266849
191.359878,8512.368333,9918.759623,-536.266849
191.360199,7179.997637,8660.409521,-995.924147
191.360520,5033.400406,7698.141797,-1532.190996
191.360840,4959.379811,7105.977043,-1378.971896
191.361161,4811.338623,5921.647536,306.438199
191.361482,4589.276840,7254.018232,612.876398
191.361802,3849.070898,7179.997637,0.000000
191.362123,1184.329507,7624.121203,-1455.581446
191.362443,2368.659014,8660.409521,0.000000
191.362764,2146.597232,7846.182985,153.219100
191.363085,3404.947333,6513.812290,76.609550
191.363405,4885.359217,9474.636058,-536.266849
191.363726,4071.132681,12583.501014,-1225.752797
191.364047,3256.906145,12805.562797,-229.828649
191.364367,7402.059420,10362.883188,1302.362347
191.364688,6735.874072,8956.491898,1608.800546
191.365008,4885.359217,9622.677246,153.219100
191.365329,3552.988522,8956.491898,-1149.143247
191.365650,3849.070898,7105.977043,-1149.143247
191.365970,5625.565159,5699.585753,689.485948
191.366291,7031.956449,5181.441594,2451.505594
191.366612,5181.441594,4589.276840,536.266849
191.366932,1110.308913,4959.379811,-2528.115143
191.367253,2516.700203,7698.141797,-1378.971896
191.367574,5847.626942,9770.718434,383.047749
191.367894,6217.729913,9326.594869,1072.533697
191.368215,5107.421000,7994.224174,612.876398
191.368535,6439.791695,9844.739029,0.000000
191.368856,5033.400406,11473.192101,229.828649
191.369177,3775.050304,10362.883188,0.000000
191.369497,5033.400406,8660.409521,-1608.800546
191.369818,5921.647536,6217.729913,-2068.457845
191.370139,5773.606348,6513.812290,229.828649
191.370459,5551.544565,6883.915261,1072.533697
191.370780,5181.441594,7328.038826,459.657299
191.371100,4515.256246,7254.018232,-229.828649
191.371421,2368.659014,5477.523971,-153.219100
191.371742,4441.235652,6217.729913,383.047749
191.372062,5625.565159,6735.874072,1991.848295
191.372383,5699.585753,8734.430116,689.485948
191.372704,4811.338623,9992.780217,-383.047749
191.373024,5403.503377,10362.883188,-689.485948
191.373345,5403.503377,8882.471304,-229.828649
191.373666,6513.812290,7402.059420,612.876398
191.373986,5181.441594,8216.285956,306.438199
191.374307,4737.318029,9178.553681,-612.876398
191.374627,3256.906145,7624.121203,-689.485948
191.374948,5181.441594,6513.812290,0.000000
191.375269,7254.018232,6291.750507,459.657299
191.375589,7105.977043,6809.894666,536.266849
191.375910,3552.988522,5329.482782,-1762.019645
191.376231,2812.782580,4515.256246,-2374.896044
191.376551,5847.626942,6365.771101,842.705048
191.376872,7920.203579,8808.450710,1455.581446
191.377193,6439.791695,8808.450710,0.000000
191.377513,7846.182985,10214.842000,-1455.581446
191.377834,6069.688724,11251.130318,-689.485948
191.378154,4219.173869,10140.821405,-766.095498
191.378475,4441.235652,7920.203579,-536.266849
191.378796,4737.318029,7105.977043,-842.705048
191.379116,3849.070898,6957.935855,-612.876398
191.379437,4441.235652,7624.121203,0.000000
191.379758,4441.235652,8882.471304,-1532.190996
191.380078,2590.720797,8882.471304,-842.705048
191.380399,3330.926739,8068.244768,612.876398
191.380719,3849.070898,8216.285956,919.314598
191.381040,5255.462188,7920.203579,1225.752797
191.381361,4071.132681,7402.059420,689.485948
191.381681,6957.935855,8512.368333,-536.266849
191.382002,6069.688724,10881.027347,919.314598
191.382323,6217.729913,12139.377449,1378.971896
191.382643,6439.791695,10288.862594,383.047749
191.382964,6217.729913,8586.388927,-229.828649
191.383285,5033.400406,7698.141797,383.047749
191.383605,4145.153275,7031.956449,76.609550
191.383926,4811.338623,5551.544565,-2068.457845
191.384247,6365.771101,7550.100608,-2528.115143
191.384568,5033.400406,8808.450710,-1149.143247
191.384888,4441.235652,8586.388927,-229.828649
191.385209,3775.050304,7772.162391,0.000000
191.385530,3478.967927,7105.977043,-306.438199
191.385851,5107.421000,7772.162391,76.609550
191.386171,5551.544565,8364.327145,-306.438199
191.386492,5107.421000,9326.594869,-1072.533697
191.386813,5921.647536,10658.965565,536.266849
191.387134,5773.606348,10807.006753,919.314598
191.387455,5847.626942,9770.718434,153.219100
191.387775,3552.988522,8438.347739,766.095498
191.388096,3701.029710,6439.791695,383.047749
191.388417,4589.276840,4515.256246,-383.047749
191.388738,5773.606348,5921.647536,919.314598
191.389058,4219.173869,6661.853478,612.876398
191.389379,3034.844362,6439.791695,459.657299
191.389700,2442.679609,6735.874072,995.924147
191.390021,4737.318029,7550.100608,1225.752797
191.390341,4293.194464,7031.956449,1302.362347
191.390662,6143.709319,7105.977043,-1149.143247
191.390983,6365.771101,7105.977043,-1532.190996
191.391304,6143.709319,8216.285956,-995.924147
191.391625,6883.915261,8438.347739,0.000000
191.391945,8512.368333,8586.388927,-383.047749
191.392266,7402.059420,7994.224174,-1532.190996
191.392587,5847.626942,8216.285956,-1991.848295
191.392908,5847.626942,7105.977043,-1225.752797
191.393228,6143.709319,5995.668130,-459.657299
191.393549,7328.038826,7624.121203,919.314598
191.393870,5847.626942,7328.038826,1072.533697
191.394191,3627.009116,8512.368333,153.219100
191.394511,1776.494261,7105.977043,0.000000
191.394832,3256.906145,6883.915261,383.047749
191.395153,5033.400406,7994.224174,2068.457845
191.395474,4589.276840,9844.739029,1532.190996
191.395795,2738.761985,9696.697840,76.609550
191.396115,2590.720797,9104.533087,0.000000
191.396436,4737.318029,10066.800811,1072.533697
191.396757,4071.132681,11103.089130,2451.505594
191.397078,3108.864956,9474.636058,-383.047749
191.397398,5255.462188,7772.162391,-3140.991542
191.397719,5921.647536,6735.874072,-2298.286494
191.398040,6513.812290,8142.265362,842.705048
191.398361,6883.915261,8364.327145,1838.629195
191.398681,4737.318029,7624.121203,-689.485948
191.399002,4071.132681,6661.853478,-1915.238745
191.399323,6513.812290,6809.894666,-306.438199
191.399644,7920.203579,7031.956449,76.609550
191.399965,8290.306550,7698.141797,0.000000
191.400285,7179.997637,9178.553681,-306.438199
191.400606,6069.688724,9030.512492,-1302.362347
191.400927,7179.997637,8068.244768,-306.438199
191.401248,5773.606348,6735.874072,-306.438199
191.401568,4737.318029,6513.812290,-383.047749
191.401889,3478.967927,7105.977043,-1149.143247
191.402210,4663.297435,7772.162391,-1378.971896
191.402531,5477.523971,7550.100608,-1302.362347
191.402851,6957.935855,7994.224174,0.000000
191.403172,4071.132681,8660.409521,689.485948
191.403493,1628.453072,6883.915261,-1072.533697
191.403814,3256.906145,7994.224174,0.000000
191.404134,6587.832884,7698.141797,1149.143247
191.404455,6883.915261,8290.306550,536.266849
191.404776,6957.935855,9844.739029,459.657299
191.405097,4885.359217,9622.677246,-1378.971896
191.405418,4663.297435,10140.821405,-229.828649
191.405738,5033.400406,8808.450710,1762.019645
191.406059,4811.338623,7179.997637,536.266849
191.406380,4293.194464,5403.503377,-383.047749
191.406701,4145.153275,5847.626942,-842.705048
191.407021,4663.297435,7772.162391,-383.047749
191.407342,4885.359217,9030.512492,689.485948
191.407663,4293.194464,9326.594869,-459.657299
191.407984,2590.720797,6957.935855,-1072.533697
191.408304,5329.482782,6291.750507,306.438199
191.408625,7031.956449,7105.977043,2221.676944
191.408946,5181.441594,7402.059420,689.485948
191.409267,4737.318029,9178.553681,-1378.971896
191.409588,5033.400406,9918.759623,-2298.286494
191.409908,4663.297435,8734.430116,-612.876398
191.410229,8216.285956,8364.327145,1378.971896
191.410550,7179.997637,7994.224174,-153.219100
191.410871,3627.009116,6957.935855,-3217.601092
191.411191,3627.009116,7031.956449,-1378.971896
191.411512,6217.729913,8290.306550,995.924147
191.411833,5403.503377,8956.491898,1762.019645
191.412154,5551.544565,8290.306550,2221.676944
191.412474,3034.844362,7624.121203,-1378.971896
191.412795,444.123565,6957.935855,-2757.943793
191.413116,3108.864956,7105.977043,0.000000
191.413437,5625.565159,9474.636058,1378.971896
191.413758,5773.606348,10362.883188,766.095498
191.414078,4737.318029,8956.491898,689.485948
191.414399,5847.626942,9104.533087,919.314598
191.414720,3849.070898,8512.368333,919.314598
191.415041,4071.132681,9326.594869,1762.019645
191.415361,4515.256246,7476.080014,459.657299
191.415682,5625.565159,5995.668130,-1991.848295
191.416003,7994.224174,6143.709319,-536.266849
191.416324,6069.688724,7846.182985,0.000000
191.416644,3034.844362,7550.100608,-2757.943793
191.416965,3404.947333,8512.368333,-2374.896044
191.417286,4663.297435,8216.285956,153.219100
191.417607,7402.059420,7624.121203,2451.505594
191.417928,7328.038826,7994.224174,2374.896044
191.418248,4737.318029,8882.471304,-1225.752797
191.418569,2294.638420,9474.636058,-2451.505594
191.418890,3330.926739,9474.636058,-766.095498
191.419211,5551.544565,7254.018232,153.219100
191.419531,7328.038826,5329.482782,995.924147
191.419852,7994.224174,7031.956449,0.000000
191.420173,4145.153275,8586.388927,-1532.190996
191.420494,2146.597232,8216.285956,-1915.238745
191.420814,5995.668130,7994.224174,-383.047749
191.421135,6291.750507,5995.668130,1225.752797
191.421456,6291.750507,5699.585753,2221.676944
191.421777,5625.565159,7031.956449,1762.019645
191.422098,5625.565159,7328.038826,-919.314598
191.422418,5107.421000,7624.121203,-1991.848295
191.422739,5625.565159,7624.121203,-2145.067394
191.423060,6513.812290,8882.471304,-689.485948
191.423381,6439.791695,10584.944971,1838.629195
191.423701,5033.400406,9918.759623,1915.238745
191.424022,4885.359217,8438.347739,459.657299
191.424343,4071.132681,7550.100608,-1532.190996
191.424664,1924.535449,6365.771101,-1991.848295
191.424984,4145.153275,6587.832884,-229.828649
191.425305,5107.421000,8068.244768,919.314598
191.425626,3997.112087,9400.615463,919.314598
191.425947,3478.967927,9252.574275,-842.705048
191.426268,3182.885551,7698.141797,-2068.457845
191.426588,2442.679609,7772.162391,-1991.848295
191.426909,3923.091493,8142.265362,0.000000
191.427230,5699.585753,9400.615463,0.000000
191.427551,6217.729913,10807.006753,306.438199
191.427871,3997.112087,10584.944971,536.266849
191.428192,4441.235652,11473.192101,306.438199
191.428513,4663.297435,10881.027347,229.828649
191.428834,5107.421000,10510.924376,536.266849
191.429154,3997.112087,6661.853478,0.000000
191.429475,3923.091493,4663.297435,0.000000
191.429796,3923.091493,6587.832884,919.314598
191.430117,3182.885551,8290.306550,995.924147
191.430438,3108.864956,8660.409521,-842.705048
191.430758,4145.153275,7846.182985,-2298.286494
191.431079,4441.235652,7105.977043,-1225.752797
191.431400,6735.874072,7254.018232,919.314598
191.431721,5551.544565,6587.832884,766.095498
191.432041,4441.235652,8734.430116,-995.924147
191.432362,5181.441594,10214.842000,-1838.629195
191.432683,5551.544565,10510.924376,-1378.971896
191.433004,8734.430116,9548.656652,-842.705048
191.433324,8216.285956,8512.368333,76.609550
191.433645,6439.791695,8290.306550,-1072.533697
191.433966,5181.441594,6217.729913,-536.266849
191.434287,4219.173869,4811.338623,459.657299
191.434608,5699.585753,5403.503377,536.266849
191.434928,5033.400406,4885.359217,612.876398
191.435249,5625.565159,6069.688724,-459.657299
191.435570,3552.988522,5551.544565,-1072.533697
191.435891,3256.906145,5033.400406,-612.876398
191.436211,6291.750507,7402.059420,536.266849
191.436532,7105.977043,11399.171507,0.000000
191.436853,3478.967927,10955.047942,-1149.143247
191.437174,6587.832884,9918.759623,-842.705048
191.437494,7550.100608,9474.636058,-1149.143247
191.437815,4071.132681,9770.718434,-1685.410096
191.438136,3701.029710,9400.615463,-306.438199
191.438457,5107.421000,8364.327145,-383.047749
191.438777,4219.173869,6291.750507,-383.047749
191.439098,3775.050304,6957.935855,919.314598
191.439419,3849.070898,7550.100608,0.000000
191.439740,1480.411884,7402.059420,-2221.676944
191.440061,1258.350101,7179.997637,0.000000
191.440381,3997.112087,8660.409521,842.705048
191.440702,5847.626942,8512.368333,1685.410096
191.441023,2886.803174,8808.450710,459.657299
191.441344,2590.720797,10510.924376,-2145.067394
191.441664,2590.720797,12065.356855,-2145.067394
191.441985,6217.729913,13323.706956,306.438199
191.442306,6883.915261,10658.965565,1455.581446
191.442627,7179.997637,8882.471304,-306.438199
191.442947,6143.709319,8808.450710,-1225.752797
191.443268,1998.556043,9178.553681,-612.876398
191.443589,2368.659014,7105.977043,-1302.362347
191.443910,6439.791695,6291.750507,-383.047749
191.444231,6513.812290,5181.441594,153.219100
191.444551,3997.112087,5699.585753,0.000000
191.444872,4737.318029,8290.306550,919.314598
191.445193,4219.173869,8142.265362,-229.828649
191.445514,5847.626942,7624.121203,-459.657299
191.445834,5921.647536,7698.141797,-383.047749
191.446155,7476.080014,10140.821405,-1302.362347
191.446476,6883.915261,10732.986159,-1149.143247
191.446797,7179.997637,9844.739029,-689.485948
191.447117,7698.141797,9844.739029,-536.266849
191.447438,5625.565159,7920.203579,-766.095498
191.447759,3552.988522,5995.668130,-919.314598
191.448080,3997.112087,5773.606348,0.000000
191.448401,5699.585753,6587.832884,383.047749
191.448721,4959.379811,6217.729913,536.266849
191.449042,2294.638420,3775.050304,306.438199
191.449363,2442.679609,5551.544565,1149.143247
191.449684,4811.338623,7920.203579,1915.238745
191.450004,3552.988522,7550.100608,1532.190996
191.450325,7550.100608,8438.347739,0.000000
191.450646,7476.080014,8216.285956,-1455.581446
191.450967,5255.462188,8956.491898,-2451.505594
191.451287,6439.791695,7698.141797,-1149.143247
191.451608,7920.203579,8808.450710,153.219100
191.451929,7624.121203,8734.430116,76.609550
191.452250,5551.544565,8290.306550,-612.876398
191.452571,4367.215058,7254.018232,-3140.991542
191.452891,4885.359217,8068.244768,-2528.115143
191.453212,4145.153275,8512.368333,1149.143247
191.453533,4071.132681,7254.018232,2145.067394
191.453854,4071.132681,6291.750507,1225.752797
191.454174,962.267725,4737.318029,995.924147
191.454495,2368.659014,7105.977043,1455.581446
191.454816,2590.720797,9474.636058,1149.143247
191.455137,2220.617826,10436.903782,-766.095498
191.455457,4885.359217,10955.047942,-383.047749
191.455778,7402.059420,10066.800811,153.219100
191.456099,6735.874072,9474.636058,689.485948
191.456420,4959.379811,9770.718434,842.705048
191.456741,3552.988522,9030.512492,-1991.848295
191.457061,3478.967927,9178.553681,-4290.134789
191.457382,5699.585753,8068.244768,-1608.800546
191.457703,7105.977043,8142.265362,1072.533697
191.458024,6291.750507,8068.244768,1762.019645
191.458344,2294.638420,8142.265362,153.219100
191.458665,0.000000,7624.121203,-1838.629195
191.458986,2886.803174,7328.038826,-995.924147
191.459307,5403.503377,7846.182985,995.924147
191.459627,4885.359217,9104.533087,1532.190996
191.459948,5847.626942,10362.883188,1225.752797
191.460269,5699.585753,9474.636058,383.047749
191.460590,3627.009116,9548.656652,-229.828649
191.460911,4441.235652,9030.512492,-229.828649
191.461231,3849.070898,7402.059420,-1455.581446
191.461552,6365.771101,6291.750507,-1685.410096
191.461873,5699.585753,6291.750507,76.609550
191.462194,5921.647536,6735.874072,612.876398
191.462514,5551.544565,8734.430116,-766.095498
191.462835,3997.112087,8216.285956,-1225.752797
191.463156,2886.803174,6883.915261,-383.047749
191.463477,8216.285956,6513.812290,1378.971896
191.463797,7994.224174,7105.977043,1378.971896
191.464118,4663.297435,8142.265362,-1685.410096
191.464439,5477.523971,8660.409521,-1378.971896
191.464760,7105.977043,8808.450710,383.047749
191.465081,7254.018232,7772.162391,1915.238745
191.465401,6957.935855,7105.977043,1685.410096
191.465722,5921.647536,6809.894666,-2374.896044
191.466043,2220.617826,6069.688724,-3294.210641
191.466364,4737.318029,6217.729913,306.438199
191.466684,7328.038826,8142.265362,1455.581446
191.467005,6513.812290,7624.121203,1378.971896
191.467326,3034.844362,5329.482782,0.000000
191.467647,3552.988522,6883.915261,-1608.800546
191.467967,3108.864956,8216.285956,306.438199
191.468288,4737.318029,9474.636058,1225.752797
191.468609,7031.956449,8290.306550,-612.876398
191.468930,7994.224174,9030.512492,-2834.553343
191.469251,6661.853478,10436.903782,766.095498
191.469571,5329.482782,10362.883188,1762.019645
191.469892,4589.276840,9252.574275,-612.876398
191.470213,3330.926739,7920.203579,-1762.019645
191.470534,4367.215058,6809.894666,-536.266849
191.470854,5329.482782,6439.791695,0.000000
191.471175,5329.482782,8142.265362,1762.019645
191.471496,2664.741391,8734.430116,919.314598
191.471817,1702.473667,7698.141797,-766.095498
191.472137,1554.432478,7254.018232,-1149.143247
191.472458,5107.421000,8586.388927,536.266849
191.472779,4737.318029,9178.553681,1455.581446
191.473100,6217.729913,9104.533087,-536.266849
191.473421,5699.585753,10732.986159,-1225.752797
191.473741,4441.235652,10288.862594,842.705048
191.474062,5403.503377,9918.759623,919.314598
191.474383,6291.750507,9030.512492,229.828649
191.474704,5255.462188,6735.874072,-1915.238745
191.475024,5181.441594,5699.585753,-842.705048
191.475345,4145.153275,5329.482782,383.047749
191.475666,5625.565159,7550.100608,-383.047749
191.475987,4737.318029,9178.553681,76.609550
191.476307,3552.988522,7846.182985,-229.828649
191.476628,6217.729913,6735.874072,0.000000
191.476949,5255.462188,6735.874072,1149.143247
191.477270,3256.906145,6587.832884,-995.924147
191.477590,5625.565159,7179.997637,-2068.457845
191.477911,6661.853478,9326.594869,-689.485948
191.478232,7179.997637,10658.965565,0.000000
191.478553,7254.018232,10362.883188,1915.238745
191.478874,6365.771101,8660.409521,-1072.533697
191.479194,3404.947333,7698.141797,-2911.162892
191.479515,3330.926739,6587.832884,76.609550
191.479836,6513.812290,6735.874072,1302.362347
191.480157,7105.977043,7105.977043,1685.410096
191.480477,3256.906145,5995.668130,0.000000
191.480798,2960.823768,6439.791695,-1455.581446
191.481119,3256.906145,7328.038826,0.000000
191.481440,3330.926739,7550.100608,842.705048
191.481760,5773.606348,6809.894666,689.485948
191.482081,7550.100608,6735.874072,-2221.676944
191.482402,6365.771101,9548.656652,-1685.410096
191.482723,5107.421000,10881.027347,1072.533697
191.483043,5847.626942,10214.842000,459.657299
191.483364,5921.647536,9548.656652,-1302.362347
191.483685,5847.626942,8734.430116,-1378.971896
191.484005,5921.647536,8216.285956,842.705048
191.484326,5181.441594,6735.874072,1838.629195
191.484647,5255.462188,6735.874072,0.000000
191.484967,5995.668130,8142.265362,-766.095498
191.485288,4441.235652,7550.100608,-1302.362347
191.485609,4515.256246,8290.306550,-612.876398
191.485929,4441.235652,7105.977043,919.314598
191.486250,6661.853478,6439.791695,1149.143247
191.486571,6883.915261,7846.182985,1149.143247
191.486891,3997.112087,9178.553681,-459.657299
191.487212,3775.050304,10658.965565,-1762.019645
191.487533,4441.235652,10510.924376,-1378.971896
191.487853,6069.688724,9844.739029,0.000000
191.488174,5995.668130,8290.306550,1225.752797
191.488495,3404.947333,5921.647536,76.609550
191.488815,3108.864956,7772.162391,-689.485948
191.489136,3108.864956,9400.615463,-306.438199
191.489457,3034.844362,9178.553681,0.000000
191.489777,7846.182985,7624.121203,383.047749
191.490098,6069.688724,5921.647536,306.438199
191.490419,3034.844362,6143.709319,-383.047749
191.490739,4737.318029,6439.791695,-459.657299
191.491060,6365.771101,6809.894666,459.657299
191.491381,6809.894666,7698.141797,153.219100
191.491701,5847.626942,9622.677246,76.609550
191.492022,5181.441594,9992.780217,-1838.629195
191.492343,4293.194464,9326.594869,-2374.896044
191.492663,5773.606348,9326.594869,1608.800546
191.492984,6883.915261,9178.553681,919.314598
191.493305,3997.112087,7402.059420,-995.924147
191.493625,1998.556043,3997.112087,-2068.457845
191.493946,4145.153275,6143.709319,-612.876398
191.494267,4219.173869,8882.471304,2451.505594
191.494587,4811.338623,9548.656652,2145.067394
191.494908,5255.462188,7698.141797,-1915.238745
191.495229,5255.462188,6291.750507,-2834.553343
191.495549,5403.503377,7105.977043,995.924147
191.495870,5551.544565,8290.306550,1532.190996
191.496191,5181.441594,9104.533087,-995.924147
191.496511,5329.482782,10140.821405,-2451.505594
191.496832,5847.626942,10066.800811,-1685.410096
191.497153,6957.935855,10510.924376,689.485948
191.497473,5995.668130,9622.677246,2987.772442
191.497794,4219.173869,7624.121203,612.876398
191.498115,4589.276840,7105.977043,-1225.752797
191.498435,4219.173869,6661.853478,-1685.410096
191.498756,4959.379811,7698.141797,-459.657299
191.499077,5773.606348,7550.100608,1762.019645
191.499397,5847.626942,6957.935855,1302.362347
191.499718,6587.832884,7328.038826,766.095498
191.500039,5551.544565,7476.080014,459.657299
191.500359,5107.421000,8512.368333,-612.876398
191.500680,4959.379811,7254.018232,-689.485948
191.501001,7328.038826,7846.182985,-536.266849
191.501321,6809.894666,7550.100608,153.219100
191.501642,6661.853478,6439.791695,0.000000
191.501963,6513.812290,8068.244768,-689.485948
191.502283,4737.318029,9474.636058,-689.485948
191.502604,2220.617826,8882.471304,-612.876398
191.502925,7105.977043,7179.997637,-306.438199
191.503245,7105.977043,6735.874072,-306.438199
191.503566,4663.297435,7476.080014,-842.705048
191.503887,3404.947333,6661.853478,-612.876398
191.504207,3997.112087,6069.688724,229.828649
191.504528,3627.009116,7031.956449,1378.971896
191.504849,5551.544565,7105.977043,1378.971896
191.505169,5551.544565,7476.080014,-2681.334243
191.505490,5625.565159,10288.862594,-3753.867940
191.505811,4441.235652,11547.212695,0.000000
191.506131,5921.647536,9548.656652,1149.143247
191.506452,6439.791695,7994.224174,536.266849
191.506773,3034.844362,6513.812290,459.657299
191.507093,1850.514855,6587.832884,-689.485948
191.507414,2960.823768,8882.471304,76.609550
191.507735,3330.926739,10955.047942,76.609550
191.508055,4515.256246,10510.924376,-306.438199
191.508376,5403.503377,8808.450710,0.000000
191.508697,3701.029710,7179.997637,689.485948
191.509017,2812.782580,7402.059420,1838.629195
191.509338,2294.638420,7698.141797,919.314598
191.509659,2812.782580,8586.388927,-1149.143247
191.509979,4515.256246,10214.842000,-1838.629195
191.510300,5551.544565,10807.006753,-995.924147
191.510621,6735.874072,10510.924376,306.438199
191.510941,5107.421000,8586.388927,995.924147
191.511262,4145.153275,8364.327145,0.000000
191.511583,3701.029710,6587.832884,-76.609550
191.511903,5403.503377,6439.791695,-1149.143247
191.512224,6513.812290,8216.285956,-536.266849
191.512545,6957.935855,8068.244768,153.219100
191.512865,7328.038826,8290.306550,766.095498
191.513186,6661.853478,7105.977043,612.876398
191.513507,5995.668130,7105.977043,-459.657299
191.513827,6069.688724,6439.791695,-229.828649
191.514148,5995.668130,6957.935855,-919.314598
191.514468,7254.018232,8290.306550,306.438199
191.514789,5921.647536,7550.100608,1455.581446
191.515110,5551.544565,6883.915261,1072.533697
191.515430,6291.750507,9178.553681,0.000000
191.515751,3108.864956,10066.800811,-1149.143247
191.516072,1332.370696,7402.059420,-1225.752797
191.516392,5847.626942,5477.523971,0.000000
191.516713,5995.668130,5625.565159,306.438199
191.517034,4811.338623,7031.956449,-229.828649
191.517354,4293.194464,7624.121203,76.609550
191.517675,4145.153275,8364.327145,-1072.533697
191.517996,3849.070898,7772.162391,0.000000
191.518316,4959.379811,6587.832884,536.266849
191.518637,6513.812290,6883.915261,-1838.629195
191.518958,6513.812290,9104.533087,-1838.629195
191.519278,5329.482782,11325.150913,306.438199
191.519599,6291.750507,11251.130318,0.000000
191.519920,5773.606348,6661.853478,-536.266849
191.520240,4219.173869,5773.606348,459.657299
191.520561,4441.235652,7550.100608,1991.848295
191.520882,2442.679609,8512.368333,689.485948
191.521202,4145.153275,8512.368333,-1532.190996
191.521523,5773.606348,7920.203579,-2451.505594
191.521844,6439.791695,6587.832884,0.000000
191.522164,5551.544565,7031.956449,1608.800546
191.522485,3849.070898,6291.750507,689.485948
191.522806,4367.215058,6809.894666,-536.266849
191.523126,5625.565159,9400.615463,0.000000
191.523447,5921.647536,9622.677246,-689.485948
191.523768,6735.874072,10881.027347,-1072.533697
191.524088,6735.874072,10881.027347,689.485948
191.524409,4663.297435,9326.594869,-612.876398
191.524730,4293.194464,8364.327145,0.000000
191.525050,3182.885551,7846.182985,229.828649
191.525371,3478.967927,8068.244768,306.438199
191.525692,4515.256246,7476.080014,153.219100
191.526012,4737.318029,9844.739029,-306.438199
191.526333,3849.070898,10288.862594,1072.533697
191.526654,2368.659014,9030.512492,0.000000
191.526974,2442.679609,7179.997637,-306.438199
191.527295,3182.885551,6513.812290,0.000000
191.527616,4811.338623,7105.977043,612.876398
191.527936,4737.318029,8364.327145,-536.266849
191.528257,4367.215058,9030.512492,-1378.971896
191.528578,4959.379811,11177.109724,383.047749
191.528898,7031.956449,11399.171507,1378.971896
191.529219,3330.926739,7254.018232,1302.362347
191.529540,5255.462188,5477.523971,0.000000
191.529860,5033.400406,5847.626942,-995.924147
191.530181,2812.782580,6735.874072,-2221.676944
191.530502,4737.318029,6883.915261,-1149.143247
191.530822,6661.853478,7994.224174,-612.876398
191.531143,5921.647536,8586.388927,0.000000
191.531464,3849.070898,8956.491898,612.876398
191.531784,3997.112087,8512.368333,-766.095498
191.532105,2960.823768,7846.182985,-383.047749
191.532426,4589.276840,9178.553681,995.924147
191.532746,4885.359217,9400.615463,536.266849
191.533067,3849.070898,9696.697840,-842.705048
191.533388,2886.803174,7550.100608,-612.876398
191.533708,4145.153275,7402.059420,-459.657299
191.534029,4293.194464,8290.306550,1072.533697
191.534350,3997.112087,8068.244768,536.266849
191.534670,4441.235652,7772.162391,-1302.362347
191.534991,5477.523971,7105.977043,-919.314598
191.535312,7179.997637,7920.203579,1225.752797
191.535632,6217.729913,6735.874072,2221.676944
191.535953,5477.523971,5255.462188,-995.924147
191.536274,6439.791695,5625.565159,-1378.971896
191.536594,6735.874072,7254.018232,-766.095498
191.536915,8882.471304,8882.471304,306.438199
191.537236,9104.533087,9474.636058,76.609550
191.537556,7994.224174,9548.656652,-383.047749
191.537877,6069.688724,8734.430116,-612.876398
191.538198,6143.709319,7328.038826,689.485948
191.538518,5403.503377,6587.832884,1378.971896
191.538839,4515.256246,5699.585753,383.047749
191.539160,4219.173869,6735.874072,-1685.410096
191.539480,3627.009116,7772.162391,-1608.800546
191.539801,3552.988522,8586.388927,0.000000
191.540122,5847.626942,9104.533087,1149.143247
191.540442,5329.482782,8586.388927,-612.876398
191.540763,1406.391290,7179.997637,-2221.676944
191.541084,2886.803174,7476.080014,-919.314598
191.541404,5847.626942,9178.553681,1915.238745
191.541725,5921.647536,9400.615463,1455.581446
191.542046,4663.297435,9992.780217,153.219100
191.542366,4589.276840,11547.212695,-2145.067394
191.542687,3997.112087,11251.130318,-1991.848295
191.543008,3627.009116,8882.471304,306.438199
191.543328,6809.894666,6513.812290,76.609550
191.543649,5995.668130,4959.379811,-1378.971896
191.543970,2886.803174,5329.482782,-1149.143247
191.544290,3330.926739,8438.347739,0.000000
191.544611,4737.318029,10362.883188,1225.752797
191.544932,4737.318029,8512.368333,536.266849
191.545252,4885.359217,7402.059420,459.657299
191.545573,5921.647536,7920.203579,-1149.143247
191.545894,4515.256246,8364.327145,-1762.019645
191.546214,3997.112087,8290.306550,-612.876398
191.546535,6217.729913,9548.656652,-1455.581446
191.546856,5699.585753,10066.800811,-689.485948
191.547176,4441.235652,9326.594869,1915.238745
191.547497,5403.503377,8882.471304,1608.800546
191.547818,4811.338623,9696.697840,766.095498
191.548138,3701.029710,8808.450710,-229.828649
191.548459,4145.153275,6809.894666,-1532.190996
191.548780,5107.421000,6143.709319,-1762.019645
191.549100,4737.318029,5921.647536,-536.266849
191.549421,3330.926739,7698.141797,0.000000
191.549741,3034.844362,7624.121203,-689.485948
191.550062,3627.009116,8808.450710,-229.828649
191.550383,4219.173869,9104.533087,842.705048
191.550703,6513.812290,9474.636058,1302.362347
191.551024,7328.038826,9844.739029,536.266849
191.551345,4885.359217,9030.512492,-612.876398
191.551665,3997.112087,8142.265362,-1149.143247
191.551986,5699.585753,7254.018232,0.000000
191.552307,4885.359217,6735.874072,0.000000
191.552627,5477.523971,5921.647536,-459.657299
191.552948,6809.894666,6365.771101,-1225.752797
191.553269,5255.462188,7105.977043,-1532.190996
191.553589,3330.926739,7254.018232,-612.876398
191.553910,4589.276840,8068.244768,766.095498
191.554231,5255.462188,7105.977043,1225.752797
191.554551,5773.606348,8068.244768,306.438199
191.554872,6365.771101,7772.162391,-536.266849
191.555193,4811.338623,7698.141797,-2221.676944
191.555513,4441.235652,8216.285956,-3140.991542
191.555834,5477.523971,10140.821405,-1072.533697
191.556155,5995.668130,9918.759623,1149.143247
191.556475,7105.977043,8808.450710,2374.896044
191.556796,5995.668130,8438.347739,1685.410096
191.557117,1924.535449,7624.121203,-842.705048
191.557437,1776.494261,6069.688724,-1149.143247
191.557758,4811.338623,6809.894666,1455.581446
191.558079,5995.668130,7031.956449,1532.190996
191.558399,5847.626942,6291.750507,612.876398
191.558720,5181.441594,6957.935855,-2221.676944
191.559041,2960.823768,8068.244768,-3600.648841
191.559361,3627.009116,8660.409521,-383.047749
191.559682,6809.894666,10436.903782,1455.581446
191.560003,8734.430116,9844.739029,153.219100
191.560323,7476.080014,10288.862594,153.219100
191.560644,5995.668130,8956.491898,153.219100
191.560965,4589.276840,7846.182985,459.657299
191.561285,4293.194464,9178.553681,689.485948
191.561606,3775.050304,7994.224174,-995.924147
191.561927,4071.132681,5699.585753,-1915.238745
191.562247,6735.874072,6365.771101,306.438199
191.562568,4663.297435,7920.203579,2528.115143
191.562889,1924.535449,7105.977043,1072.533697
191.563209,2886.803174,7328.038826,-1072.533697
191.563530,3701.029710,7328.038826,-1378.971896
191.563851,6661.853478,7920.203579,766.095498
191.564171,9622.677246,8068.244768,2681.334243
191.564492,7550.100608,7698.141797,0.000000
191.564813,5921.647536,8734.430116,-1991.848295
191.565133,6069.688724,8882.471304,-229.828649
191.565454,8068.244768,7920.203579,306.438199
191.565775,10140.821405,5033.400406,919.314598
191.566095,10732.986159,5033.400406,-76.609550
191.566416,7254.018232,5773.606348,-2451.505594
191.566737,5107.421000,5477.523971,-2451.505594
191.567057,7179.997637,5551.544565,459.657299
191.567378,9696.697840,6143.709319,2451.505594
191.567699,7846.182985,5181.441594,1685.410096
191.568019,7179.997637,5995.668130,153.219100
191.568340,5329.482782,7254.018232,-1838.629195
191.568661,5625.565159,5921.647536,-1072.533697
191.568981,8660.409521,4515.256246,-536.266849
191.569302,9400.615463,5033.400406,-536.266849
191.569623,8512.368333,8734.430116,536.266849
191.569943,6069.688724,8290.306550,995.924147
191.570264,5773.606348,6069.688724,-2145.067394
191.570585,9622.677246,5625.565159,-1915.238745
191.570905,11769.274478,6957.935855,0.000000
191.571226,8290.306550,5033.400406,0.000000
191.571547,8956.491898,4811.338623,229.828649
191.571867,9770.718434,6291.750507,1149.143247
191.572188,8956.491898,6513.812290,1685.410096
191.572509,8142.265362,5551.544565,842.705048
191.572829,9400.615463,5181.441594,-1225.752797
191.573150,9178.553681,5625.565159,-1378.971896
191.573471,10214.842000,4367.215058,1532.190996
191.573791,10584.944971,3478.967927,1608.800546
191.574112,11103.089130,4145.153275,766.095498
191.574433,8438.347739,4811.338623,-229.828649
191.574753,9844.739029,5995.668130,-1378.971896
191.575074,10510.924376,4219.173869,-842.705048
191.575395,12583.501014,4663.297435,1378.971896
191.575715,11769.274478,4959.379811,1532.190996
191.576036,10066.800811,5625.565159,-2145.067394
191.576357,8290.306550,6587.832884,-4443.353888
191.576677,9770.718434,6143.709319,-3677.258390
191.576998,10362.883188,4737.318029,-459.657299
191.577319,10584.944971,5033.400406,1225.752797
191.577639,8956.491898,6883.915261,1838.629195
191.577960,8364.327145,8142.265362,1455.581446
191.578281,8290.306550,8438.347739,1455.581446
191.578601,8364.327145,5995.668130,1762.019645
191.578922,6661.853478,2590.720797,1302.362347
191.579243,7772.162391,2072.576638,842.705048
191.579563,8734.430116,4071.132681,306.438199
191.579884,9696.697840,6735.874072,76.609550
191.580205,9992.780217,5699.585753,-536.266849
191.580525,11177.109724,3627.009116,-1149.143247
191.580846,11695.253884,3478.967927,0.000000
191.581167,11251.130318,5033.400406,2298.286494
191.581487,10362.883188,4959.379811,1072.533697
191.581808,11769.274478,5033.400406,-1838.629195
191.582129,13693.809927,4071.132681,-2374.896044
191.582449,12731.542202,2442.679609,-1302.362347
191.582770,11103.089130,1628.453072,-1762.019645
191.583091,11029.068536,4737.318029,-2221.676944
191.583411,9252.574275,6957.935855,-2298.286494
191.583732,9844.739029,6291.750507,-1072.533697
191.584053,11325.150913,5551.544565,1072.533697
191.584373,9104.533087,5403.503377,1225.752797
191.584694,6439.791695,5551.544565,995.924147
191.585015,5995.668130,7624.121203,689.485948
191.585335,4589.276840,8512.368333,-842.705048
191.585656,4367.215058,7698.141797,-612.876398
191.585977,6661.853478,6809.894666,0.000000
191.586297,5551.544565,6587.832884,-1378.971896
191.586618,3775.050304,7846.182985,76.609550
191.586939,4071.132681,9474.636058,2221.676944
191.587260,6143.709319,9992.780217,1915.238745
191.587580,6143.709319,7179.997637,2681.334243
191.587901,6513.812290,5773.606348,2451.505594
191.588222,8216.285956,6143.709319,1532.190996
191.588543,7550.100608,5699.585753,153.219100
191.588863,8290.306550,4737.318029,-842.705048
191.589184,10881.027347,2886.803174,-1378.971896
191.589505,12805.562797,2590.720797,-842.705048
191.589826,13175.665768,4293.194464,1225.752797
191.590146,11843.295072,5329.482782,383.047749
191.590467,12213.398043,4811.338623,-2298.286494
191.590788,14434.015869,4071.132681,-2528.115143
191.591109,15322.262999,4071.132681,-842.705048
191.591429,14878.139434,4589.276840,-612.876398
191.591750,12213.398043,4811.338623,-1685.410096
191.592071,9252.574275,3330.926739,-2681.334243
191.592392,9548.656652,2516.700203,-1685.410096
191.592712,10732.986159,3108.864956,229.828649
191.593033,10584.944971,4145.153275,459.657299
191.593354,8808.450710,5995.668130,-612.876398
191.593675,6883.915261,6883.915261,-842.705048
191.593995,6291.750507,6735.874072,612.876398
191.594316,6513.812290,5551.544565,2374.896044
191.594637,6661.853478,5181.441594,1378.971896
191.594957,6513.812290,7254.018232,-306.438199
191.595278,4663.297435,8808.450710,-1378.971896
191.595599,5329.482782,7328.038826,-842.705048
191.595920,7105.977043,5033.400406,1532.190996
191.596240,9252.574275,4737.318029,3370.820191
191.596561,8660.409521,6735.874072,1685.410096
191.596882,7920.203579,7624.121203,-1225.752797
191.597203,8290.306550,5773.606348,-766.095498
191.597523,10881.027347,2590.720797,1608.800546
191.597844,13027.624579,222.061783,3907.087040
191.598165,13693.809927,1702.473667,1149.143247
191.598486,12361.439231,4663.297435,-2604.724693
191.598806,11547.212695,6069.688724,-4903.011187
191.599127,13619.789333,5033.400406,-3600.648841
191.599448,15248.242405,3108.864956,-1455.581446
191.599769,15026.180623,3330.926739,0.000000
191.600089,13175.665768,6217.729913,-1378.971896
191.600410,10955.047942,8216.285956,-3217.601092
191.600731,9030.512492,7698.141797,-2987.772442
191.601052,9030.512492,5107.421000,-1149.143247
191.601372,9326.594869,4219.173869,842.705048
191.601693,7179.997637,4737.318029,1532.190996
191.602014,5551.544565,5329.482782,306.438199
191.602335,5773.606348,6883.915261,-919.314598
191.602655,5551.544565,8216.285956,229.828649
191.602976,5255.462188,8882.471304,2681.334243
191.603297,5329.482782,10066.800811,3830.477490
191.603618,5551.544565,10436.903782,2451.505594
191.603938,4589.276840,9252.574275,1072.533697
191.604259,5551.544565,6291.750507,1072.533697
191.604580,6291.750507,3256.906145,1149.143247
191.604901,7105.977043,3923.091493,1302.362347
191.605221,8142.265362,6439.791695,1072.533697
191.605542,9622.677246,7402.059420,-306.438199
191.605863,11325.150913,5255.462188,0.000000
191.606184,12509.480420,2516.700203,459.657299
191.606504,13471.748144,518.144159,919.314598
191.606825,13989.892304,148.041188,-306.438199
191.607146,14656.077652,1554.432478,-2451.505594
191.607467,15322.262999,3849.070898,-3294.210641
191.607787,15766.386565,5329.482782,-3064.381992
191.608108,15100.201217,5403.503377,-2145.067394
191.608429,13989.892304,4885.359217,-1685.410096
191.608749,11769.274478,3997.112087,-1302.362347
191.609070,9696.697840,2812.782580,-1608.800546
191.609391,8734.430116,2072.576638,-2068.457845
191.609712,7624.121203,2368.659014,-1149.143247
191.610032,7476.080014,4663.297435,-306.438199
191.610353,7550.100608,7994.224174,1225.752797
191.610674,6809.894666,9844.739029,689.485948
191.610995,5847.626942,9400.615463,459.657299
191.611315,5847.626942,7254.018232,1225.752797
191.611636,4145.153275,4737.318029,2757.943793
191.611957,3552.988522,4441.235652,3140.991542
191.612278,4219.173869,5403.503377,1991.848295
191.612598,6143.709319,7031.956449,612.876398
191.612919,7179.997637,8512.368333,229.828649
191.613240,9104.533087,8216.285956,612.876398
191.613561,10658.965565,6809.894666,1455.581446
191.613881,10510.924376,5033.400406,1302.362347
191.614202,10881.027347,3034.844362,1072.533697
191.614523,11695.253884,2516.700203,-459.657299
191.614844,12065.356855,2146.597232,-995.924147
191.615164,13175.665768,3330.926739,-1225.752797
191.615485,14063.912898,5033.400406,-2298.286494
191.615806,14359.995275,6661.853478,-3524.039291
191.616127,13471.748144,7550.100608,-3983.696590
191.616447,13101.645173,6809.894666,-2374.896044
191.616768,11991.336260,5181.441594,0.000000
191.617089,10436.903782,4441.235652,1685.410096
191.617410,8216.285956,5107.421000,995.924147
191.617730,7031.956449,6069.688724,-306.438199
191.618051,7031.956449,6883.915261,-1302.362347
191.618372,6439.791695,6735.874072,-612.876398
191.618693,6735.874072,5255.462188,306.438199
191.619013,6661.853478,4293.194464,1225.752797
191.619334,5847.626942,5255.462188,1455.581446
191.619655,4885.359217,6661.853478,1455.581446
191.619976,5625.565159,7476.080014,612.876398
191.620296,6957.935855,7105.977043,842.705048
191.620617,7772.162391,6439.791695,1378.971896
191.620938,8290.306550,7031.956449,919.314598
191.621259,7994.224174,7550.100608,-612.876398
191.621579,8512.368333,7846.182985,-2068.457845
191.621900,9992.780217,7402.059420,-1532.190996
191.622221,10510.924376,6069.688724,-153.219100
191.622541,10362.883188,4293.194464,1149.143247
191.622862,9696.697840,3256.906145,612.876398
191.623183,9474.636058,1702.473667,383.047749
191.623504,10362.883188,888.247130,0.000000
191.623824,12287.418637,1184.329507,-459.657299
191.624145,12805.562797,1776.494261,-1378.971896
191.624466,12953.603985,3552.988522,-2221.676944
191.624787,13249.686362,5477.523971,-2604.724693
191.625107,13323.706956,6587.832884,-3140.991542
191.625428,12805.562797,6809.894666,-2911.162892
191.625749,12361.439231,7105.977043,-2757.943793
191.626070,11547.212695,6735.874072,-1685.410096
191.626390,9696.697840,6439.791695,-306.438199
191.626711,8512.368333,6069.688724,1302.362347
191.627032,7105.977043,5551.544565,2068.457845
191.627353,5921.647536,5033.400406,2757.943793
191.627673,5625.565159,4811.338623,2451.505594
191.627994,5625.565159,4663.297435,2221.676944
191.628315,5551.544565,4441.235652,2681.334243
191.628636,6217.729913,4145.153275,1762.019645
191.628956,7105.977043,5181.441594,995.924147
191.629277,7772.162391,6883.915261,383.047749
191.629598,8882.471304,8290.306550,229.828649
191.629919,10140.821405,8586.388927,0.000000
191.630239,11029.068536,7994.224174,0.000000
191.630560,10955.047942,7254.018232,0.000000
191.630881,10658.965565,6365.771101,-383.047749
191.631202,10288.862594,4811.338623,-612.876398
191.631522,10436.903782,3478.967927,-536.266849
191.631843,10584.944971,1628.453072,-306.438199
191.632164,10732.986159,2294.638420,-306.438199
191.632485,10807.006753,3478.967927,-459.657299
191.632805,10955.047942,5477.523971,-1225.752797
191.633126,10732.986159,6809.894666,-612.876398
191.633447,10140.821405,7624.121203,689.485948
191.633768,8512.368333,7254.018232,1149.143247
191.634088,6809.894666,7624.121203,1072.533697
191.634409,5181.441594,8068.244768,76.609550
191.634730,3997.112087,8142.265362,-383.047749
191.635051,4145.153275,7328.038826,-842.705048
191.635371,3923.091493,7105.977043,-689.485948
191.635692,3330.926739,7698.141797,229.828649
191.636013,2738.761985,9178.553681,2145.067394
191.636333,2664.741391,10584.944971,3217.601092
191.636654,3627.009116,10955.047942,3983.696590
191.636975,4811.338623,10584.944971,4903.011187
191.637296,4737.318029,9474.636058,4826.401637
191.637616,4293.194464,8364.327145,3983.696590
191.637937,4293.194464,7624.121203,3983.696590
191.638258,4737.318029,7402.059420,4060.306139
191.638579,5625.565159,8364.327145,2987.772442
191.638899,6735.874072,9326.594869,3140.991542
191.639220,7105.977043,9696.697840,3294.210641
191.639541,7105.977043,9178.553681,3447.429741
191.639862,7624.121203,8290.306550,4749.792088
191.640182,8216.285956,7772.162391,4673.182538
191.640503,8290.306550,7624.121203,4366.744339
191.640824,7624.121203,7698.141797,4136.915689
191.641145,7402.059420,8068.244768,3830.477490
191.641465,8290.306550,8216.285956,5439.278036
191.641786,7846.182985,8586.388927,6511.811733
191.642107,7179.997637,8216.285956,7354.516781
191.642428,6809.894666,7179.997637,7048.078582
191.642748,5773.606348,6587.832884,6818.249932
191.643069,5107.421000,5181.441594,6665.030833
191.643390,5181.441594,4663.297435,7354.516781
191.643711,5255.462188,5699.585753,7124.688131
191.644031,5551.544565,7476.080014,7048.078582
191.644352,5255.462188,8808.450710,6665.030833
191.644673,4811.338623,8438.347739,6511.811733
191.644994,4663.297435,7846.182985,7277.907231
191.645314,4071.132681,7624.121203,7814.174080
191.645635,3108.864956,6883.915261,7737.564530
191.645956,3182.885551,6069.688724,7431.126331
191.646277,2738.761985,5551.544565,7048.078582
191.646597,2368.659014,5329.482782,6281.983084
191.646918,2368.659014,5107.421000,5745.716235
191.647239,2146.597232,5403.503377,5439.278036
191.647560,2812.782580,6069.688724,5439.278036
191.647880,3627.009116,7105.977043,5898.935335
191.648201,3997.112087,7402.059420,6205.373534
191.648522,4367.215058,7846.182985,6358.592633
191.648843,4515.256246,7550.100608,6358.592633
191.649163,4219.173869,7550.100608,5439.278036
191.649484,4219.173869,6809.894666,4290.134789
191.649805,3775.050304,5847.626942,3753.867940
191.650125,3849.070898,5181.441594,3370.820191
191.650446,4145.153275,5107.421000,3753.867940
191.650767,3701.029710,5551.544565,3524.039291
191.651088,3849.070898,6661.853478,2451.505594
191.651408,4145.153275,8216.285956,2221.676944
191.651729,4737.318029,9030.512492,2528.115143
191.652050,5551.544565,10066.800811,3370.820191
191.652371,5995.668130,10955.047942,4290.134789
191.652691,6069.688724,11029.068536,4366.744339
191.653012,6143.709319,10881.027347,4903.011187
191.653333,5847.626942,10288.862594,6205.373534
191.653654,5107.421000,10066.800811,6511.811733
191.653974,4737.318029,9696.697840,6588.421283
191.654295,4589.276840,8068.244768,6435.202183
191.654616,3404.947333,5995.668130,4749.792088
191.654937,3849.070898,3108.864956,3294.210641
191.655257,4737.318029,2812.782580,2298.286494
191.655578,5329.482782,4811.338623,842.705048
191.655899,6957.935855,8586.388927,-306.438199
191.656220,9030.512492,13323.706956,-1225.752797
191.656540,10881.027347,16950.716072,-1685.410096
191.656861,11029.068536,18653.189738,306.438199
191.657182,9844.739029,17616.901420,2681.334243
191.657503,9030.512492,13989.892304,4903.011187
191.657823,6217.729913,9178.553681,6818.249932
191.658144,5625.565159,6143.709319,7660.954980
191.658465,2072.576638,5033.400406,7354.516781
191.658786,0.000000,5107.421000,5822.325785
191.659106,0.000000,5255.462188,4290.134789
191.659427,2368.659014,4959.379811,3524.039291
191.659748,3034.844362,4515.256246,3600.648841
191.660069,5551.544565,6513.812290,3753.867940
191.660389,6217.729913,10362.883188,3370.820191
191.660710,5773.606348,14285.974681,2911.162892
191.661031,5995.668130,14878.139434,2298.286494
191.661352,9030.512492,15174.221811,2221.676944
191.661672,9548.656652,14359.995275,3753.867940
191.661993,5625.565159,10881.027347,4519.963438
191.662314,3256.906145,5773.606348,5362.668486
191.662635,4515.256246,3330.926739,7048.078582
191.662955,1036.288319,2960.823768,8656.879127
191.663276,1628.453072,4589.276840,6205.373534
191.663597,3256.906145,5847.626942,3677.258390
191.663917,4737.318029,6365.771101,4673.182538
191.664238,4071.132681,5625.565159,7201.297681
191.664559,6439.791695,5329.482782,8886.707777
191.664880,7105.977043,8512.368333,7431.126331
191.665200,3997.112087,11843.295072,5439.278036
191.665521,3108.864956,11177.109724,4519.963438
191.665842,6439.791695,9178.553681,2987.772442
191.666163,6143.709319,7328.038826,4596.572988
191.666483,4663.297435,5773.606348,6971.469032
191.666804,6365.771101,7105.977043,8197.221829
191.667125,2590.720797,7846.182985,7201.297681
191.667446,666.185348,7994.224174,6358.592633
191.667766,3552.988522,6365.771101,6894.859482
191.668087,5477.523971,4071.132681,7507.735880
191.668408,2368.659014,3108.864956,8427.050478
191.668729,5107.421000,5625.565159,8120.612279
191.669049,6365.771101,8808.450710,6665.030833
191.669370,3997.112087,10510.924376,5592.497135
191.669691,2146.597232,8956.491898,5362.668486
191.670012,4293.194464,7105.977043,5362.668486
191.670332,3108.864956,6143.709319,6741.640382
191.670653,1924.535449,5477.523971,8733.488677
191.670974,5625.565159,8142.265362,8503.660028
191.671295,4589.276840,11769.274478,5439.278036
191.671615,3256.906145,13323.706956,3753.867940
191.671936,5181.441594,11769.274478,2987.772442
191.672257,6735.874072,8290.306550,2681.334243
191.672578,3997.112087,3404.947333,5132.839837
191.672898,4737.318029,1258.350101,7431.126331
191.673219,7031.956449,3182.885551,7354.516781
191.673540,4959.379811,5403.503377,7354.516781
191.673861,4515.256246,6513.812290,3907.087040
191.674181,6587.832884,9400.615463,1991.848295
191.674502,6365.771101,11325.150913,3983.696590
191.674823,5403.503377,11473.192101,6894.859482
191.675144,8956.491898,10955.047942,6741.640382
191.675464,7846.182985,9844.739029,3600.648841
191.675785,3923.091493,7550.100608,1838.629195
191.676106,2220.617826,6069.688724,1991.848295
191.676427,4737.318029,7179.997637,3830.477490
191.676747,3256.906145,8882.471304,5898.935335
191.677068,3775.050304,10288.862594,5362.668486
191.677389,6513.812290,11103.089130,3983.696590
191.677709,6217.729913,12509.480420,4903.011187
191.678030,3849.070898,11843.295072,6588.421283
191.678351,4367.215058,9548.656652,5975.544884
191.678672,4737.318029,8734.430116,5209.449386
191.678992,3997.112087,8364.327145,5669.106685
191.679313,4959.379811,7846.182985,6281.983084
191.679634,7031.956449,8364.327145,5362.668486
191.679955,6735.874072,9696.697840,4596.572988
191.680275,5329.482782,9622.677246,4979.620737
191.680596,6661.853478,7254.018232,6128.763984
191.680917,8290.306550,5847.626942,5975.544884
191.681238,6735.874072,6143.709319,5669.106685
191.681558,5477.523971,7105.977043,2834.553343
191.681879,6883.915261,8512.368333,1149.143247
191.682200,7846.182985,9844.739029,2374.896044
191.682521,7772.162391,9548.656652,4749.792088
191.682841,7920.203579,8512.368333,4136.915689
191.683162,5551.544565,8734.430116,3140.991542
191.683483,1998.556043,9548.656652,3830.477490
191.683804,1480.411884,7550.100608,5362.668486
191.684124,2664.741391,5033.400406,4903.011187
191.684445,3997.112087,4367.215058,4826.401637
191.684766,2738.761985,6735.874072,6052.154434
191.685087,1110.308913,9992.780217,5898.935335
191.685407,0.000000,10732.986159,5132.839837
191.685728,1184.329507,9474.636058,5362.668486
191.686049,4071.132681,7846.182985,5822.325785
191.686369,5181.441594,7698.141797,5822.325785
191.686690,4293.194464,10066.800811,6052.154434
191.687011,2220.617826,11103.089130,4596.572988
191.687332,2220.617826,8438.347739,3600.648841
191.687652,5033.400406,5181.441594,4826.401637
191.687973,6217.729913,4219.173869,6511.811733
191.688294,5477.523971,5403.503377,4749.792088
191.688614,4663.297435,7105.977043,2145.067394
191.688935,5477.523971,7105.977043,1762.019645
191.689256,8364.327145,5625.565159,4060.306139
191.689576,11769.274478,7031.956449,6358.592633
191.689897,10436.903782,10362.883188,6052.154434
191.690218,5033.400406,11325.150913,4519.963438
191.690539,5033.400406,9178.553681,5592.497135
191.690859,7994.224174,6883.915261,7124.688131
191.691180,6735.874072,4663.297435,7124.688131
191.691501,4737.318029,5477.523971,4903.011187
191.691821,3478.967927,8438.347739,2451.505594
191.692142,1628.453072,9326.594869,2451.505594
191.692463,2738.761985,7105.977043,4903.011187
191.692784,6143.709319,7105.977043,5209.449386
191.693104,5255.462188,9474.636058,5362.668486
191.693425,2368.659014,12287.418637,5669.106685
191.693746,3108.864956,12361.439231,5362.668486
191.694066,5477.523971,11029.068536,4979.620737
191.694387,5403.503377,10807.006753,5822.325785
191.694708,4219.173869,9770.718434,6435.202183
191.695029,4441.235652,9252.574275,6052.154434
191.695349,4441.235652,10584.944971,7354.516781
191.695670,3108.864956,8660.409521,6971.469032
191.695991,3256.906145,5107.421000,5975.544884
191.696311,3923.091493,3923.091493,6128.763984
191.696632,3256.906145,6883.915261,6818.249932
191.696953,3330.926739,7920.203579,5515.887586
191.697273,5477.523971,8660.409521,1838.629195
191.697594,5921.647536,7994.224174,1149.143247
191.697915,6735.874072,8512.368333,3370.820191
191.698236,7476.080014,9696.697840,6205.373534
191.698556,6291.750507,9400.615463,4596.572988
191.698877,5551.544565,8586.388927,2757.943793
191.699198,6365.771101,8512.368333,3217.601092
191.699518,5551.544565,6957.935855,4903.011187
191.699839,6069.688724,7179.997637,5592.497135
191.700160,5033.400406,6217.729913,4826.401637
191.700481,3478.967927,3552.988522,2298.286494
191.700801,3701.029710,1628.453072,2298.286494
191.701122,5107.421000,4441.235652,3677.258390
191.701443,3404.947333,5625.565159,2528.115143
191.701763,3997.112087,6143.709319,0.000000
191.702084,6735.874072,8660.409521,383.047749
191.702405,5995.668130,10584.944971,3447.429741
191.702726,5255.462188,7994.224174,4290.134789
191.703046,6143.709319,6883.915261,1302.362347
191.703367,4293.194464,8142.265362,-383.047749
191.703688,4145.153275,8438.347739,2145.067394
191.704008,6513.812290,7179.997637,1762.019645
191.704329,8142.265362,7031.956449,383.047749
191.704650,5773.606348,7846.182985,1455.581446
191.704970,4441.235652,7476.080014,2451.505594
191.705291,4737.318029,5773.606348,3064.381992
191.705612,5477.523971,6291.750507,4596.572988
191.705933,6217.729913,7550.100608,2451.505594
191.706253,5255.462188,6809.894666,-1455.581446
191.706574,4145.153275,6587.832884,-2911.162892
191.706895,5625.565159,9918.759623,229.828649
191.707215,7698.141797,13323.706956,2604.724693
191.707536,6365.771101,11991.336260,306.438199
191.707857,5107.421000,11103.089130,-2298.286494
191.708178,4515.256246,11399.171507,383.047749
191.708498,3552.988522,10436.903782,4136.915689
191.708819,3404.947333,9252.574275,2987.772442
191.709140,4663.297435,9326.594869,76.609550
191.709460,4367.215058,9844.739029,-2451.505594
191.709781,3256.906145,8438.347739,0.000000
191.710102,4367.215058,7920.203579,995.924147
191.710423,3404.947333,6957.935855,1915.238745
191.710743,3997.112087,6217.729913,1149.143247
191.711064,6439.791695,8438.347739,-612.876398
191.711385,6661.853478,10510.924376,-1762.019645
191.711705,5403.503377,11621.233289,0.000000
191.712026,8068.244768,10362.883188,689.485948
191.712347,8068.244768,9770.718434,-842.705048
191.712667,5773.606348,10732.986159,0.000000
191.712988,5551.544565,9622.677246,-1378.971896
191.713309,4737.318029,5403.503377,-3064.381992
191.713630,5033.400406,3478.967927,-1072.533697
191.713950,4737.318029,4071.132681,1915.238745
191.714271,6439.791695,7698.141797,0.000000
191.714592,4515.256246,8142.265362,-2221.676944
191.714912,3849.070898,8586.388927,-2834.553343
191.715233,5773.606348,6513.812290,-919.314598
191.715554,5921.647536,4145.153275,612.876398
191.715875,4885.359217,5403.503377,229.828649
191.716195,6365.771101,9844.739029,-689.485948
191.716516,4959.379811,12509.480420,-2221.676944
191.716837,4959.379811,10288.862594,-2451.505594
191.717157,6957.935855,7994.224174,0.000000
191.717478,6587.832884,8734.430116,1685.410096
191.717799,2960.823768,7328.038826,2681.334243
191.718120,1406.391290,5625.565159,995.924147
191.718440,3552.988522,5921.647536,0.000000
191.718761,4737.318029,8068.244768,2068.457845
191.719082,4367.215058,6957.935855,2681.334243
191.719402,4441.235652,7105.977043,383.047749
191.719723,5329.482782,10362.883188,-153.219100
191.720044,4515.256246,10807.006753,536.266849
191.720365,4885.359217,6661.853478,-306.438199
191.720685,5551.544565,4071.132681,459.657299
191.721006,5773.606348,7031.956449,766.095498
191.721327,4589.276840,9178.553681,-153.219100
191.721647,5995.668130,11325.150913,-3064.381992
191.721968,6883.915261,12879.583391,-2834.553343
191.722289,5625.565159,10436.903782,-306.438199
191.722609,4959.379811,5329.482782,1455.581446
191.722930,5551.544565,4367.215058,1302.362347
191.723251,3404.947333,6143.709319,-536.266849
191.723572,2072.576638,5625.565159,-2834.553343
191.723892,4071.132681,4367.215058,-3677.258390
191.724213,4885.359217,5329.482782,-1378.971896
191.724534,5477.523971,7031.956449,1149.143247
191.724854,6069.688724,8068.244768,-459.657299
191.725175,6143.709319,10584.944971,-3600.648841
191.725496,5625.565159,12435.459826,-2834.553343
191.725817,5255.462188,8956.491898,-1608.800546
191.726137,6291.750507,5921.647536,-1991.848295
191.726458,4959.379811,6587.832884,-1378.971896
191.726779,3552.988522,9030.512492,-919.314598
191.727099,4071.132681,9104.533087,-2451.505594
191.727420,4663.297435,7994.224174,-3753.867940
191.727741,4737.318029,8364.327145,-1225.752797
191.728062,3330.926739,6957.935855,1072.533697
191.728382,3552.988522,5107.421000,383.047749
191.728703,4589.276840,5773.606348,-995.924147
191.729024,4959.379811,8808.450710,-1838.629195
191.729344,4441.235652,7624.121203,-2298.286494
191.729665,6735.874072,7772.162391,-2681.334243
191.729986,8512.368333,11029.068536,-1762.019645
191.730306,8142.265362,14508.036463,-1915.238745
191.730627,8586.388927,15174.221811,-2834.553343
191.730948,7402.059420,12065.356855,-2221.676944
191.731269,7105.977043,9770.718434,1838.629195
191.731589,6217.729913,8290.306550,5515.887586
191.731910,5181.441594,7994.224174,2987.772442
191.732231,1184.329507,5699.585753,-842.705048
191.732551,3182.885551,5699.585753,-1378.971896
191.732872,6291.750507,6365.771101,229.828649
191.733193,5477.523971,6439.791695,0.000000
191.733514,5329.482782,7698.141797,-229.828649
191.733834,5329.482782,8586.388927,-1225.752797
191.734155,5699.585753,8512.368333,-1608.800546
191.734476,6735.874072,9400.615463,306.438199
191.734796,7328.038826,11103.089130,76.609550
191.735117,6365.771101,12435.459826,-383.047749
191.735438,6439.791695,12583.501014,229.828649
191.735759,5477.523971,11251.130318,1072.533697
191.736079,2738.761985,7105.977043,995.924147
191.736400,1776.494261,3701.029710,459.657299
191.736721,1258.350101,1776.494261,459.657299
191.737041,0.000000,2812.782580,0.000000
191.737362,1258.350101,4441.235652,0.000000
191.737683,4737.318029,5699.585753,-1149.143247
191.738003,4367.215058,6735.874072,-1685.410096
191.738324,4071.132681,7994.224174,-153.219100
191.738645,5181.441594,9992.780217,536.266849
191.738966,6809.894666,9548.656652,76.609550
191.739286,7328.038826,9622.677246,-612.876398
191.739607,4959.379811,8216.285956,-2528.115143
191.739928,4441.235652,6587.832884,-2911.162892
191.740248,5847.626942,7105.977043,229.828649
191.740569,4885.359217,7328.038826,919.314598
191.740890,2812.782580,6217.729913,-612.876398
191.741211,3256.906145,5551.544565,-1532.190996
191.741531,2960.823768,5033.400406,1532.190996
191.741852,2886.803174,4663.297435,3983.696590
191.742173,5551.544565,5255.462188,2604.724693
191.742493,3997.112087,6957.935855,-2451.505594
191.742814,2738.761985,7698.141797,-3983.696590
191.743135,5329.482782,7846.182985,-689.485948
191.743456,9622.677246,9918.759623,1915.238745
191.743776,7920.203579,11843.295072,919.314598
191.744097,3701.029710,12879.583391,-2451.505594
191.744418,5847.626942,12805.562797,-3447.429741
191.744738,6513.812290,11103.089130,0.000000
191.745059,5995.668130,9178.553681,1838.629195
191.745380,4959.379811,7328.038826,766.095498
191.745700,3775.050304,5847.626942,0.000000
191.746021,1184.329507,6069.688724,1225.752797
191.746342,3627.009116,7105.977043,2145.067394
191.746663,5255.462188,7328.038826,153.219100
191.746983,4367.215058,7402.059420,-1762.019645
191.747304,4959.379811,9030.512492,-919.314598
191.747625,5551.544565,8808.450710,-995.924147
191.747945,6661.853478,9400.615463,-1072.533697
191.748266,7698.141797,11473.192101,-1149.143247
191.748587,5773.606348,11695.253884,-3140.991542
191.748908,6069.688724,11917.315666,-3064.381992
191.749228,6809.894666,11473.192101,-689.485948
191.749549,5995.668130,9622.677246,-1685.410096
191.749870,5255.462188,6513.812290,-1149.143247
191.750190,6291.750507,7105.977043,689.485948
191.750511,3404.947333,7105.977043,1225.752797
191.750832,2442.679609,5847.626942,689.485948
191.751153,3182.885551,3701.029710,-766.095498
191.751473,3923.091493,2590.720797,-995.924147
191.751794,4959.379811,5181.441594,919.314598
191.752115,4663.297435,7994.224174,-536.266849
191.752435,3552.988522,7698.141797,-4903.011187
191.752756,6143.709319,9770.718434,-4136.915689
191.753077,8364.327145,13101.645173,-842.705048
191.753397,5403.503377,11917.315666,1225.752797
191.753718,5181.441594,9992.780217,-766.095498
191.754039,7105.977043,10288.862594,-2757.943793
191.754360,3552.988522,8216.285956,-1915.238745
191.754680,2738.761985,5847.626942,766.095498
191.755001,5699.585753,5921.647536,1532.190996
191.755322,4589.276840,7624.121203,842.705048
191.755642,1036.288319,6957.935855,383.047749
191.755963,2368.659014,4885.359217,0.000000
191.756284,3701.029710,4885.359217,1225.752797
191.756605,4663.297435,6587.832884,3217.601092
191.756925,6069.688724,8142.265362,919.314598
191.757246,5477.523971,8734.430116,-4826.401637
191.757567,6217.729913,12583.501014,-2834.553343
191.757887,7254.018232,13841.851115,2834.553343
191.758208,7698.141797,11325.150913,2681.334243
191.758529,5921.647536,8290.306550,-689.485948
191.758850,4219.173869,7994.224174,-1991.848295
191.759170,3478.967927,7994.224174,383.047749
191.759491,4219.173869,6513.812290,3140.991542
191.759812,4071.132681,5329.482782,2374.896044
191.760132,3775.050304,5107.421000,-459.657299
191.760453,4515.256246,7328.038826,153.219100
191.760774,3108.864956,7031.956449,1532.190996
191.761094,3775.050304,5181.441594,459.657299
191.761415,6291.750507,6143.709319,-995.924147
191.761736,7920.203579,9400.615463,-2528.115143
191.762057,5477.523971,11251.130318,-995.924147
191.762377,6513.812290,11769.274478,919.314598
191.762698,8216.285956,12583.501014,306.438199
191.763019,6365.771101,10732.986159,-383.047749
191.763339,4293.194464,8364.327145,-76.609550
191.763660,3775.050304,5773.606348,842.705048
191.763981,3034.844362,4219.173869,1915.238745
191.764302,2516.700203,3552.988522,2145.067394
191.764622,3552.988522,4145.153275,612.876398
191.764943,3552.988522,6217.729913,76.609550
191.765264,2812.782580,7846.182985,1302.362347
191.765584,4441.235652,8808.450710,0.000000
191.765905,5255.462188,7254.018232,-1915.238745
191.766226,5773.606348,6883.915261,-1608.800546
191.766547,6587.832884,9548.656652,919.314598
191.766867,6957.935855,13323.706956,995.924147
191.767188,4811.338623,14285.974681,-766.095498
191.767509,5699.585753,11621.233289,-1915.238745
191.767829,6143.709319,9326.594869,-229.828649
191.768150,4737.318029,7105.977043,2604.724693
191.768471,2886.803174,4959.379811,2298.286494
191.768792,3552.988522,4737.318029,-689.485948
191.769112,2516.700203,4515.256246,-1149.143247
191.769433,3849.070898,6439.791695,1455.581446
191.769754,5847.626942,9030.512492,2681.334243
191.770074,5477.523971,9548.656652,1225.752797
191.770395,4367.215058,7994.224174,0.000000
191.770716,7179.997637,8364.327145,-536.266849
191.771036,6957.935855,8660.409521,-459.657299
191.771357,5255.462188,9696.697840,-383.047749
191.771678,6957.935855,11325.150913,-1838.629195
191.771999,7772.162391,12509.480420,-1762.019645
191.772319,6291.750507,11695.253884,306.438199
191.772640,4145.153275,7476.080014,2068.457845
191.772961,4071.132681,4589.276840,766.095498
191.773281,1110.308913,2960.823768,536.266849
191.773602,1406.391290,3627.009116,0.000000
191.773923,3330.926739,4219.173869,-383.047749
191.774244,4885.359217,5477.523971,-612.876398
191.774564,4441.235652,7624.121203,-1685.410096
191.774885,6069.688724,9918.759623,-2145.067394
191.775206,4959.379811,9400.615463,-459.657299
191.775526,6587.832884,8586.388927,0.000000
191.775847,9400.615463,10584.944971,-1302.362347
191.776168,6735.874072,11769.274478,-3064.381992
191.776489,4737.318029,10140.821405,-2528.115143
191.776809,6365.771101,10066.800811,383.047749
191.777130,6661.853478,9918.759623,3064.381992
191.777451,3256.906145,7031.956449,1915.238745
191.777771,3034.844362,3775.050304,-1149.143247
191.778092,1850.514855,2516.700203,-1608.800546
191.778413,1924.535449,4367.215058,2451.505594
191.778733,4663.297435,7031.956449,3830.477490
191.779054,4737.318029,7105.977043,-1225.752797
191.779375,3256.906145,7402.059420,-3830.477490
191.779696,5403.503377,8438.347739,-1225.752797
191.780016,7328.038826,11251.130318,0.000000
191.780337,7624.121203,13545.768739,-1072.533697
191.780658,7031.956449,13545.768739,-1302.362347
191.780978,7550.100608,11917.315666,-1991.848295
191.781299,6809.894666,10288.862594,459.657299
191.781620,4959.379811,8882.471304,2757.943793
191.781941,3552.988522,6217.729913,1149.143247
191.782261,4441.235652,6365.771101,0.000000
191.782582,3256.906145,6513.812290,612.876398
191.782903,2664.741391,5107.421000,1072.533697
191.783223,5477.523971,4515.256246,2068.457845
191.783544,4441.235652,4811.338623,2298.286494
191.783865,3330.926739,6809.894666,689.485948
191.784186,3775.050304,7994.224174,-1608.800546
191.784506,6143.709319,9474.636058,-3447.429741
191.784827,7179.997637,11621.233289,-2068.457845
191.785148,8586.388927,13693.809927,689.485948
191.785468,7105.977043,13915.871710,1149.143247
191.785789,4663.297435,10732.986159,-306.438199
191.786110,3404.947333,7772.162391,-1608.800546
191.786430,3330.926739,5181.441594,-306.438199
191.786751,2960.823768,4145.153275,2528.115143
191.787072,2146.597232,4811.338623,3983.696590
191.787393,4737.318029,6957.935855,1838.629195
191.787716,3775.050304,7328.038826,459.657299
191.788036,2368.659014,5107.421000,689.485948
191.788357,4293.194464,4515.256246,2221.676944
191.788678,5995.668130,6069.688724,3064.381992
191.788998,5403.503377,7328.038826,459.657299
191.789319,7179.997637,8512.368333,-3217.601092
191.789640,7698.141797,10288.862594,-3753.867940
191.789960,6365.771101,11177.109724,-1302.362347
191.790281,8438.347739,12361.439231,229.828649
191.790602,7550.100608,11177.109724,-1072.533697
191.790922,3108.864956,7328.038826,-1915.238745
191.791243,3923.091493,4589.276840,842.705048
191.791564,5625.565159,4737.318029,2374.896044
191.791884,2220.617826,4219.173869,1762.019645
191.792205,2590.720797,5181.441594,995.924147
191.792526,6291.750507,7846.182985,-153.219100
191.792846,4145.153275,7476.080014,-459.657299
191.793167,3404.947333,4959.379811,1532.190996
191.793488,6217.729913,4589.276840,1072.533697
191.793808,6439.791695,7476.080014,-153.219100
191.794129,4737.318029,12213.398043,-689.485948
191.794450,6291.750507,14211.954086,-2221.676944
191.794770,7772.162391,13545.768739,-2834.553343
191.795091,6217.729913,10955.047942,383.047749
191.795412,4515.256246,8290.306550,2298.286494
191.795732,2590.720797,6513.812290,995.924147
191.796053,1628.453072,6365.771101,0.000000
191.796374,2590.720797,6735.874072,-842.705048
191.796694,3182.885551,5995.668130,-536.266849
191.797015,4367.215058,6809.894666,919.314598
191.797336,3330.926739,7031.956449,2298.286494
191.797656,3108.864956,6217.729913,-306.438199
191.797977,4441.235652,5773.606348,-3447.429741
191.798298,5847.626942,8512.368333,-4060.306139
191.798618,6365.771101,10658.965565,-2757.943793
191.798939,8142.265362,11991.336260,-1072.533697
191.799260,9696.697840,13989.892304,0.000000
191.799580,7105.977043,13249.686362,-383.047749
191.799901,7328.038826,11991.336260,-1685.410096
191.800222,6291.750507,9770.718434,-689.485948
191.800542,3923.091493,5847.626942,1532.190996
191.800863,3775.050304,3182.885551,2911.162892
191.801184,5107.421000,2812.782580,1378.971896
191.801504,2072.576638,2442.679609,-1072.533697
191.801825,2812.782580,4367.215058,153.219100
191.802146,7328.038826,8216.285956,306.438199
191.802466,5033.400406,7179.997637,-2374.896044
191.802787,6735.874072,8438.347739,-3753.867940
191.803108,10510.924376,13471.748144,-1838.629195
191.803428,8438.347739,14508.036463,0.000000
191.803749,5847.626942,12139.377449,153.219100
191.804070,8808.450710,11029.068536,-1302.362347
191.804390,6957.935855,9548.656652,-1225.752797
191.804711,3478.967927,8142.265362,2757.943793
191.805032,4293.194464,6735.874072,2987.772442
191.805352,2738.761985,5329.482782,0.000000
191.805673,1332.370696,4441.235652,306.438199
191.805994,1406.391290,3256.906145,536.266849
191.806314,2072.576638,2516.700203,0.000000
191.806635,3330.926739,6735.874072,1455.581446
191.806956,4885.359217,9918.759623,612.876398
191.807276,5329.482782,10140.821405,-2451.505594
191.807597,6069.688724,10362.883188,-919.314598
191.807918,6809.894666,12583.501014,1302.362347
191.808238,4811.338623,12509.480420,-76.609550
191.808559,4885.359217,9104.533087,-1991.848295
191.808880,5181.441594,8068.244768,-1991.848295
191.809200,2590.720797,6143.709319,0.000000
191.809521,4293.194464,7402.059420,2068.457845
191.809842,3701.029710,6661.853478,1225.752797
191.810162,1184.329507,4885.359217,-1302.362347
191.810483,2072.576638,3701.029710,-229.828649
191.810804,5699.585753,3404.947333,1149.143247
191.811124,4441.235652,3034.844362,-383.047749
191.811445,5403.503377,5921.647536,-1608.800546
191.811766,7328.038826,9474.636058,-995.924147
191.812086,7328.038826,10584.944971,-2221.676944
191.812407,7698.141797,10881.027347,-2451.505594
191.812728,7179.997637,11251.130318,-2145.067394
191.813048,7476.080014,11029.068536,0.000000
191.813369,6957.935855,10066.800811,2451.505594
191.813690,4071.132681,7624.121203,153.219100
191.814010,2812.782580,4959.379811,-2528.115143
191.814331,4071.132681,5107.421000,-1072.533697
191.814652,3552.988522,5255.462188,0.000000
191.814972,2368.659014,4071.132681,229.828649
191.815293,6365.771101,7550.100608,919.314598
191.815614,6513.812290,9770.718434,0.000000
191.815934,3478.967927,6735.874072,-2221.676944
191.816255,4959.379811,5033.400406,-1838.629195
191.816576,8512.368333,9622.677246,-536.266849
191.816896,6513.812290,12583.501014,-612.876398
191.817217,6069.688724,12879.583391,-1762.019645
191.817538,8142.265362,13915.871710,-1915.238745
191.817858,6883.915261,13101.645173,0.000000
191.818179,5107.421000,10732.986159,1532.190996
191.818500,3849.070898,7105.977043,-459.657299
191.818820,2516.700203,5403.503377,-1915.238745
191.819141,2368.659014,5551.544565,1685.410096
191.819462,4811.338623,6291.750507,3064.381992
191.819782,5033.400406,5773.606348,2221.676944
191.820103,3701.029710,7105.977043,995.924147
191.820424,5403.503377,8438.347739,-766.095498
191.820744,4145.153275,7031.956449,-3217.601092
191.821065,5773.606348,7328.038826,-2221.676944
191.821386,9178.553681,9770.718434,612.876398
191.821706,7994.224174,11399.171507,-153.219100
191.822027,4589.276840,11843.295072,-2068.457845
191.822348,4959.379811,11695.253884,-2374.896044
191.822668,6291.750507,10881.027347,-2145.067394
191.822989,4737.318029,7105.977043,153.219100
191.823310,3701.029710,4293.194464,842.705048
191.823630,2664.741391,3552.988522,306.438199
191.823951,2664.741391,4811.338623,76.609550
191.824272,2220.617826,4737.318029,0.000000
191.824592,2368.659014,4737.318029,-1915.238745
191.824913,3997.112087,6587.832884,-1838.629195
191.825234,4367.215058,7254.018232,-995.924147
191.825554,4441.235652,6069.688724,-1225.752797
191.825875,6069.688724,7031.956449,-2068.457845
191.826196,6069.688724,10584.944971,-4213.525239
191.826516,6217.729913,13323.706956,-3677.258390
191.826837,6809.894666,11917.315666,-919.314598
191.827158,7402.059420,10584.944971,-459.657299
191.827478,5625.565159,9104.533087,-306.438199
191.827799,3108.864956,7031.956449,1302.362347
191.828120,2072.576638,4145.153275,1608.800546
191.828440,3478.967927,2886.803174,1225.752797
191.828761,2886.803174,3923.091493,536.266849
191.829082,3997.112087,5477.523971,-919.314598
191.829402,5033.400406,7179.997637,-1378.971896
191.829723,5255.462188,9696.697840,689.485948
191.830044,5773.606348,11029.068536,1455.581446
191.830364,7994.224174,11695.253884,-689.485948
191.830685,6809.894666,11843.295072,-2298.286494
191.831006,4441.235652,10732.986159,0.000000
191.831326,7105.977043,11917.315666,1915.238745
191.831647,7698.141797,13249.686362,1149.143247
191.831968,4959.379811,11991.336260,-766.095498
191.832288,4145.153275,9622.677246,-153.219100
191.832609,4441.235652,6809.894666,1532.190996
191.832930,3034.844362,4367.215058,3294.210641
191.833250,3478.967927,3552.988522,3370.820191
191.833571,5181.441594,5403.503377,919.314598
191.833892,4293.194464,7402.059420,76.609550
191.834212,5329.482782,8734.430116,919.314598
191.834533,6735.874072,7476.080014,0.000000
191.834854,8956.491898,8660.409521,-1532.190996
191.835174,7698.141797,11029.068536,-919.314598
191.835495,5699.585753,11177.109724,-1762.019645
191.835816,4885.359217,9400.615463,-1915.238745
191.836136,6809.894666,9326.594869,-459.657299
191.836457,5329.482782,8290.306550,1072.533697
191.836778,2146.597232,5329.482782,1149.143247
191.837098,2368.659014,4367.215058,-536.266849
191.837419,1406.391290,4367.215058,-3447.429741
191.837740,1406.391290,3775.050304,-2451.505594
191.838060,4071.132681,3997.112087,1302.362347
191.838381,4959.379811,4663.297435,1455.581446
191.838702,4441.235652,6217.729913,-842.705048
191.839022,4293.194464,8660.409521,-2068.457845
191.839343,5255.462188,8882.471304,-2451.505594
191.839664,6513.812290,9474.636058,-153.219100
191.839984,7105.977043,10658.965565,919.314598
191.840305,5403.503377,10362.883188,-1302.362347
191.840626,5995.668130,9770.718434,-2298.286494
191.840946,4145.153275,8512.368333,-459.657299
191.841267,3256.906145,6587.832884,1532.190996
191.841588,5329.482782,7105.977043,1838.629195
191.841908,3478.967927,7254.018232,536.266849
191.842229,1332.370696,4515.256246,-229.828649
191.842550,4441.235652,4071.132681,1302.362347
191.842870,6513.812290,6809.894666,1302.362347
191.843191,4589.276840,7994.224174,-1225.752797
191.843512,4663.297435,8216.285956,-3524.039291
191.843832,7698.141797,10955.047942,-3830.477490
191.844153,7624.121203,12065.356855,-995.924147
191.844474,8956.491898,14137.933492,842.705048
191.844794,8290.306550,12657.521608,-1685.410096
191.845115,7031.956449,12213.398043,-2681.334243
191.845436,5921.647536,12139.377449,0.000000
191.845756,5921.647536,11251.130318,1302.362347
191.846077,4071.132681,7179.997637,1149.143247
191.846398,2442.679609,4145.153275,1608.800546
191.846718,3478.967927,4737.318029,1762.019645
191.847039,2146.597232,5107.421000,919.314598
191.847360,1776.494261,5107.421000,229.828649
191.847680,4219.173869,7179.997637,-383.047749
191.848001,6587.832884,9178.553681,-689.485948
191.848322,5033.400406,9696.697840,-459.657299
191.848642,5551.544565,9178.553681,-919.314598
191.848963,7402.059420,11473.192101,-2374.896044
191.849284,7550.100608,13693.809927,-1072.533697
191.849604,5403.503377,11843.295072,-383.047749
191.849925,7179.997637,9178.553681,-1455.581446
191.850246,7772.162391,8734.430116,-306.438199
191.850566,3552.988522,6661.853478,2604.724693
191.850887,2368.659014,2886.803174,1608.800546
191.851208,3256.906145,2886.803174,995.924147
191.851528,2368.659014,3701.029710,1608.800546
191.851849,3849.070898,4071.132681,2528.115143
191.852170,4737.318029,5107.421000,1072.533697
191.852490,4441.235652,6439.791695,0.000000
191.852811,4737.318029,8438.347739,153.219100
191.853132,8586.388927,12065.356855,-1302.362347
191.853452,5921.647536,12435.459826,-3064.381992
191.853773,3552.988522,10362.883188,-1838.629195
191.854094,6957.935855,8512.368333,612.876398
191.854414,7846.182985,9252.574275,1838.629195
191.854735,3923.091493,10955.047942,1225.752797
191.855056,1924.535449,9992.780217,-612.876398
191.855376,3404.947333,7698.141797,0.000000
191.855697,2516.700203,4589.276840,4826.401637
191.856018,3552.988522,2886.803174,6818.249932
191.856338,3404.947333,2368.659014,2834.553343
191.856659,3108.864956,4737.318029,-459.657299
191.856980,2664.741391,7254.018232,0.000000
191.857300,4959.379811,6513.812290,919.314598
191.857621,8586.388927,7254.018232,689.485948
191.857942,7994.224174,10288.862594,76.609550
191.858262,6365.771101,13397.727550,-1072.533697
191.858583,5477.523971,12731.542202,-1072.533697
191.858904,7476.080014,10658.965565,-229.828649
191.859224,6513.812290,8142.265362,-536.266849
191.859545,5181.441594,6291.750507,-306.438199
191.859866,3478.967927,5625.565159,76.609550
191.860186,1702.473667,4737.318029,-612.876398
191.860507,3923.091493,4737.318029,-612.876398
191.860828,5181.441594,4589.276840,0.000000
191.861148,5181.441594,4589.276840,-459.657299
191.861469,4737.318029,6217.729913,-995.924147
191.861790,5625.565159,8142.265362,-766.095498
191.862110,5921.647536,8808.450710,-1149.143247
191.862431,7624.121203,9548.656652,-1455.581446
191.862752,6809.894666,12287.418637,-1608.800546
191.863072,4737.318029,11843.295072,-1225.752797
191.863393,6069.688724,10955.047942,-842.705048
191.863714,5847.626942,10658.965565,-1532.190996
191.864034,3108.864956,8956.491898,-1072.533697
191.864355,2664.741391,8438.347739,229.828649
191.864676,3701.029710,8290.306550,1915.238745
191.864996,222.061783,5625.565159,1838.629195
191.865317,1110.308913,3256.906145,842.705048
191.865638,5181.441594,5551.544565,-689.485948
191.865958,3552.988522,8216.285956,-1149.143247
191.866279,4441.235652,9400.615463,-1225.752797
191.866600,7920.203579,9548.656652,-2068.457845
191.866920,8956.491898,10066.800811,-766.095498
191.867241,7698.141797,11695.253884,1455.581446
191.867562,8142.265362,12287.418637,0.000000
191.867882,8290.306550,11473.192101,-4443.353888
191.868203,7476.080014,11251.130318,-3370.820191
191.868524,9326.594869,10362.883188,-459.657299
191.868844,6957.935855,7031.956449,1685.410096
191.869165,4959.379811,4811.338623,2757.943793
191.869486,5181.441594,5699.585753,1225.752797
191.869806,2812.782580,5255.462188,-1608.800546
191.870127,2368.659014,4071.132681,-459.657299
191.870448,5921.647536,5625.565159,1608.800546
191.870768,7476.080014,8216.285956,689.485948
191.871089,3923.091493,6883.915261,-919.314598
191.871410,4959.379811,7402.059420,-2528.115143
191.871730,6291.750507,12139.377449,-2451.505594
191.872051,5625.565159,14730.098246,766.095498
191.872372,4811.338623,12509.480420,383.047749
191.872692,6883.915261,9918.759623,-2298.286494
191.873013,5181.441594,10214.842000,383.047749
191.873333,1406.391290,7476.080014,4749.792088
191.873654,1480.411884,4441.235652,3370.820191
191.873975,888.247130,3849.070898,306.438199
191.874295,222.061783,3404.947333,0.000000
191.874616,3108.864956,3034.844362,612.876398
191.874937,4737.318029,3775.050304,1149.143247
191.875257,3552.988522,7031.956449,842.705048
191.875578,4811.338623,8364.327145,0.000000
191.875899,7328.038826,9770.718434,-2298.286494
191.876219,5921.647536,10436.903782,-1915.238745
191.876540,5847.626942,10066.800811,-153.219100
191.876861,7476.080014,9770.718434,-842.705048
191.877181,7402.059420,10066.800811,-1838.629195
191.877502,5625.565159,11103.089130,-842.705048
191.877823,5847.626942,9918.759623,229.828649
191.878143,5107.421000,6513.812290,1378.971896
191.878464,1406.391290,2516.700203,2604.724693
191.878785,2590.720797,2146.597232,2681.334243
191.879105,4293.194464,3404.947333,1838.629195
191.879426,4441.235652,5995.668130,0.000000
191.879747,4737.318029,7328.038826,-1149.143247
191.880067,6513.812290,6217.729913,-1608.800546
191.880388,6957.935855,6883.915261,1072.533697
191.880709,7624.121203,9992.780217,1991.848295
191.881029,6735.874072,12805.562797,0.000000
191.881350,4737.318029,12361.439231,-4366.744339
191.881671,7179.997637,11547.212695,-4213.525239
191.881991,7476.080014,10658.965565,536.266849
191.882312,5847.626942,8808.450710,2987.772442
191.882633,4367.215058,6513.812290,1072.533697
191.882953,1924.535449,6069.688724,-3140.991542
191.883274,962.267725,5551.544565,-2681.334243
191.883595,4071.132681,4663.297435,2145.067394
191.883915,7179.997637,4959.379811,2681.334243
191.884236,6587.832884,7402.059420,-766.095498
191.884557,4737.318029,10288.862594,-4213.525239
191.884877,3256.906145,9622.677246,-4366.744339
191.885198,7254.018232,9252.574275,-306.438199
191.885519,9548.656652,11547.212695,2298.286494
191.885839,6513.812290,13767.830521,-459.657299
191.886160,5107.421000,13323.706956,-3677.258390
191.886481,4441.235652,11917.315666,-2374.896044
191.886801,4959.379811,10658.965565,2374.896044
191.887122,4293.194464,7105.977043,3753.867940
191.887443,2960.823768,4441.235652,919.314598
191.887764,-444.123565,3108.864956,-1685.410096
191.888084,370.102971,4145.153275,689.485948
191.888405,4071.132681,6957.935855,995.924147
191.888726,5773.606348,7772.162391,-919.314598
191.889046,5255.462188,9400.615463,-2374.896044
191.889367,5551.544565,10658.965565,-1915.238745
191.889688,7105.977043,9992.780217,-1149.143247
191.890008,6735.874072,9474.636058,-459.657299
191.890329,8142.265362,10140.821405,-1378.971896
191.890650,7698.141797,11769.274478,-2451.505594
191.890970,5921.647536,11399.171507,-1991.848295
191.891291,5921.647536,9844.739029,-842.705048
191.891612,6217.729913,6439.791695,766.095498
191.891933,4145.153275,2812.782580,1532.190996
191.892253,1924.535449,1480.411884,766.095498
191.892574,1554.432478,2590.720797,-1915.238745
191.892895,3182.885551,4515.256246,-2374.896044
191.893215,5255.462188,5995.668130,0.000000
191.893536,7031.956449,6439.791695,612.876398
191.893857,5847.626942,7105.977043,153.219100
191.894177,5995.668130,10140.821405,-1302.362347
191.894498,5329.482782,12657.521608,-3370.820191
191.894819,6587.832884,11843.295072,-3064.381992
191.895139,5255.462188,8882.471304,-1225.752797
191.895460,7254.018232,8512.368333,995.924147
191.895781,7254.018232,10066.800811,1608.800546
191.896101,1924.535449,8438.347739,-229.828649
191.896422,740.205942,6809.894666,-2451.505594
191.896743,3108.864956,6365.771101,229.828649
191.897064,4145.153275,5403.503377,3983.696590
191.897384,4959.379811,3627.009116,4903.011187
191.897705,5477.523971,5329.482782,842.705048
191.898026,2516.700203,7550.100608,-2145.067394
191.898346,3775.050304,8142.265362,-536.266849
191.898667,7254.018232,9178.553681,689.485948
191.898988,7920.203579,10066.800811,-229.828649
191.899308,7920.203579,12287.418637,-383.047749
191.899629,6365.771101,12435.459826,-1378.971896
191.899950,6069.688724,12139.377449,-1762.019645
191.900270,5033.400406,10807.006753,306.438199
191.900591,6143.709319,8956.491898,919.314598
191.900912,4515.256246,6513.812290,689.485948
191.901233,3182.885551,5255.462188,2681.334243
191.901553,3108.864956,5699.585753,3294.210641
191.901874,3627.009116,4959.379811,2068.457845
191.902195,3923.091493,5995.668130,919.314598
191.902515,2812.782580,6587.832884,0.000000
191.902836,4663.297435,6513.812290,-612.876398
191.903157,5921.647536,7105.977043,-689.485948
191.903477,6883.915261,9474.636058,-689.485948
191.903798,5699.585753,11843.295072,-919.314598
191.904119,5847.626942,13471.748144,-1685.410096
191.904439,5033.400406,11843.295072,-2298.286494
191.904760,3849.070898,8956.491898,-842.705048
191.905081,5551.544565,7476.080014,766.095498
191.905402,3775.050304,5625.565159,536.266849
191.905722,2516.700203,5921.647536,-536.266849
191.906043,2664.741391,6291.750507,-1378.971896
191.906364,3478.967927,4515.256246,-689.485948
191.906684,5255.462188,2664.741391,689.485948
191.907005,5773.606348,4737.318029,1532.190996
191.907326,5033.400406,6365.771101,1685.410096
191.907646,4071.132681,6661.853478,-1685.410096
191.907967,8290.306550,9326.594869,-4213.525239
191.908288,8660.409521,12287.418637,-1608.800546
191.908608,8068.244768,12583.501014,1149.143247
191.908929,8882.471304,11473.192101,536.266849
191.909250,6661.853478,9992.780217,-612.876398
191.909571,2664.741391,7698.141797,-689.485948
191.909891,3552.988522,5699.585753,0.000000
191.910212,3997.112087,5255.462188,0.000000
191.910533,2368.659014,5551.544565,306.438199
191.910853,3552.988522,7031.956449,-383.047749
191.911174,5181.441594,8586.388927,-2221.676944
191.911495,1924.535449,7476.080014,-842.705048
191.911815,2516.700203,7698.141797,536.266849
191.912136,5847.626942,8216.285956,-306.438199
191.912457,5847.626942,8808.450710,-1302.362347
191.912777,5477.523971,10362.883188,-919.314598
191.913098,8512.368333,13989.892304,-1762.019645
191.913419,5995.668130,14285.974681,-1378.971896
191.913740,5033.400406,12509.480420,0.000000
191.914060,6365.771101,10510.924376,-306.438199
191.914381,4959.379811,5625.565159,-1532.190996
191.914702,2368.659014,4145.153275,0.000000
191.915022,3330.926739,4441.235652,919.314598
191.915343,2664.741391,4959.379811,0.000000
191.915664,2738.761985,5995.668130,919.314598
191.915984,4737.318029,7772.162391,0.000000
191.916305,4515.256246,8290.306550,-2451.505594
191.916626,4737.318029,7328.038826,-1915.238745
191.916946,6957.935855,8438.347739,-459.657299
191.917267,8068.244768,11325.150913,-919.314598
191.917588,6513.812290,13027.624579,-766.095498
191.917908,4885.359217,11695.253884,-2068.457845
191.918229,5329.482782,9400.615463,-2451.505594
191.918550,5551.544565,8660.409521,1762.019645
191.918871,3627.009116,7254.018232,1991.848295
191.919191,3330.926739,6217.729913,-1685.410096
191.919512,3182.885551,5107.421000,-1455.581446
191.919833,3256.906145,5329.482782,1378.971896
191.920153,5033.400406,4959.379811,2834.553343
191.920474,6661.853478,8216.285956,1685.410096
191.920795,4145.153275,9474.636058,-536.266849
191.921115,4959.379811,8586.388927,-2221.676944
191.921436,6957.935855,7772.162391,689.485948
191.921757,8438.347739,8586.388927,3677.258390
191.922077,6735.874072,9252.574275,2451.505594
191.922398,7179.997637,11251.130318,-842.705048
191.922719,4811.338623,10584.944971,-2374.896044
191.923040,4145.153275,9178.553681,-459.657299
191.923360,7624.121203,8364.327145,2298.286494
191.923681,5255.462188,6439.791695,4060.306139
191.924002,2220.617826,4515.256246,3753.867940
191.924322,3552.988522,5403.503377,1762.019645
191.924643,2738.761985,5403.503377,-459.657299
191.924964,1406.391290,4441.235652,-612.876398
191.925284,4885.359217,7328.038826,0.000000
191.925605,6365.771101,9474.636058,0.000000
191.925926,3552.988522,9474.636058,0.000000
191.926246,7031.956449,9696.697840,0.000000
191.926567,7031.956449,10510.924376,-536.266849
191.926888,2960.823768,10362.883188,76.609550
191.927209,4589.276840,11695.253884,1378.971896
191.927529,6957.935855,11917.315666,689.485948
191.927850,3701.029710,7476.080014,383.047749
191.928171,2886.803174,4219.173869,1378.971896
191.928491,5033.400406,3923.091493,1378.971896
191.928812,1480.411884,3775.050304,1685.410096
191.929133,888.247130,3034.844362,1762.019645
191.929453,5625.565159,4663.297435,-306.438199
191.929774,5921.647536,6735.874072,-689.485948
191.930095,4071.132681,7476.080014,842.705048
191.930415,5107.421000,7476.080014,-919.314598
191.930736,7476.080014,9030.512492,-2451.505594
191.931057,6957.935855,10362.883188,-2374.896044
191.931378,6735.874072,9844.739029,-2987.772442
191.931698,5921.647536,8586.388927,-3370.820191
191.932019,6957.935855,9918.759623,-229.828649
191.932340,5773.606348,10510.924376,229.828649
191.932660,5921.647536,8734.430116,-1225.752797
191.932981,4293.194464,6291.750507,-2298.286494
191.933302,3923.091493,4811.338623,-153.219100
191.933622,4145.153275,6365.771101,1532.190996
191.933943,3701.029710,5847.626942,2451.505594
191.934264,2886.803174,5403.503377,766.095498
191.934584,5181.441594,7031.956449,-1838.629195
191.934905,5329.482782,9252.574275,-2604.724693
191.935226,5033.400406,10140.821405,-2145.067394
191.935547,7105.977043,11547.212695,-1378.971896
191.935867,7550.100608,13767.830521,-612.876398
191.936188,5699.585753,14137.933492,-842.705048
191.936509,5995.668130,12213.398043,-1608.800546
191.936829,5033.400406,9992.780217,-383.047749
191.937150,5477.523971,9104.533087,2221.676944
191.937471,5033.400406,9474.636058,2987.772442
191.937791,2812.782580,8216.285956,0.000000
191.938112,444.123565,5329.482782,-919.314598
191.938433,4737.318029,4367.215058,2451.505594
191.938753,5847.626942,6217.729913,3600.648841
191.939074,2368.659014,6661.853478,1532.190996
191.939395,3775.050304,8068.244768,-2757.943793
191.939715,5773.606348,9178.553681,-4136.915689
191.940036,8068.244768,11325.150913,-612.876398
191.940357,9104.533087,13841.851115,2451.505594
191.940678,9474.636058,14508.036463,-689.485948
191.940998,5921.647536,12435.459826,-3140.991542
191.941319,4811.338623,8438.347739,-1225.752797
