#time,accel_x,accel_y,accel_z
591.860355,0.000000,229.828649,9030.512492
591.860677,0.000000,306.438199,9474.636058
591.861000,-222.061783,383.047749,9400.615463
591.861323,-222.061783,229.828649,9400.615463
591.861645,-148.041188,459.657299,9474.636058
591.861968,-296.082377,383.047749,9326.594869
591.862291,0.000000,-0.000000,9326.594869
591.862613,0.000000,-0.000000,9400.615463
591.862936,-148.041188,-0.000000,9030.512492
591.863259,-296.082377,-0.000000,9400.615463
591.863581,0.000000,229.828649,9104.533087
591.863904,-148.041188,229.828649,9400.615463
591.864227,0.000000,-0.000000,9178.553681
591.864549,-296.082377,153.219100,9474.636058
591.864872,-222.061783,229.828649,9400.615463
591.865195,-296.082377,-0.000000,9400.615463
591.865517,-148.041188,-0.000000,9474.636058
591.865840,-296.082377,-0.000000,9622.677246
591.866163,-370.102971,383.047749,9474.636058
591.866485,0.000000,229.828649,9326.594869
591.866808,-296.082377,-153.219100,9474.636058
591.867131,0.000000,229.828649,9400.615463
591.867453,-296.082377,153.219100,9474.636058
591.867776,0.000000,306.438199,9400.615463
591.868099,0.000000,-0.000000,9252.574275
591.868421,-148.041188,459.657299,9400.615463
591.868744,0.000000,383.047749,9474.636058
591.869067,0.000000,153.219100,9326.594869
591.869389,0.000000,-0.000000,9400.615463
591.869712,0.000000,229.828649,9474.636058
591.870035,0.000000,-0.000000,9400.615463
591.870357,-222.061783,153.219100,9400.615463
591.870680,-222.061783,-0.000000,9474.636058
591.871003,-222.061783,-0.000000,9400.615463
591.871325,-296.082377,229.828649,9400.615463
591.871648,0.000000,-0.000000,9474.636058
591.871971,-148.041188,-0.000000,9400.615463
591.872293,0.000000,-0.000000,9252.574275
591.872616,0.000000,153.219100,9400.615463
591.872939,0.000000,689.485948,9474.636058
591.873261,-370.102971,229.828649,9400.615463
591.873584,-222.061783,-0.000000,9104.533087
591.873907,0.000000,-0.000000,9252.574275
591.874229,-296.082377,-0.000000,9326.594869
591.874552,0.000000,153.219100,9178.553681
591.874875,-148.041188,153.219100,9326.594869
591.875197,-370.102971,-0.000000,9474.636058
591.875520,-148.041188,229.828649,9178.553681
591.875843,0.000000,-0.000000,9326.594869
591.876165,-222.061783,306.438199,9252.574275
591.876488,0.000000,-0.000000,9400.615463
591.876810,0.000000,-0.000000,9326.594869
591.877133,-370.102971,-0.000000,9474.636058
591.877456,-296.082377,-0.000000,9474.636058
591.877778,-148.041188,153.219100,9326.594869
591.878101,0.000000,-0.000000,9326.594869
591.878424,-296.082377,229.828649,9400.615463
591.878746,0.000000,-0.000000,9400.615463
591.879069,0.000000,383.047749,9400.615463
591.879392,-148.041188,-0.000000,9400.615463
591.879714,0.000000,-0.000000,9400.615463
591.880037,370.102971,-0.000000,9696.697840
591.880360,-222.061783,229.828649,9474.636058
591.880682,0.000000,229.828649,9474.636058
591.881005,-148.041188,-0.000000,9400.615463
591.881327,0.000000,-229.828649,9400.615463
591.881650,-148.041188,383.047749,9474.636058
591.881973,-148.041188,-0.000000,9400.615463
591.882295,0.000000,-76.609550,9474.636058
591.882618,0.000000,306.438199,9474.636058
591.882940,0.000000,-0.000000,9178.553681
591.883263,0.000000,383.047749,9400.615463
591.883586,-148.041188,-0.000000,9474.636058
591.883908,0.000000,229.828649,9400.615463
591.884231,-148.041188,612.876398,9622.677246
591.884554,-296.082377,-0.000000,9474.636058
591.884876,-370.102971,153.219100,9474.636058
591.885199,-222.061783,229.828649,9400.615463
591.885521,-148.041188,-0.000000,9326.594869
591.885844,0.000000,-0.000000,9400.615463
591.886167,-222.061783,-0.000000,9400.615463
591.886489,0.000000,153.219100,9474.636058
591.886812,0.000000,229.828649,9178.553681
591.887134,0.000000,-153.219100,9252.574275
591.887457,-222.061783,306.438199,9474.636058
591.887780,0.000000,-0.000000,9474.636058
591.888102,-74.020594,306.438199,9400.615463
591.888425,-222.061783,-0.000000,9548.656652
591.888748,-148.041188,-0.000000,9474.636058
591.889070,-222.061783,-0.000000,9474.636058
591.889393,-222.061783,-0.000000,9252.574275
591.889715,0.000000,229.828649,9326.594869
591.890038,-370.102971,306.438199,9548.656652
591.890361,0.000000,306.438199,9252.574275
591.890683,-222.061783,153.219100,9400.615463
591.891006,-148.041188,-0.000000,9474.636058
591.891328,0.000000,-536.266849,9252.574275
591.891651,0.000000,-0.000000,9326.594869
591.891974,-222.061783,-0.000000,9252.574275
591.892296,-296.082377,-0.000000,9400.615463
591.892619,-296.082377,-153.219100,9770.718434
591.892942,-222.061783,306.438199,9474.636058
591.893264,0.000000,229.828649,9400.615463
591.893587,-296.082377,383.047749,9474.636058
591.893909,-518.144159,383.047749,9326.594869
591.894232,-370.102971,306.438199,9326.594869
591.894555,-148.041188,-0.000000,9474.636058
591.894877,-148.041188,-0.000000,9474.636058
591.895200,-296.082377,-0.000000,9400.615463
591.895522,74.020594,-0.000000,9326.594869
591.895845,-296.082377,229.828649,9400.615463
591.896168,-296.082377,383.047749,9474.636058
591.896490,-296.082377,306.438199,9474.636058
591.896813,0.000000,-0.000000,9400.615463
591.897135,-296.082377,306.438199,9474.636058
591.897458,-370.102971,153.219100,9474.636058
591.897781,-444.123565,153.219100,9474.636058
591.898103,-370.102971,229.828649,9326.594869
591.898426,74.020594,-76.609550,9326.594869
591.898749,-370.102971,229.828649,9400.615463
591.899071,0.000000,306.438199,9400.615463
591.899394,0.000000,-0.000000,9400.615463
591.899716,-518.144159,612.876398,9474.636058
591.900039,-222.061783,-0.000000,9252.574275
591.900362,0.000000,-0.000000,9178.553681
591.900684,0.000000,383.047749,9400.615463
591.901007,0.000000,229.828649,9326.594869
591.901329,-222.061783,-0.000000,9622.677246
591.901652,0.000000,383.047749,9400.615463
591.901975,-222.061783,76.609550,9326.594869
591.902297,-148.041188,459.657299,9400.615463
591.902620,-296.082377,229.828649,9252.574275
591.902943,0.000000,459.657299,9400.615463
591.903265,0.000000,-0.000000,9400.615463
591.903588,-222.061783,229.828649,9474.636058
591.903910,-444.123565,153.219100,9400.615463
591.904233,74.020594,306.438199,9326.594869
591.904556,0.000000,-0.000000,9326.594869
591.904878,-222.061783,-0.000000,9474.636058
591.905201,0.000000,-0.000000,9474.636058
591.905523,-148.041188,-0.000000,9622.677246
591.905846,0.000000,306.438199,9400.615463
591.906169,-148.041188,-0.000000,9326.594869
591.906491,0.000000,229.828649,9326.594869
591.906814,-148.041188,-76.609550,9178.553681
591.907137,-296.082377,-0.000000,9474.636058
591.907459,-296.082377,229.828649,9400.615463
591.907782,0.000000,306.438199,9326.594869
591.908104,-148.041188,306.438199,9400.615463
591.908427,-222.061783,153.219100,9622.677246
591.908750,-222.061783,76.609550,9400.615463
591.909072,-222.061783,-0.000000,9326.594869
591.909395,-370.102971,-0.000000,9326.594869
591.909717,-296.082377,153.219100,9474.636058
591.910040,-370.102971,153.219100,9474.636058
591.910363,0.000000,-0.000000,9178.553681
591.910685,0.000000,229.828649,9326.594869
591.911008,0.000000,-0.000000,9252.574275
591.911331,0.000000,153.219100,9252.574275
591.911653,-148.041188,153.219100,9326.594869
591.911976,-296.082377,229.828649,9400.615463
591.912298,-370.102971,-0.000000,9326.594869
591.912621,222.061783,-459.657299,9400.615463
591.912944,0.000000,-0.000000,9400.615463
591.913266,0.000000,-0.000000,9474.636058
591.913589,-222.061783,153.219100,9474.636058
591.913911,-370.102971,-153.219100,9474.636058
591.914234,-222.061783,153.219100,9474.636058
591.914557,-148.041188,229.828649,9326.594869
591.914879,0.000000,229.828649,9252.574275
591.915202,0.000000,-0.000000,9474.636058
591.915524,-148.041188,306.438199,9178.553681
591.915847,0.000000,-0.000000,9400.615463
591.916170,-148.041188,-0.000000,9252.574275
591.916492,-74.020594,153.219100,9474.636058
591.916815,148.041188,-0.000000,9622.677246
591.917138,-148.041188,153.219100,9252.574275
591.917460,-222.061783,-0.000000,9474.636058
591.917783,-296.082377,306.438199,9252.574275
591.918105,-148.041188,-0.000000,9548.656652
591.918428,0.000000,-0.000000,9326.594869
591.918751,-296.082377,-0.000000,9548.656652
591.919073,-370.102971,229.828649,9474.636058
591.919396,-296.082377,306.438199,9400.615463
591.919718,0.000000,-0.000000,9400.615463
591.920041,-148.041188,-0.000000,9548.656652
591.920364,-370.102971,229.828649,9548.656652
591.920686,-222.061783,153.219100,9326.594869
591.921009,0.000000,536.266849,9622.677246
591.921332,-222.061783,153.219100,9252.574275
591.921654,-148.041188,153.219100,9474.636058
591.921977,0.000000,383.047749,9548.656652
591.922299,-444.123565,-536.266849,9474.636058
591.922622,-148.041188,-0.000000,9400.615463
591.922945,-518.144159,-0.000000,9252.574275
591.923267,0.000000,153.219100,9252.574275
591.923590,0.000000,306.438199,9252.574275
591.923912,0.000000,-0.000000,9548.656652
591.924235,-222.061783,-0.000000,9400.615463
591.924558,-370.102971,459.657299,9400.615463
591.924880,-222.061783,306.438199,9326.594869
591.925203,-222.061783,-0.000000,9474.636058
591.925526,-148.041188,-0.000000,9474.636058
591.925848,-222.061783,-0.000000,9326.594869
591.926171,-148.041188,153.219100,9400.615463
591.926493,-148.041188,229.828649,9178.553681
591.926816,-296.082377,306.438199,9326.594869
591.927139,-222.061783,306.438199,9400.615463
591.927461,-370.102971,153.219100,9400.615463
591.927784,-148.041188,153.219100,9326.594869
591.928106,0.000000,536.266849,9400.615463
591.928429,-148.041188,153.219100,9326.594869
591.928752,0.000000,229.828649,9178.553681
591.929074,-296.082377,-0.000000,9474.636058
591.929397,-148.041188,-76.609550,9474.636058
591.929720,-296.082377,229.828649,9474.636058
591.930042,-222.061783,-0.000000,9474.636058
591.930365,-296.082377,306.438199,9474.636058
591.930687,-148.041188,306.438199,9474.636058
591.931010,0.000000,-229.828649,9326.594869
591.931333,-296.082377,-0.000000,9474.636058
591.931655,0.000000,383.047749,9400.615463
591.931978,0.000000,306.438199,9400.615463
591.932300,0.000000,-76.609550,9474.636058
591.932623,0.000000,306.438199,9474.636058
591.932946,-222.061783,229.828649,9326.594869
591.933268,0.000000,153.219100,9400.615463
591.933591,0.000000,306.438199,9400.615463
591.933913,-370.102971,306.438199,9326.594869
591.934236,0.000000,-0.000000,9400.615463
591.934559,-296.082377,-0.000000,9400.615463
591.934881,0.000000,153.219100,9400.615463
591.935204,0.000000,612.876398,9474.636058
591.935527,-222.061783,383.047749,9326.594869
591.935849,0.000000,153.219100,9326.594869
591.936172,-296.082377,306.438199,9474.636058
591.936494,-296.082377,-0.000000,9400.615463
591.936817,0.000000,229.828649,9326.594869
591.937140,-370.102971,-0.000000,9474.636058
591.937462,-296.082377,153.219100,9326.594869
591.937785,0.000000,229.828649,9400.615463
591.938107,-444.123565,-0.000000,9622.677246
591.938430,-222.061783,306.438199,9548.656652
591.938753,-296.082377,306.438199,9400.615463
591.939075,0.000000,153.219100,9326.594869
591.939398,0.000000,459.657299,9770.718434
591.939721,-222.061783,-0.000000,9104.533087
591.940043,-222.061783,-0.000000,9400.615463
591.940366,0.000000,229.828649,9326.594869
591.940688,-296.082377,-0.000000,9474.636058
591.941011,-222.061783,536.266849,9400.615463
591.941334,-222.061783,383.047749,9326.594869
591.941656,-148.041188,229.828649,9474.636058
591.941979,0.000000,-76.609550,9326.594869
591.942301,-370.102971,-0.000000,9548.656652
591.942624,-148.041188,306.438199,9400.615463
591.942947,0.000000,383.047749,9178.553681
591.943269,-222.061783,-0.000000,9400.615463
591.943592,-370.102971,153.219100,9400.615463
591.943915,-148.041188,-0.000000,9326.594869
591.944237,-296.082377,-0.000000,9474.636058
591.944560,0.000000,-0.000000,9326.594869
591.944882,0.000000,306.438199,9400.615463
591.945205,0.000000,-0.000000,9178.553681
591.945528,-296.082377,-0.000000,9474.636058
591.945850,-148.041188,-0.000000,9252.574275
591.946173,0.000000,229.828649,9252.574275
591.946495,-592.164754,-76.609550,9548.656652
591.946818,-444.123565,-0.000000,9400.615463
591.947141,-222.061783,-0.000000,9400.615463
591.947463,-222.061783,-0.000000,9474.636058
591.947786,-296.082377,-0.000000,9400.615463
591.948109,-370.102971,383.047749,9474.636058
591.948431,-148.041188,-0.000000,9474.636058
591.948754,0.000000,153.219100,9400.615463
591.949076,-148.041188,-0.000000,9474.636058
591.949399,148.041188,229.828649,9178.553681
591.949722,0.000000,-0.000000,9326.594869
591.950044,0.000000,76.609550,9252.574275
591.950367,0.000000,306.438199,9474.636058
591.950689,0.000000,-536.266849,9548.656652
591.951012,-370.102971,306.438199,9474.636058
591.951335,-222.061783,-0.000000,9474.636058
591.951657,0.000000,-0.000000,9252.574275
591.951980,-370.102971,229.828649,9474.636058
591.952302,-444.123565,383.047749,9548.656652
591.952625,-296.082377,153.219100,9326.594869
591.952948,0.000000,229.828649,9400.615463
591.953270,-222.061783,-0.000000,9326.594869
591.953593,0.000000,-0.000000,9474.636058
591.953916,-222.061783,229.828649,9474.636058
591.954238,0.000000,383.047749,9326.594869
591.954561,-222.061783,-0.000000,9400.615463
591.954883,0.000000,-0.000000,9474.636058
591.955206,-148.041188,-0.000000,9474.636058
591.955529,0.000000,306.438199,9400.615463
591.955851,-148.041188,153.219100,9474.636058
591.956174,-148.041188,-0.000000,9474.636058
591.956496,-370.102971,536.266849,9474.636058
591.956819,-296.082377,153.219100,9252.574275
591.957142,0.000000,-0.000000,9474.636058
591.957464,0.000000,306.438199,9400.615463
591.957787,0.000000,-0.000000,9252.574275
591.958110,0.000000,306.438199,9326.594869
591.958432,-370.102971,-0.000000,9474.636058
591.958755,0.000000,-0.000000,9400.615463
591.959077,0.000000,-0.000000,9474.636058
591.959400,0.000000,-0.000000,9474.636058
591.959723,-222.061783,-0.000000,9400.615463
591.960045,-222.061783,-0.000000,9474.636058
591.960368,-222.061783,-0.000000,9474.636058
591.960690,-296.082377,-76.609550,9844.739029
591.961013,-148.041188,-0.000000,9326.594869
591.961336,-296.082377,-76.609550,9252.574275
591.961658,0.000000,-0.000000,9400.615463
591.961981,-222.061783,-153.219100,9474.636058
591.962304,-148.041188,229.828649,9474.636058
591.962626,-296.082377,306.438199,9400.615463
591.962949,0.000000,306.438199,9474.636058
591.963271,0.000000,306.438199,9474.636058
591.963594,0.000000,-0.000000,9326.594869
591.963917,-222.061783,306.438199,9400.615463
591.964239,-370.102971,229.828649,9474.636058
591.964562,0.000000,229.828649,9104.533087
591.964884,0.000000,842.705048,9548.656652
591.965207,-148.041188,-0.000000,9400.615463
591.965530,0.000000,459.657299,9474.636058
591.965852,-296.082377,306.438199,9400.615463
591.966175,0.000000,-229.828649,9326.594869
591.966498,0.000000,153.219100,9326.594869
591.966820,-148.041188,229.828649,9474.636058
591.967143,0.000000,153.219100,9474.636058
591.967465,74.020594,-0.000000,9178.553681
591.967788,74.020594,-0.000000,9030.512492
591.968111,-222.061783,76.609550,9326.594869
591.968433,-296.082377,153.219100,9326.594869
591.968756,-148.041188,-0.000000,9474.636058
591.969078,-296.082377,153.219100,9770.718434
591.969401,-222.061783,153.219100,9252.574275
591.969724,-148.041188,153.219100,9400.615463
591.970046,-74.020594,153.219100,9400.615463
591.970369,0.000000,153.219100,9400.615463
591.970692,-296.082377,-0.000000,9400.615463
591.971014,-222.061783,229.828649,9400.615463
591.971337,0.000000,-0.000000,9252.574275
591.971659,-296.082377,-0.000000,9400.615463
591.971982,148.041188,-383.047749,9326.594869
591.972305,-296.082377,306.438199,9326.594869
591.972627,-296.082377,-0.000000,9252.574275
591.972950,0.000000,-0.000000,9474.636058
591.973272,-222.061783,-229.828649,9474.636058
591.973595,0.000000,-0.000000,9400.615463
591.973918,-222.061783,306.438199,9400.615463
591.974240,-222.061783,-0.000000,9252.574275
591.974563,0.000000,306.438199,9400.615463
591.974885,-296.082377,383.047749,9252.574275
591.975208,-222.061783,153.219100,9400.615463
591.975531,-222.061783,229.828649,9474.636058
591.975853,-148.041188,-0.000000,9252.574275
591.976176,222.061783,153.219100,9474.636058
591.976499,-222.061783,-0.000000,9326.594869
591.976821,-370.102971,229.828649,9548.656652
591.977144,0.000000,153.219100,9252.574275
591.977466,-148.041188,-0.000000,9252.574275
591.977789,0.000000,229.828649,9400.615463
591.978112,0.000000,459.657299,9400.615463
591.978434,-148.041188,-0.000000,9326.594869
591.978757,-148.041188,-0.000000,9252.574275
591.979080,-370.102971,-0.000000,9548.656652
591.979402,-296.082377,306.438199,9474.636058
591.979725,0.000000,229.828649,9178.553681
591.980048,0.000000,229.828649,9326.594869
591.980370,74.020594,229.828649,9178.553681
591.980693,-222.061783,-0.000000,9326.594869
591.981016,0.000000,-0.000000,9400.615463
591.981338,-296.082377,153.219100,9474.636058
591.981661,0.000000,-0.000000,9474.636058
591.981984,148.041188,-0.000000,9400.615463
591.982306,-222.061783,-0.000000,9326.594869
591.982629,0.000000,153.219100,9104.533087
591.982952,-148.041188,153.219100,9326.594869
591.983274,-148.041188,-153.219100,9474.636058
591.983597,0.000000,306.438199,9326.594869
591.983920,-222.061783,153.219100,9474.636058
591.984242,-296.082377,153.219100,9326.594869
591.984565,-148.041188,306.438199,9400.615463
591.984888,-222.061783,-0.000000,9474.636058
591.985210,0.000000,-0.000000,9474.636058
591.985533,-370.102971,229.828649,9474.636058
591.985856,-148.041188,153.219100,9326.594869
591.986178,-222.061783,229.828649,9104.533087
591.986501,0.000000,-0.000000,9474.636058
591.986824,0.000000,229.828649,9474.636058
591.987146,-370.102971,-0.000000,9474.636058
591.987469,0.000000,-229.828649,9178.553681
591.987792,-444.123565,229.828649,9474.636058
591.988114,-296.082377,-0.000000,9326.594869
591.988437,-148.041188,306.438199,9474.636058
591.988760,0.000000,-0.000000,9400.615463
591.989082,74.020594,153.219100,9030.512492
591.989405,-148.041188,-0.000000,9548.656652
591.989728,-222.061783,229.828649,9622.677246
591.990050,0.000000,-0.000000,9474.636058
591.990373,0.000000,-229.828649,9474.636058
591.990696,0.000000,-0.000000,9252.574275
591.991018,0.000000,306.438199,9474.636058
591.991341,-296.082377,306.438199,9400.615463
591.991664,0.000000,229.828649,9326.594869
591.991986,-370.102971,229.828649,9474.636058
591.992309,-222.061783,229.828649,9104.533087
591.992632,-296.082377,306.438199,9474.636058
591.992954,-222.061783,-0.000000,9326.594869
591.993277,0.000000,306.438199,9326.594869
591.993600,0.000000,306.438199,9252.574275
591.993922,-296.082377,-76.609550,9400.615463
591.994245,0.000000,-76.609550,9326.594869
591.994568,148.041188,-76.609550,9252.574275
591.994890,0.000000,-0.000000,9326.594869
591.995213,0.000000,306.438199,9400.615463
591.995536,-296.082377,-0.000000,9400.615463
591.995858,0.000000,-0.000000,9400.615463
591.996181,0.000000,-0.000000,9474.636058
591.996504,0.000000,306.438199,9400.615463
591.996826,0.000000,229.828649,9400.615463
591.997149,-148.041188,-0.000000,9400.615463
591.997472,-222.061783,766.095498,9548.656652
591.997794,-518.144159,-0.000000,9474.636058
591.998117,-148.041188,153.219100,9400.615463
591.998440,-148.041188,-0.000000,9178.553681
591.998762,0.000000,-459.657299,9400.615463
591.999085,-222.061783,306.438199,9474.636058
591.999408,0.000000,229.828649,9178.553681
591.999730,-370.102971,306.438199,9474.636058
592.000053,0.000000,-0.000000,9326.594869
592.000376,-148.041188,383.047749,9400.615463
592.000698,-148.041188,-0.000000,9474.636058
592.001021,-148.041188,-0.000000,9400.615463
592.001344,-222.061783,-0.000000,9400.615463
592.001666,148.041188,766.095498,9696.697840
592.001989,-148.041188,306.438199,9474.636058
592.002312,-148.041188,-0.000000,9400.615463
592.002634,0.000000,-0.000000,9252.574275
592.002957,-296.082377,153.219100,9326.594869
592.003280,-370.102971,536.266849,9474.636058
592.003602,-222.061783,306.438199,9474.636058
592.003925,0.000000,153.219100,9474.636058
592.004248,0.000000,-0.000000,9326.594869
592.004570,148.041188,536.266849,9104.533087
592.004893,-222.061783,-0.000000,9178.553681
592.005216,-296.082377,306.438199,9326.594869
592.005538,0.000000,229.828649,9178.553681
592.005861,0.000000,-0.000000,9844.739029
592.006184,0.000000,306.438199,9326.594869
592.006506,-222.061783,229.828649,9474.636058
592.006829,-222.061783,-0.000000,9474.636058
592.007152,-296.082377,-0.000000,9326.594869
592.007474,-370.102971,229.828649,9548.656652
592.007797,-222.061783,306.438199,9474.636058
592.008120,0.000000,229.828649,9326.594869
592.008442,-222.061783,306.438199,9400.615463
592.008765,74.020594,842.705048,9178.553681
592.009088,-148.041188,-0.000000,9400.615463
592.009410,-222.061783,-0.000000,9326.594869
592.009733,-370.102971,-0.000000,9400.615463
592.010056,0.000000,153.219100,9252.574275
592.010378,-296.082377,229.828649,9178.553681
592.010701,-296.082377,-0.000000,9474.636058
592.011024,0.000000,-0.000000,9326.594869
592.011346,-296.082377,-0.000000,9400.615463
592.011669,148.041188,-459.657299,9030.512492
592.011992,-148.041188,306.438199,9326.594869
592.012314,-296.082377,-0.000000,9400.615463
592.012637,0.000000,-0.000000,9400.615463
592.012960,-296.082377,-229.828649,9548.656652
592.013282,0.000000,-0.000000,9252.574275
592.013605,-222.061783,229.828649,9474.636058
592.013928,0.000000,-0.000000,9326.594869
592.014250,-148.041188,-76.609550,9252.574275
592.014573,-222.061783,-0.000000,9400.615463
592.014896,-222.061783,229.828649,9326.594869
592.015218,-222.061783,-0.000000,9326.594869
592.015541,0.000000,306.438199,9474.636058
592.015864,0.000000,-0.000000,9474.636058
592.016186,-296.082377,-0.000000,9400.615463
592.016509,-148.041188,-0.000000,9474.636058
592.016832,-296.082377,383.047749,9326.594869
592.017154,0.000000,459.657299,9474.636058
592.017477,0.000000,229.828649,9474.636058
592.017800,-370.102971,-0.000000,9548.656652
592.018122,-148.041188,-0.000000,9474.636058
592.018445,0.000000,-0.000000,9104.533087
592.018768,-148.041188,153.219100,9474.636058
592.019090,-296.082377,-0.000000,9400.615463
592.019413,0.000000,153.219100,9326.594869
592.019736,-222.061783,153.219100,9326.594869
592.020058,0.000000,-229.828649,9474.636058
592.020381,-148.041188,-0.000000,9548.656652
592.020704,-222.061783,-0.000000,9474.636058
592.021026,0.000000,459.657299,9400.615463
592.021349,0.000000,229.828649,9400.615463
592.021672,-296.082377,153.219100,9474.636058
592.021994,-148.041188,-0.000000,9400.615463
592.022317,-296.082377,-0.000000,9474.636058
592.022640,0.000000,229.828649,9326.594869
592.022962,-370.102971,-0.000000,9622.677246
592.023285,-296.082377,-0.000000,9400.615463
592.023608,-296.082377,-0.000000,9326.594869
592.023930,0.000000,153.219100,9400.615463
592.024253,0.000000,536.266849,9474.636058
592.024576,-370.102971,306.438199,9326.594869
592.024898,0.000000,153.219100,9104.533087
592.025221,-222.061783,229.828649,9474.636058
592.025544,-370.102971,229.828649,9400.615463
592.025866,0.000000,-0.000000,9252.574275
592.026189,-148.041188,383.047749,9400.615463
592.026512,-148.041188,229.828649,9400.615463
592.026834,-222.061783,-0.000000,9326.594869
592.027157,-444.123565,-459.657299,9622.677246
592.027480,0.000000,229.828649,9474.636058
592.027802,-148.041188,-0.000000,9400.615463
592.028125,-148.041188,229.828649,9326.594869
592.028448,0.000000,-0.000000,9326.594869
592.028770,-296.082377,383.047749,9400.615463
592.029093,-148.041188,229.828649,9474.636058
592.029416,-222.061783,229.828649,9400.615463
592.029738,-222.061783,76.609550,9400.615463
592.030061,-148.041188,-0.000000,9400.615463
592.030384,-296.082377,-0.000000,9400.615463
592.030706,-222.061783,-0.000000,9326.594869
592.031029,-148.041188,-0.000000,9178.553681
592.031352,0.000000,-536.266849,9622.677246
592.031674,0.000000,383.047749,9474.636058
592.031997,-222.061783,-0.000000,9326.594869
592.032320,-222.061783,306.438199,9104.533087
592.032642,-296.082377,-0.000000,9548.656652
592.032965,-148.041188,-153.219100,9400.615463
592.033288,-222.061783,-0.000000,9474.636058
592.033610,-222.061783,-0.000000,9474.636058
592.033933,-148.041188,-0.000000,9326.594869
592.034256,-222.061783,229.828649,9844.739029
592.034578,0.000000,-0.000000,9400.615463
592.034901,0.000000,-0.000000,9474.636058
592.035224,-148.041188,383.047749,9400.615463
592.035546,-222.061783,-76.609550,9474.636058
592.035869,-148.041188,306.438199,9548.656652
592.036192,74.020594,-0.000000,9400.615463
592.036514,-148.041188,306.438199,9474.636058
592.036837,-222.061783,-0.000000,9474.636058
592.037160,0.000000,153.219100,9178.553681
592.037482,0.000000,306.438199,9474.636058
592.037805,-370.102971,-0.000000,9326.594869
592.038128,0.000000,-0.000000,9252.574275
592.038450,0.000000,-0.000000,9474.636058
592.038773,0.000000,-0.000000,9400.615463
592.039096,0.000000,229.828649,9326.594869
592.039418,-148.041188,306.438199,9474.636058
592.039741,0.000000,229.828649,9400.615463
592.040064,-296.082377,306.438199,9548.656652
592.040386,-148.041188,76.609550,9252.574275
592.040709,0.000000,306.438199,9326.594869
592.041032,0.000000,-0.000000,9474.636058
592.041354,74.020594,689.485948,9474.636058
592.041677,0.000000,306.438199,9326.594869
592.042000,-296.082377,-0.000000,9474.636058
592.042322,0.000000,153.219100,9474.636058
592.042645,0.000000,-536.266849,9400.615463
592.042968,-148.041188,-76.609550,9400.615463
592.043290,-222.061783,229.828649,9326.594869
592.043613,0.000000,153.219100,9252.574275
592.043936,-222.061783,306.438199,9400.615463
592.044258,-370.102971,536.266849,9474.636058
592.044581,-296.082377,383.047749,9474.636058
592.044904,-296.082377,306.438199,9326.594869
592.045226,-148.041188,229.828649,9326.594869
592.045549,74.020594,-0.000000,9400.615463
592.045872,-296.082377,-0.000000,9474.636058
592.046194,-148.041188,306.438199,9326.594869
592.046517,0.000000,229.828649,9326.594869
592.046840,-370.102971,459.657299,9474.636058
592.047162,-370.102971,-0.000000,9104.533087
592.047485,0.000000,153.219100,9252.574275
592.047808,-222.061783,-0.000000,9474.636058
592.048130,0.000000,229.828649,9252.574275
592.048453,-222.061783,383.047749,9474.636058
592.048776,-296.082377,229.828649,9326.594869
592.049098,0.000000,459.657299,9474.636058
592.049421,-296.082377,-0.000000,9400.615463
592.049744,-296.082377,-0.000000,9252.574275
592.050066,-74.020594,-0.000000,9400.615463
592.050389,-370.102971,-0.000000,9400.615463
592.050712,-222.061783,-0.000000,9400.615463
592.051034,-296.082377,383.047749,9400.615463
592.051357,0.000000,-0.000000,9400.615463
592.051680,0.000000,-0.000000,9400.615463
592.052002,0.000000,-0.000000,9178.553681
592.052325,0.000000,229.828649,9326.594869
592.052648,0.000000,-76.609550,9696.697840
592.052970,0.000000,-0.000000,9474.636058
592.053293,-148.041188,-0.000000,9326.594869
592.053616,-148.041188,229.828649,9474.636058
592.053938,-296.082377,229.828649,9474.636058
592.054261,-296.082377,383.047749,9326.594869
592.054584,0.000000,-0.000000,9252.574275
592.054906,-296.082377,-0.000000,9400.615463
592.055229,-148.041188,-0.000000,9400.615463
592.055552,0.000000,536.266849,9252.574275
592.055874,0.000000,229.828649,9326.594869
592.056197,-148.041188,229.828649,9326.594869
592.056520,-222.061783,-0.000000,9400.615463
592.056842,0.000000,-153.219100,9622.677246
592.057165,-222.061783,229.828649,9474.636058
592.057488,-518.144159,153.219100,9474.636058
592.057810,-148.041188,-0.000000,9474.636058
592.058133,-296.082377,-0.000000,9474.636058
592.058456,-222.061783,229.828649,9474.636058
592.058778,-296.082377,-0.000000,9326.594869
592.059101,-222.061783,229.828649,9474.636058
592.059424,-148.041188,153.219100,9400.615463
592.059746,0.000000,-0.000000,9548.656652
592.060069,-296.082377,153.219100,9400.615463
592.060392,-148.041188,-0.000000,9326.594869
592.060714,0.000000,153.219100,9474.636058
592.061037,-296.082377,459.657299,9474.636058
592.061360,-444.123565,76.609550,9474.636058
592.061682,0.000000,153.219100,9326.594869
592.062005,-370.102971,-0.000000,9326.594869
592.062328,-148.041188,229.828649,9400.615463
592.062650,-296.082377,383.047749,9400.615463
592.062973,0.000000,306.438199,9252.574275
592.063296,0.000000,-0.000000,9400.615463
592.063618,-518.144159,229.828649,9474.636058
592.063941,222.061783,-76.609550,9400.615463
592.064264,-74.020594,-0.000000,9326.594869
592.064586,-222.061783,229.828649,9400.615463
592.064909,0.000000,153.219100,9400.615463
592.065232,-296.082377,-76.609550,9326.594869
592.065554,74.020594,-76.609550,9252.574275
592.065877,0.000000,153.219100,9400.615463
592.066200,-148.041188,306.438199,9474.636058
592.066522,-148.041188,229.828649,9400.615463
592.066845,-370.102971,459.657299,9548.656652
592.067168,0.000000,229.828649,9252.574275
592.067490,0.000000,306.438199,9326.594869
592.067813,-370.102971,229.828649,9474.636058
592.068136,74.020594,229.828649,9400.615463
592.068458,0.000000,383.047749,9252.574275
592.068781,-222.061783,153.219100,9400.615463
592.069104,-296.082377,229.828649,9474.636058
592.069426,0.000000,153.219100,9474.636058
592.069749,-148.041188,-0.000000,9326.594869
592.070072,-222.061783,229.828649,9548.656652
592.070394,0.000000,153.219100,9400.615463
592.070717,0.000000,-0.000000,9400.615463
592.071040,148.041188,-76.609550,9104.533087
592.071362,0.000000,-0.000000,9400.615463
592.071685,-222.061783,-0.000000,9326.594869
592.072008,0.000000,383.047749,9326.594869
592.072330,-148.041188,306.438199,9326.594869
592.072653,0.000000,-0.000000,9474.636058
592.072976,-222.061783,-0.000000,9474.636058
592.073298,-296.082377,383.047749,9548.656652
592.073621,0.000000,-0.000000,9326.594869
592.073944,148.041188,-0.000000,9400.615463
592.074266,0.000000,-0.000000,9474.636058
592.074589,0.000000,-0.000000,9400.615463
592.074912,-296.082377,306.438199,9474.636058
592.075234,0.000000,-0.000000,9326.594869
592.075557,0.000000,459.657299,9474.636058
592.075880,-148.041188,229.828649,9474.636058
592.076202,-148.041188,306.438199,9400.615463
592.076525,-296.082377,153.219100,9474.636058
592.076848,-222.061783,-0.000000,9474.636058
592.077170,-222.061783,306.438199,9252.574275
592.077493,-296.082377,-153.219100,9474.636058
592.077816,-296.082377,-0.000000,9474.636058
592.078138,-296.082377,536.266849,9326.594869
592.078461,-296.082377,306.438199,9326.594869
592.078784,0.000000,306.438199,9326.594869
592.079106,0.000000,-0.000000,9178.553681
592.079429,0.000000,229.828649,9474.636058
592.079752,-222.061783,76.609550,9400.615463
592.080074,-222.061783,153.219100,9252.574275
592.080397,0.000000,383.047749,9178.553681
592.080719,0.000000,229.828649,9474.636058
592.081042,-296.082377,-0.000000,9400.615463
592.081365,-148.041188,306.438199,9474.636058
592.081687,-370.102971,-0.000000,9474.636058
592.082010,-74.020594,-153.219100,9400.615463
592.082333,-74.020594,-0.000000,9030.512492
592.082655,0.000000,-0.000000,9326.594869
592.082978,0.000000,459.657299,9326.594869
592.083300,-148.041188,-0.000000,9400.615463
592.083623,-296.082377,-0.000000,9400.615463
592.083946,0.000000,-0.000000,9400.615463
592.084268,-148.041188,-0.000000,9400.615463
592.084591,-222.061783,153.219100,9474.636058
592.084913,0.000000,-0.000000,9400.615463
592.085236,0.000000,-153.219100,9696.697840
592.085559,0.000000,-0.000000,9474.636058
592.085881,0.000000,-0.000000,9474.636058
592.086204,-296.082377,-0.000000,9400.615463
592.086527,-518.144159,612.876398,9548.656652
592.086849,0.000000,-0.000000,9474.636058
592.087172,-296.082377,306.438199,9548.656652
592.087494,0.000000,153.219100,9400.615463
592.087817,74.020594,306.438199,9104.533087
592.088140,-518.144159,153.219100,9622.677246
592.088462,-296.082377,229.828649,9474.636058
592.088785,-296.082377,153.219100,9400.615463
592.089107,0.000000,306.438199,9400.615463
592.089430,0.000000,-0.000000,9252.574275
592.089753,0.000000,306.438199,9178.553681
592.090075,-222.061783,-0.000000,9474.636058
592.090398,-296.082377,229.828649,9474.636058
592.090721,-296.082377,229.828649,9400.615463
592.091043,-222.061783,306.438199,9400.615463
592.091366,0.000000,-0.000000,9326.594869
592.091688,-222.061783,306.438199,9474.636058
592.092011,-296.082377,-0.000000,9474.636058
592.092334,148.041188,-0.000000,9326.594869
592.092656,-222.061783,306.438199,9474.636058
592.092979,-296.082377,306.438199,9400.615463
592.093301,-296.082377,153.219100,9474.636058
592.093624,0.000000,-459.657299,9400.615463
592.093947,-222.061783,153.219100,9474.636058
592.094269,0.000000,306.438199,9400.615463
592.094592,0.000000,306.438199,9400.615463
592.094915,-222.061783,-0.000000,9252.574275
592.095237,-222.061783,306.438199,9474.636058
592.095560,-370.102971,153.219100,9474.636058
592.095882,-296.082377,-0.000000,9474.636058
592.096205,-148.041188,-0.000000,9474.636058
592.096528,-518.144159,306.438199,9474.636058
592.096850,-444.123565,-0.000000,9400.615463
592.097173,0.000000,-0.000000,9474.636058
592.097495,-296.082377,306.438199,9400.615463
592.097818,-148.041188,-0.000000,9326.594869
592.098141,-222.061783,306.438199,9252.574275
592.098463,-148.041188,306.438199,9326.594869
592.098786,-444.123565,383.047749,9474.636058
592.099109,-222.061783,306.438199,9474.636058
592.099431,0.000000,-0.000000,9474.636058
592.099754,-296.082377,-0.000000,9326.594869
592.100076,-296.082377,-0.000000,9400.615463
592.100399,-222.061783,-0.000000,9326.594869
592.100722,-222.061783,-153.219100,9252.574275
592.101044,0.000000,-0.000000,9326.594869
592.101367,-296.082377,-0.000000,9474.636058
592.101690,0.000000,229.828649,9326.594869
592.102012,-296.082377,-0.000000,9326.594869
592.102335,-296.082377,306.438199,9474.636058
592.102657,-296.082377,153.219100,9326.594869
592.102980,-370.102971,153.219100,9474.636058
592.103303,0.000000,306.438199,9326.594869
592.103625,148.041188,-306.438199,9474.636058
592.103948,-148.041188,-0.000000,9400.615463
592.104270,-74.020594,306.438199,9400.615463
592.104593,-296.082377,-0.000000,9548.656652
592.104916,-148.041188,383.047749,9474.636058
592.105238,-148.041188,459.657299,9474.636058
592.105561,-148.041188,153.219100,9474.636058
592.105884,0.000000,-0.000000,9474.636058
592.106206,0.000000,153.219100,9400.615463
592.106529,-148.041188,459.657299,9178.553681
592.106851,-222.061783,-0.000000,9474.636058
592.107174,-370.102971,383.047749,9474.636058
592.107497,0.000000,306.438199,9326.594869
592.107819,148.041188,306.438199,9252.574275
592.108142,0.000000,306.438199,9326.594869
592.108464,-222.061783,229.828649,9326.594869
592.108787,0.000000,-0.000000,9326.594869
592.109110,0.000000,153.219100,9252.574275
592.109432,0.000000,306.438199,9474.636058
592.109755,0.000000,306.438199,9326.594869
592.110078,-296.082377,-0.000000,9400.615463
592.110400,-370.102971,229.828649,9326.594869
592.110723,0.000000,229.828649,9474.636058
592.111045,-222.061783,-0.000000,9326.594869
592.111368,-222.061783,-0.000000,9474.636058
592.111691,-222.061783,-0.000000,9474.636058
592.112013,0.000000,306.438199,9474.636058
592.112336,-296.082377,-76.609550,9252.574275
592.112658,-518.144159,383.047749,9474.636058
592.112981,0.000000,229.828649,9400.615463
592.113304,0.000000,153.219100,9252.574275
592.113626,0.000000,306.438199,9400.615463
592.113949,0.000000,229.828649,9474.636058
592.114272,-296.082377,229.828649,9400.615463
592.114594,0.000000,-0.000000,9178.553681
592.114917,148.041188,-0.000000,9474.636058
592.115239,-296.082377,153.219100,9326.594869
592.115562,-222.061783,306.438199,9326.594869
592.115885,-222.061783,-0.000000,9400.615463
592.116207,-222.061783,-0.000000,9474.636058
592.116530,-148.041188,-0.000000,9400.615463
592.116852,-148.041188,306.438199,9400.615463
592.117175,0.000000,153.219100,9400.615463
592.117498,-222.061783,-0.000000,9474.636058
592.117820,-296.082377,536.266849,9400.615463
592.118143,0.000000,-0.000000,9252.574275
592.118466,-222.061783,-0.000000,9474.636058
592.118788,-222.061783,383.047749,9400.615463
592.119111,-518.144159,383.047749,9400.615463
592.119433,-296.082377,153.219100,9474.636058
592.119756,-148.041188,306.438199,9474.636058
592.120079,-148.041188,-0.000000,9474.636058
592.120401,0.000000,-0.000000,9400.615463
592.120724,-370.102971,306.438199,9474.636058
592.121047,-148.041188,306.438199,9474.636058
592.121369,-370.102971,153.219100,9474.636058
592.121692,0.000000,-0.000000,9178.553681
592.122014,370.102971,-0.000000,9326.594869
592.122337,0.000000,229.828649,9474.636058
592.122660,0.000000,306.438199,9474.636058
592.122982,0.000000,229.828649,9474.636058
592.123305,-296.082377,-0.000000,9474.636058
592.123627,0.000000,-0.000000,9326.594869
592.123950,0.000000,153.219100,9474.636058
592.124273,-148.041188,229.828649,9474.636058
592.124595,-444.123565,153.219100,9400.615463
592.124918,-222.061783,306.438199,9326.594869
592.125241,0.000000,229.828649,9548.656652
592.125563,0.000000,306.438199,9326.594869
592.125886,0.000000,383.047749,9400.615463
592.126208,296.082377,153.219100,9474.636058
592.126531,-148.041188,-0.000000,9400.615463
592.126854,-148.041188,383.047749,9474.636058
592.127176,0.000000,459.657299,9400.615463
592.127499,0.000000,-0.000000,9474.636058
592.127821,-296.082377,-0.000000,9400.615463
592.128144,-296.082377,-0.000000,9400.615463
592.128467,-222.061783,-0.000000,9400.615463
592.128789,0.000000,383.047749,9252.574275
592.129112,-74.020594,306.438199,9178.553681
592.129435,-148.041188,-0.000000,9474.636058
592.129757,0.000000,-0.000000,9326.594869
592.130080,0.000000,-0.000000,9400.615463
592.130402,0.000000,153.219100,9474.636058
592.130725,-74.020594,-0.000000,9252.574275
592.131048,0.000000,229.828649,9326.594869
592.131370,-148.041188,153.219100,9326.594869
592.131693,-148.041188,229.828649,9326.594869
592.132015,0.000000,-0.000000,9400.615463
592.132338,-148.041188,153.219100,9326.594869
592.132661,-370.102971,229.828649,9326.594869
592.132983,-148.041188,-0.000000,9400.615463
592.133306,-296.082377,229.828649,9696.697840
592.133629,0.000000,-0.000000,9326.594869
592.133951,-148.041188,153.219100,9400.615463
592.134274,-296.082377,459.657299,9400.615463
592.134596,-222.061783,306.438199,9400.615463
592.134919,0.000000,153.219100,9400.615463
592.135242,-222.061783,-0.000000,9400.615463
592.135564,0.000000,-0.000000,9474.636058
592.135887,-148.041188,-0.000000,9178.553681
592.136209,0.000000,-229.828649,9178.553681
592.136532,-148.041188,-76.609550,9178.553681
592.136855,0.000000,-0.000000,9474.636058
592.137177,-222.061783,-0.000000,9252.574275
592.137500,0.000000,842.705048,9770.718434
592.137823,0.000000,383.047749,9474.636058
592.138145,-222.061783,229.828649,9400.615463
592.138468,0.000000,229.828649,9474.636058
592.138790,-222.061783,536.266849,9400.615463
592.139113,0.000000,-0.000000,9400.615463
592.139436,-296.082377,-0.000000,9622.677246
592.139758,-222.061783,229.828649,9326.594869
592.140081,-222.061783,229.828649,9474.636058
592.140404,0.000000,306.438199,9400.615463
592.140726,-148.041188,-0.000000,9474.636058
592.141049,-148.041188,229.828649,9400.615463
592.141371,-370.102971,153.219100,9400.615463
592.141694,-222.061783,153.219100,9326.594869
592.142017,-222.061783,153.219100,9400.615463
592.142339,-148.041188,-0.000000,9252.574275
592.142662,0.000000,306.438199,9474.636058
592.142984,-296.082377,153.219100,9400.615463
592.143307,-148.041188,-76.609550,9400.615463
592.143630,-222.061783,76.609550,9400.615463
592.143952,0.000000,-0.000000,9400.615463
592.144275,-296.082377,306.438199,9474.636058
592.144598,0.000000,306.438199,9474.636058
592.144920,-148.041188,229.828649,9474.636058
592.145243,-148.041188,-0.000000,9326.594869
592.145565,-222.061783,306.438199,9400.615463
592.145888,0.000000,229.828649,9326.594869
592.146211,0.000000,229.828649,9474.636058
592.146533,-222.061783,76.609550,9326.594869
592.146856,-296.082377,153.219100,9252.574275
592.147178,-148.041188,306.438199,9252.574275
592.147501,0.000000,229.828649,9400.615463
592.147824,-222.061783,306.438199,9474.636058
592.148146,0.000000,383.047749,9326.594869
592.148469,-222.061783,153.219100,9400.615463
592.148792,0.000000,-0.000000,9400.615463
592.149114,-222.061783,306.438199,9474.636058
592.149437,-222.061783,-76.609550,9178.553681
592.149759,-148.041188,-0.000000,9252.574275
592.150082,0.000000,-0.000000,9474.636058
592.150405,148.041188,153.219100,9326.594869
592.150727,-148.041188,153.219100,9400.615463
592.151050,-370.102971,306.438199,9548.656652
592.151372,-296.082377,153.219100,9400.615463
592.151695,74.020594,-383.047749,9104.533087
592.152018,-222.061783,306.438199,9474.636058
592.152340,-222.061783,383.047749,9474.636058
592.152663,-444.123565,306.438199,9474.636058
592.152986,0.000000,-0.000000,9400.615463
592.153308,0.000000,-0.000000,9326.594869
592.153631,-222.061783,229.828649,9474.636058
592.153953,-222.061783,153.219100,9400.615463
592.154276,0.000000,-0.000000,9400.615463
592.154599,-148.041188,842.705048,9474.636058
592.154921,0.000000,-0.000000,9252.574275
592.155244,0.000000,306.438199,9326.594869
592.155567,-222.061783,153.219100,9326.594869
592.155889,-222.061783,-76.609550,9104.533087
592.156212,-296.082377,306.438199,9474.636058
592.156534,-222.061783,306.438199,9474.636058
592.156857,-296.082377,-0.000000,9400.615463
592.157180,-296.082377,-0.000000,9474.636058
592.157502,0.000000,-0.000000,9400.615463
592.157825,0.000000,306.438199,9400.615463
592.158147,0.000000,306.438199,9326.594869
592.158470,-222.061783,-0.000000,9326.594869
592.158793,-148.041188,-0.000000,9844.739029
592.159115,0.000000,153.219100,9474.636058
592.159438,-222.061783,-0.000000,9474.636058
592.159761,-296.082377,-0.000000,9474.636058
592.160083,0.000000,229.828649,9326.594869
592.160406,-370.102971,306.438199,9474.636058
592.160728,-148.041188,153.219100,9252.574275
592.161051,74.020594,-0.000000,9326.594869
592.161374,-222.061783,153.219100,9474.636058
592.161696,0.000000,-0.000000,9548.656652
592.162019,0.000000,153.219100,9326.594869
592.162341,-222.061783,-0.000000,9400.615463
592.162664,-222.061783,306.438199,9326.594869
592.162987,-370.102971,229.828649,9474.636058
592.163309,0.000000,229.828649,9252.574275
592.163632,-222.061783,-0.000000,9474.636058
592.163955,-296.082377,-0.000000,9252.574275
592.164277,-296.082377,306.438199,9474.636058
592.164600,0.000000,229.828649,9400.615463
592.164922,-148.041188,229.828649,9252.574275
592.165245,0.000000,306.438199,9326.594869
592.165568,-222.061783,-0.000000,9474.636058
592.165890,148.041188,-76.609550,9474.636058
592.166213,0.000000,229.828649,9400.615463
592.166535,-222.061783,153.219100,9178.553681
592.166858,-296.082377,-0.000000,9400.615463
592.167181,74.020594,-0.000000,9474.636058
592.167503,-518.144159,-0.000000,9474.636058
592.167826,0.000000,-0.000000,9326.594869
592.168149,-148.041188,306.438199,9474.636058
592.168471,-370.102971,383.047749,9326.594869
592.168794,0.000000,383.047749,9252.574275
592.169116,-296.082377,-0.000000,9474.636058
592.169439,0.000000,153.219100,9474.636058
592.169762,-148.041188,-0.000000,9474.636058
592.170084,-296.082377,306.438199,9326.594869
592.170407,0.000000,229.828649,9400.615463
592.170729,-148.041188,153.219100,9400.615463
592.171052,-296.082377,153.219100,9474.636058
592.171375,-222.061783,-0.000000,9474.636058
592.171697,-296.082377,306.438199,9474.636058
592.172020,0.000000,153.219100,9474.636058
592.172343,0.000000,229.828649,9400.615463
592.172665,-222.061783,-0.000000,9622.677246
592.172988,148.041188,459.657299,9030.512492
592.173310,-296.082377,-0.000000,9474.636058
592.173633,-222.061783,229.828649,9400.615463
592.173956,-222.061783,-0.000000,9400.615463
592.174278,-296.082377,-0.000000,9474.636058
592.174601,-148.041188,-0.000000,9400.615463
592.174924,-148.041188,306.438199,9400.615463
592.175246,0.000000,229.828649,9474.636058
592.175569,0.000000,229.828649,9474.636058
592.175891,-222.061783,153.219100,9474.636058
592.176214,-222.061783,153.219100,9400.615463
592.176537,-74.020594,-0.000000,9548.656652
592.176859,-222.061783,536.266849,9474.636058
592.177182,0.000000,-0.000000,9474.636058
592.177504,-444.123565,-0.000000,9474.636058
592.177827,-296.082377,-0.000000,9474.636058
592.178150,-296.082377,-0.000000,9474.636058
592.178472,-444.123565,383.047749,9400.615463
592.178795,74.020594,153.219100,9104.533087
592.179118,0.000000,-0.000000,9326.594869
592.179440,-370.102971,306.438199,9474.636058
592.179763,0.000000,153.219100,9326.594869
592.180085,0.000000,-306.438199,9400.615463
592.180408,-148.041188,-0.000000,9548.656652
592.180731,0.000000,-0.000000,9400.615463
592.181053,-296.082377,-0.000000,9252.574275
592.181376,0.000000,383.047749,9622.677246
592.181698,-222.061783,-0.000000,9326.594869
592.182021,-222.061783,306.438199,9474.636058
592.182344,-148.041188,-0.000000,9474.636058
592.182666,-148.041188,-0.000000,9326.594869
592.182989,-148.041188,306.438199,9326.594869
592.183312,0.000000,153.219100,9474.636058
592.183634,0.000000,-0.000000,9326.594869
592.183957,-148.041188,153.219100,9400.615463
592.184280,0.000000,-153.219100,9474.636058
592.184602,0.000000,-0.000000,9474.636058
592.184925,-296.082377,153.219100,9548.656652
592.185248,-222.061783,-0.000000,9400.615463
592.185570,-148.041188,229.828649,9474.636058
592.185893,-296.082377,-0.000000,9178.553681
592.186216,-296.082377,76.609550,9326.594869
592.186539,0.000000,-0.000000,9326.594869
592.186861,-222.061783,-0.000000,9400.615463
592.187184,-148.041188,306.438199,9178.553681
592.187507,0.000000,306.438199,9400.615463
592.187829,-222.061783,-0.000000,9326.594869
592.188152,-296.082377,229.828649,9400.615463
592.188475,0.000000,-153.219100,9326.594869
592.188797,0.000000,-0.000000,9400.615463
592.189120,-222.061783,-0.000000,9474.636058
592.189443,-222.061783,-0.000000,9400.615463
592.189765,0.000000,306.438199,9252.574275
592.190088,0.000000,-0.000000,9474.636058
592.190411,0.000000,229.828649,9474.636058
592.190733,-370.102971,306.438199,9326.594869
592.191056,-148.041188,-0.000000,9252.574275
592.191379,-518.144159,536.266849,9474.636058
592.191701,-444.123565,229.828649,9474.636058
592.192024,-148.041188,153.219100,9400.615463
592.192347,0.000000,-0.000000,9474.636058
592.192669,0.000000,-0.000000,9178.553681
592.192992,0.000000,-0.000000,9474.636058
592.193315,0.000000,306.438199,9474.636058
592.193637,-222.061783,306.438199,9400.615463
592.193960,-222.061783,306.438199,9400.615463
592.194283,-148.041188,-0.000000,9252.574275
592.194605,-148.041188,-0.000000,9474.636058
592.194928,-222.061783,229.828649,9400.615463
592.195251,-222.061783,153.219100,9400.615463
592.195573,0.000000,-76.609550,9474.636058
592.195896,0.000000,153.219100,9252.574275
592.196219,-296.082377,-0.000000,9400.615463
592.196541,-222.061783,-0.000000,8956.491898
592.196864,-148.041188,-0.000000,9474.636058
592.197187,0.000000,306.438199,9474.636058
592.197509,-444.123565,-0.000000,9474.636058
592.197832,-148.041188,153.219100,9326.594869
592.198155,0.000000,306.438199,9400.615463
592.198477,0.000000,459.657299,9252.574275
592.198800,-148.041188,-0.000000,9326.594869
592.199123,0.000000,-0.000000,9326.594869
592.199445,-222.061783,383.047749,9474.636058
592.199768,74.020594,-0.000000,9104.533087
592.200091,0.000000,383.047749,9252.574275
592.200413,-148.041188,229.828649,9474.636058
592.200736,-296.082377,-0.000000,9474.636058
592.201059,0.000000,306.438199,9400.615463
592.201381,-296.082377,-0.000000,9474.636058
592.201704,-222.061783,153.219100,9252.574275
592.202027,-148.041188,306.438199,9252.574275
592.202350,-296.082377,-0.000000,9474.636058
592.202672,0.000000,229.828649,9400.615463
592.202995,-148.041188,-0.000000,9474.636058
592.203318,-222.061783,-0.000000,9178.553681
592.203640,0.000000,153.219100,9474.636058
592.203963,-148.041188,-0.000000,9474.636058
592.204286,-148.041188,229.828649,9400.615463
592.204608,0.000000,-0.000000,9400.615463
592.204931,-296.082377,-0.000000,9474.636058
592.205254,0.000000,-0.000000,9474.636058
592.205576,0.000000,-0.000000,9326.594869
592.205899,-296.082377,-0.000000,9400.615463
592.206222,0.000000,383.047749,9326.594869
592.206544,0.000000,229.828649,9326.594869
592.206867,0.000000,306.438199,9326.594869
592.207190,0.000000,306.438199,9474.636058
592.207512,-296.082377,-0.000000,9474.636058
592.207835,0.000000,-0.000000,9400.615463
592.208158,-222.061783,306.438199,9474.636058
592.208480,0.000000,-0.000000,9400.615463
592.208803,-148.041188,153.219100,9474.636058
592.209126,-296.082377,306.438199,9622.677246
592.209448,-370.102971,153.219100,9400.615463
592.209771,74.020594,-229.828649,9474.636058
592.210094,0.000000,153.219100,9400.615463
592.210416,-148.041188,153.219100,9326.594869
592.210739,-148.041188,-0.000000,9548.656652
592.211062,-148.041188,-0.000000,9622.677246
592.211384,-296.082377,229.828649,9474.636058
592.211707,0.000000,306.438199,9252.574275
592.212030,-148.041188,229.828649,9400.615463
592.212352,-148.041188,153.219100,9326.594869
592.212675,-296.082377,229.828649,9400.615463
592.212998,-296.082377,-0.000000,9326.594869
592.213320,-370.102971,-0.000000,9474.636058
592.213643,-148.041188,229.828649,9400.615463
592.213966,0.000000,-0.000000,8956.491898
592.214288,-148.041188,-0.000000,9326.594869
592.214611,-370.102971,-0.000000,9474.636058
592.214934,-222.061783,-0.000000,9474.636058
592.215256,-370.102971,153.219100,9326.594869
592.215579,-148.041188,153.219100,9178.553681
592.215902,-296.082377,-0.000000,9474.636058
592.216224,-222.061783,-0.000000,9400.615463
592.216547,-222.061783,-0.000000,9400.615463
592.216870,370.102971,-0.000000,9326.594869
592.217192,-222.061783,-76.609550,9326.594869
592.217515,0.000000,383.047749,9326.594869
592.217838,-222.061783,-0.000000,9326.594869
592.218161,-148.041188,-0.000000,9844.739029
592.218483,-148.041188,153.219100,9474.636058
592.218806,-222.061783,229.828649,9252.574275
592.219129,-148.041188,-0.000000,9178.553681
592.219451,-222.061783,229.828649,9400.615463
592.219774,0.000000,-153.219100,9474.636058
592.220097,0.000000,-0.000000,9474.636058
592.220419,-74.020594,153.219100,9400.615463
592.220742,0.000000,306.438199,9400.615463
592.221065,-444.123565,-76.609550,9696.697840
592.221387,0.000000,229.828649,9400.615463
592.221710,-148.041188,-0.000000,9474.636058
592.222033,-222.061783,-0.000000,9474.636058
592.222355,-222.061783,383.047749,9326.594869
592.222678,0.000000,229.828649,9400.615463
592.223001,-222.061783,229.828649,9474.636058
592.223323,0.000000,-0.000000,9474.636058
592.223646,-148.041188,153.219100,9474.636058
592.223969,-222.061783,612.876398,9400.615463
592.224291,-296.082377,229.828649,9326.594869
592.224614,-296.082377,383.047749,9474.636058
592.224937,0.000000,-0.000000,9326.594869
592.225259,0.000000,-153.219100,9326.594869
592.225582,-296.082377,229.828649,9326.594869
592.225905,-148.041188,-0.000000,9326.594869
592.226227,-148.041188,-0.000000,9474.636058
592.226550,-148.041188,229.828649,9474.636058
592.226873,-222.061783,-153.219100,9548.656652
592.227195,0.000000,-0.000000,9326.594869
592.227518,0.000000,459.657299,9474.636058
592.227841,0.000000,306.438199,9326.594869
592.228163,-296.082377,689.485948,9474.636058
592.228486,-222.061783,306.438199,9400.615463
592.228809,-222.061783,-0.000000,9548.656652
592.229131,0.000000,229.828649,9252.574275
592.229454,-296.082377,-153.219100,9400.615463
592.229777,-296.082377,-0.000000,9400.615463
592.230099,0.000000,153.219100,9474.636058
592.230422,-148.041188,229.828649,9474.636058
592.230745,0.000000,-0.000000,9326.594869
592.231067,-148.041188,-0.000000,9400.615463
592.231390,-296.082377,383.047749,9326.594869
592.231713,-370.102971,229.828649,9400.615463
592.232035,-148.041188,-0.000000,9252.574275
592.232358,148.041188,306.438199,9696.697840
592.232681,0.000000,-0.000000,9474.636058
592.233003,-222.061783,-0.000000,9474.636058
592.233326,0.000000,-0.000000,9326.594869
592.233649,-222.061783,-0.000000,9474.636058
592.233972,0.000000,306.438199,9178.553681
592.234294,-296.082377,229.828649,9474.636058
592.234617,0.000000,-0.000000,9400.615463
592.234940,-148.041188,153.219100,9252.574275
592.235262,0.000000,229.828649,9326.594869
592.235585,-370.102971,229.828649,9400.615463
592.235908,0.000000,-0.000000,9326.594869
592.236230,-222.061783,-0.000000,9474.636058
592.236553,-296.082377,-76.609550,9474.636058
592.236876,-148.041188,-0.000000,9252.574275
592.237198,-222.061783,-0.000000,9178.553681
592.237521,-148.041188,-0.000000,9548.656652
592.237844,-296.082377,459.657299,9474.636058
592.238166,-370.102971,153.219100,9474.636058
592.238489,0.000000,-0.000000,9326.594869
592.238812,-148.041188,229.828649,9400.615463
592.239134,0.000000,383.047749,9548.656652
592.239457,0.000000,842.705048,9622.677246
592.239780,0.000000,306.438199,9326.594869
592.240102,-148.041188,383.047749,9400.615463
592.240425,-296.082377,-0.000000,9252.574275
592.240748,0.000000,-536.266849,9474.636058
592.241070,-148.041188,-0.000000,9326.594869
592.241393,-296.082377,-0.000000,9474.636058
592.241716,-148.041188,459.657299,9400.615463
592.242038,0.000000,229.828649,9326.594869
592.242361,-222.061783,459.657299,9326.594869
592.242684,0.000000,383.047749,9252.574275
592.243006,-296.082377,383.047749,9474.636058
592.243329,-148.041188,306.438199,9474.636058
592.243652,-222.061783,-0.000000,9252.574275
592.243974,-222.061783,-0.000000,9474.636058
592.244297,-148.041188,-0.000000,9474.636058
592.244620,-222.061783,153.219100,9326.594869
592.244942,0.000000,306.438199,9400.615463
592.245265,0.000000,-0.000000,9326.594869
592.245588,0.000000,383.047749,9252.574275
592.245910,0.000000,306.438199,9326.594869
592.246233,-370.102971,383.047749,9622.677246
592.246556,0.000000,153.219100,9474.636058
592.246878,-370.102971,-0.000000,9474.636058
592.247201,-222.061783,153.219100,9474.636058
592.247524,-296.082377,-153.219100,9252.574275
592.247846,-148.041188,383.047749,9400.615463
592.248169,-296.082377,383.047749,9548.656652
592.248492,-222.061783,153.219100,9400.615463
592.248814,-148.041188,229.828649,9252.574275
592.249137,0.000000,-0.000000,9400.615463
592.249460,-370.102971,-0.000000,9252.574275
592.249783,0.000000,-0.000000,9326.594869
592.250105,-222.061783,-0.000000,9474.636058
592.250428,-222.061783,383.047749,9400.615463
592.250751,148.041188,-0.000000,9400.615463
592.251073,-148.041188,-0.000000,9474.636058
592.251396,0.000000,153.219100,9400.615463
592.251719,-296.082377,-0.000000,9400.615463
592.252041,0.000000,-0.000000,9400.615463
592.252364,-148.041188,-0.000000,9400.615463
592.252687,0.000000,-0.000000,9326.594869
592.253009,-148.041188,-0.000000,9400.615463
592.253332,-370.102971,-0.000000,9474.636058
592.253655,-222.061783,-0.000000,9326.594869
592.253977,-148.041188,306.438199,9400.615463
592.254300,-370.102971,306.438199,9400.615463
592.254623,0.000000,229.828649,9400.615463
592.254945,-222.061783,-0.000000,9548.656652
592.255268,-222.061783,459.657299,9474.636058
592.255591,-222.061783,229.828649,9400.615463
592.255913,0.000000,153.219100,9326.594869
592.256236,-148.041188,-0.000000,9474.636058
592.256559,0.000000,153.219100,9252.574275
592.256881,0.000000,-0.000000,9326.594869
592.257204,0.000000,306.438199,9326.594869
592.257527,-222.061783,229.828649,9400.615463
592.257849,74.020594,-0.000000,9770.718434
592.258172,0.000000,-0.000000,9400.615463
592.258495,0.000000,153.219100,9178.553681
592.258817,0.000000,-0.000000,9326.594869
592.259140,0.000000,306.438199,9326.594869
592.259463,-222.061783,229.828649,9326.594869
592.259785,-370.102971,-0.000000,9400.615463
592.260108,0.000000,229.828649,9548.656652
592.260431,-74.020594,306.438199,9474.636058
592.260753,-370.102971,-0.000000,9252.574275
592.261076,-222.061783,229.828649,9400.615463
592.261399,0.000000,-0.000000,9178.553681
592.261721,-148.041188,612.876398,9252.574275
592.262044,-370.102971,-0.000000,9548.656652
592.262367,-222.061783,-0.000000,9400.615463
592.262689,-148.041188,153.219100,9474.636058
592.263012,-222.061783,153.219100,9400.615463
592.263335,-296.082377,-0.000000,9474.636058
592.263657,-148.041188,-0.000000,9400.615463
592.263980,0.000000,-0.000000,9474.636058
592.264303,-222.061783,-0.000000,9252.574275
592.264625,0.000000,306.438199,9178.553681
592.264948,-296.082377,229.828649,9104.533087
592.265271,0.000000,229.828649,9326.594869
592.265594,-148.041188,-0.000000,9474.636058
592.265916,0.000000,229.828649,9474.636058
592.266239,0.000000,-0.000000,9400.615463
592.266562,0.000000,-0.000000,9252.574275
592.266884,0.000000,-0.000000,9400.615463
592.267207,-296.082377,229.828649,9400.615463
592.267530,-444.123565,-0.000000,9474.636058
592.267852,0.000000,459.657299,9474.636058
592.268175,0.000000,-0.000000,9326.594869
592.268498,0.000000,-0.000000,9252.574275
592.268820,0.000000,-0.000000,9474.636058
592.269143,148.041188,-0.000000,9474.636058
592.269466,-296.082377,153.219100,9474.636058
592.269788,0.000000,-0.000000,9474.636058
592.270111,-296.082377,229.828649,9326.594869
592.270434,-148.041188,229.828649,9474.636058
592.270756,-148.041188,306.438199,9474.636058
592.271079,-370.102971,-0.000000,9474.636058
592.271402,0.000000,153.219100,9326.594869
592.271724,-148.041188,-0.000000,9252.574275
592.272047,-222.061783,612.876398,9326.594869
592.272370,-296.082377,383.047749,9400.615463
592.272692,0.000000,-0.000000,9326.594869
592.273015,0.000000,-0.000000,9474.636058
592.273338,-222.061783,-0.000000,9326.594869
592.273660,0.000000,-0.000000,9252.574275
592.273983,-222.061783,229.828649,9474.636058
592.274306,-222.061783,383.047749,9548.656652
592.274628,-222.061783,229.828649,9400.615463
592.274951,74.020594,-0.000000,9474.636058
592.275274,0.000000,383.047749,9474.636058
592.275596,-370.102971,229.828649,9474.636058
592.275919,-370.102971,229.828649,9400.615463
592.276242,0.000000,306.438199,9474.636058
592.276564,0.000000,153.219100,9400.615463
592.276887,-296.082377,153.219100,9474.636058
592.277210,0.000000,306.438199,9474.636058
592.277532,0.000000,306.438199,9326.594869
592.277855,0.000000,-0.000000,9252.574275
592.278178,0.000000,76.609550,9252.574275
592.278500,-222.061783,383.047749,9252.574275
592.278823,-222.061783,306.438199,9252.574275
592.279146,-296.082377,153.219100,9696.697840
592.279468,-222.061783,153.219100,9326.594869
592.279791,-444.123565,-0.000000,9474.636058
592.280114,-222.061783,-0.000000,9326.594869
592.280436,-222.061783,536.266849,9400.615463
592.280759,-148.041188,306.438199,9400.615463
592.281081,-296.082377,153.219100,9400.615463
592.281404,0.000000,153.219100,9474.636058
592.281727,-296.082377,-0.000000,9474.636058
592.282049,-296.082377,-0.000000,9400.615463
592.282372,-148.041188,306.438199,9400.615463
592.282695,-222.061783,-0.000000,9474.636058
592.283017,-296.082377,-229.828649,9474.636058
592.283340,0.000000,-536.266849,9474.636058
592.283662,-148.041188,229.828649,9474.636058
592.283985,-296.082377,153.219100,9252.574275
592.284308,-148.041188,306.438199,9474.636058
592.284630,-296.082377,153.219100,9474.636058
592.284953,0.000000,-0.000000,9400.615463
592.285276,-222.061783,153.219100,9474.636058
592.285598,-222.061783,-0.000000,9400.615463
592.285921,-74.020594,306.438199,9474.636058
592.286244,-296.082377,612.876398,9622.677246
592.286566,0.000000,229.828649,9326.594869
592.286889,-222.061783,-0.000000,9400.615463
592.287211,0.000000,229.828649,9400.615463
592.287534,-296.082377,-153.219100,9252.574275
592.287857,0.000000,-0.000000,9326.594869
592.288179,0.000000,153.219100,9326.594869
592.288502,0.000000,153.219100,9400.615463
592.288825,0.000000,229.828649,9326.594869
592.289147,-222.061783,459.657299,9474.636058
592.289470,0.000000,-0.000000,9474.636058
592.289792,0.000000,-0.000000,9252.574275
592.290115,-148.041188,306.438199,9474.636058
592.290438,0.000000,229.828649,9474.636058
592.290760,-222.061783,153.219100,9400.615463
592.291083,0.000000,-0.000000,9474.636058
592.291406,-222.061783,229.828649,9548.656652
592.291728,0.000000,-0.000000,9474.636058
592.292051,0.000000,306.438199,9400.615463
592.292373,0.000000,306.438199,9400.615463
592.292696,-148.041188,-0.000000,9474.636058
592.293019,0.000000,306.438199,9400.615463
592.293341,0.000000,-0.000000,9474.636058
592.293664,-148.041188,229.828649,9474.636058
592.293987,-296.082377,229.828649,9326.594869
592.294309,-296.082377,-0.000000,9474.636058
592.294632,-370.102971,306.438199,9622.677246
592.294954,-370.102971,229.828649,9474.636058
592.295277,-296.082377,-0.000000,9400.615463
592.295600,0.000000,153.219100,9326.594869
592.295922,-148.041188,306.438199,9252.574275
592.296245,0.000000,76.609550,9178.553681
592.296568,-222.061783,229.828649,9326.594869
592.296890,-296.082377,-0.000000,9326.594869
592.297213,-148.041188,-0.000000,9252.574275
592.297535,148.041188,-76.609550,9474.636058
592.297858,-148.041188,153.219100,9252.574275
592.298181,0.000000,229.828649,9400.615463
592.298503,0.000000,306.438199,9400.615463
592.298826,-296.082377,-383.047749,9400.615463
592.299149,-74.020594,306.438199,9400.615463
592.299471,-222.061783,-0.000000,9474.636058
592.299794,0.000000,-0.000000,9326.594869
592.300116,0.000000,-0.000000,9252.574275
592.300439,0.000000,-0.000000,9178.553681
592.300762,-222.061783,229.828649,9400.615463
592.301084,-296.082377,-0.000000,9326.594869
592.301407,-148.041188,-0.000000,9326.594869
592.301730,-74.020594,612.876398,9400.615463
592.302052,0.000000,-0.000000,9326.594869
592.302375,0.000000,306.438199,9252.574275
592.302697,0.000000,-0.000000,9400.615463
592.303020,0.000000,-76.609550,9252.574275
592.303343,-222.061783,383.047749,9326.594869
592.303665,-222.061783,-0.000000,9326.594869
592.303988,0.000000,-0.000000,9474.636058
592.304311,-222.061783,-0.000000,9548.656652
592.304633,0.000000,229.828649,9178.553681
592.304956,0.000000,153.219100,9474.636058
592.305278,-222.061783,306.438199,9326.594869
592.305601,-148.041188,-0.000000,9474.636058
592.305924,0.000000,-153.219100,9918.759623
592.306246,-222.061783,-0.000000,9474.636058
592.306569,-296.082377,-0.000000,9178.553681
592.306892,0.000000,383.047749,9326.594869
592.307214,-222.061783,-0.000000,9326.594869
592.307537,-666.185348,229.828649,9770.718434
592.307859,-296.082377,-0.000000,9474.636058
592.308182,0.000000,229.828649,9252.574275
592.308505,-148.041188,383.047749,9400.615463
592.308827,-222.061783,459.657299,9548.656652
592.309150,0.000000,-0.000000,9326.594869
592.309473,0.000000,-0.000000,9400.615463
592.309795,0.000000,229.828649,9326.594869
592.310118,-370.102971,153.219100,9474.636058
592.310440,-222.061783,383.047749,9474.636058
592.310763,-148.041188,-0.000000,9400.615463
592.311086,0.000000,-0.000000,9326.594869
592.311408,-222.061783,306.438199,9548.656652
592.311731,0.000000,383.047749,9400.615463
592.312054,0.000000,-0.000000,9474.636058
592.312376,0.000000,-0.000000,9474.636058
592.312699,-222.061783,306.438199,9474.636058
592.313021,0.000000,-76.609550,9622.677246
592.313344,0.000000,229.828649,9400.615463
592.313667,-148.041188,153.219100,9326.594869
592.313989,-148.041188,-0.000000,9474.636058
592.314312,0.000000,153.219100,9400.615463
592.314635,-296.082377,-0.000000,9474.636058
592.314957,0.000000,-0.000000,9326.594869
592.315280,-222.061783,-0.000000,9400.615463
592.315602,-222.061783,-0.000000,9326.594869
592.315925,-222.061783,-0.000000,9918.759623
592.316248,-222.061783,306.438199,9400.615463
592.316570,0.000000,229.828649,9326.594869
592.316893,0.000000,229.828649,9104.533087
592.317216,-222.061783,-76.609550,9622.677246
592.317538,0.000000,-0.000000,9474.636058
592.317861,-222.061783,383.047749,9400.615463
592.318183,-370.102971,306.438199,9400.615463
592.318506,0.000000,306.438199,9326.594869
592.318829,-222.061783,612.876398,9178.553681
592.319151,-148.041188,383.047749,9474.636058
592.319474,0.000000,153.219100,9326.594869
592.319797,-222.061783,153.219100,9400.615463
592.320119,0.000000,-0.000000,9400.615463
592.320442,0.000000,229.828649,9326.594869
592.320764,-148.041188,-0.000000,9474.636058
592.321087,-296.082377,229.828649,9400.615463
592.321410,0.000000,383.047749,9474.636058
592.321732,-148.041188,229.828649,9400.615463
592.322055,-148.041188,-0.000000,9474.636058
592.322378,0.000000,306.438199,9400.615463
592.322700,0.000000,229.828649,9178.553681
592.323023,74.020594,153.219100,9400.615463
592.323345,-222.061783,-0.000000,9252.574275
592.323668,0.000000,153.219100,9178.553681
592.323991,-222.061783,-0.000000,9400.615463
592.324313,0.000000,-0.000000,9400.615463
592.324636,-296.082377,-76.609550,9474.636058
592.324959,0.000000,306.438199,9400.615463
592.325281,-222.061783,-0.000000,9474.636058
592.325604,-148.041188,153.219100,9326.594869
592.325926,-222.061783,153.219100,9474.636058
592.326249,0.000000,229.828649,9474.636058
592.326572,0.000000,-0.000000,9178.553681
592.326894,-444.123565,-0.000000,9474.636058
592.327217,-148.041188,383.047749,9030.512492
592.327540,0.000000,153.219100,9474.636058
592.327862,-222.061783,229.828649,9474.636058
592.328185,-148.041188,229.828649,9474.636058
592.328507,-222.061783,-76.609550,9474.636058
592.328830,0.000000,229.828649,9252.574275
592.329153,-222.061783,153.219100,9400.615463
592.329475,0.000000,-0.000000,9252.574275
592.329798,0.000000,153.219100,9474.636058
592.330121,0.000000,-0.000000,9252.574275
592.330443,-222.061783,-0.000000,9326.594869
592.330766,0.000000,-0.000000,9400.615463
592.331088,-148.041188,229.828649,9548.656652
592.331411,-148.041188,306.438199,9474.636058
592.331734,0.000000,-0.000000,9400.615463
592.332056,0.000000,229.828649,9326.594869
592.332379,-222.061783,153.219100,9252.574275
592.332702,-148.041188,306.438199,9474.636058
592.333024,-296.082377,383.047749,9474.636058
592.333347,0.000000,306.438199,9252.574275
592.333669,-148.041188,229.828649,9474.636058
592.333992,0.000000,153.219100,9474.636058
592.334315,0.000000,-612.876398,9400.615463
592.334637,0.000000,-0.000000,9400.615463
592.334960,-296.082377,-0.000000,9252.574275
592.335283,0.000000,306.438199,9326.594869
592.335605,-296.082377,612.876398,9400.615463
592.335928,0.000000,-0.000000,9400.615463
592.336250,-148.041188,306.438199,9474.636058
592.336573,-296.082377,-0.000000,9474.636058
592.336896,0.000000,153.219100,9474.636058
592.337218,0.000000,-76.609550,9548.656652
592.337541,-148.041188,229.828649,9252.574275
592.337864,0.000000,153.219100,9474.636058
592.338186,-222.061783,-0.000000,9326.594869
592.338509,0.000000,229.828649,8956.491898
592.338831,-296.082377,229.828649,9326.594869
592.339154,0.000000,306.438199,9474.636058
592.339477,-296.082377,383.047749,9474.636058
592.339799,-148.041188,153.219100,9326.594869
592.340122,-222.061783,229.828649,9474.636058
592.340445,0.000000,383.047749,9474.636058
592.340767,-296.082377,153.219100,9474.636058
592.341090,-222.061783,-0.000000,9474.636058
592.341412,0.000000,-153.219100,9252.574275
592.341735,0.000000,229.828649,9400.615463
592.342058,-370.102971,229.828649,9474.636058
592.342380,0.000000,306.438199,9474.636058
592.342703,0.000000,-0.000000,9400.615463
592.343026,0.000000,229.828649,9474.636058
592.343348,-296.082377,459.657299,9400.615463
592.343671,-370.102971,153.219100,9400.615463
592.343993,0.000000,153.219100,9474.636058
592.344316,-296.082377,229.828649,9474.636058
592.344639,-370.102971,-0.000000,9326.594869
592.344961,-222.061783,-0.000000,9474.636058
592.345284,-222.061783,229.828649,9474.636058
592.345607,-518.144159,-459.657299,10066.800811
592.345929,0.000000,229.828649,9474.636058
592.346252,0.000000,383.047749,9474.636058
592.346574,0.000000,383.047749,9474.636058
592.346897,0.000000,153.219100,9326.594869
592.347220,-148.041188,229.828649,9474.636058
592.347542,-296.082377,306.438199,9400.615463
592.347865,-148.041188,-0.000000,9326.594869
592.348188,0.000000,-0.000000,9400.615463
592.348510,0.000000,536.266849,9178.553681
592.348833,-222.061783,153.219100,9326.594869
592.349155,-148.041188,229.828649,9326.594869
592.349478,0.000000,383.047749,9400.615463
592.349801,0.000000,-383.047749,9104.533087
592.350123,0.000000,153.219100,9104.533087
592.350446,-222.061783,153.219100,9474.636058
592.350769,-370.102971,306.438199,9400.615463
592.351091,0.000000,-0.000000,9326.594869
592.351414,0.000000,-0.000000,9326.594869
592.351736,0.000000,-0.000000,9252.574275
592.352059,0.000000,153.219100,9104.533087
592.352382,0.000000,306.438199,9400.615463
592.352704,-148.041188,-0.000000,9696.697840
592.353027,-296.082377,153.219100,9326.594869
592.353350,0.000000,383.047749,9252.574275
592.353672,0.000000,-0.000000,9252.574275
592.353995,-296.082377,-0.000000,9474.636058
592.354317,0.000000,306.438199,9326.594869
592.354640,-296.082377,76.609550,9400.615463
592.354963,-222.061783,-0.000000,9474.636058
592.355285,-296.082377,153.219100,9474.636058
592.355608,0.000000,612.876398,9326.594869
592.355931,0.000000,-0.000000,9400.615463
592.356253,0.000000,153.219100,9400.615463
592.356576,0.000000,76.609550,9400.615463
592.356898,-370.102971,-229.828649,9548.656652
592.357221,0.000000,-0.000000,9400.615463
592.357544,-518.144159,153.219100,9400.615463
592.357866,0.000000,76.609550,9400.615463
592.358189,-222.061783,383.047749,9474.636058
592.358512,0.000000,383.047749,9474.636058
592.358834,0.000000,-0.000000,9252.574275
592.359157,-74.020594,-0.000000,9474.636058
592.359479,-370.102971,306.438199,9548.656652
592.359802,74.020594,-0.000000,9474.636058
592.360125,-148.041188,459.657299,9326.594869
592.360447,0.000000,383.047749,9474.636058
592.360770,-148.041188,-0.000000,9400.615463
592.361093,-148.041188,306.438199,9474.636058
592.361415,-222.061783,-0.000000,9474.636058
592.361738,-222.061783,383.047749,9400.615463
592.362060,-222.061783,229.828649,9326.594869
592.362383,-296.082377,383.047749,9400.615463
592.362706,-296.082377,459.657299,9326.594869
592.363028,0.000000,229.828649,9474.636058
592.363351,-296.082377,153.219100,9474.636058
592.363674,-370.102971,153.219100,9474.636058
592.363996,222.061783,459.657299,9400.615463
592.364319,-296.082377,306.438199,9474.636058
592.364641,0.000000,383.047749,9474.636058
592.364964,-222.061783,229.828649,9326.594869
592.365287,-296.082377,-0.000000,9474.636058
592.365609,-148.041188,229.828649,9178.553681
592.365932,-296.082377,-0.000000,9252.574275
592.366255,-222.061783,153.219100,9474.636058
592.366577,-222.061783,-0.000000,9400.615463
592.366900,-222.061783,383.047749,9474.636058
592.367222,-296.082377,-0.000000,9326.594869
592.367545,0.000000,153.219100,9252.574275
592.367868,-296.082377,-0.000000,9474.636058
592.368190,-222.061783,-0.000000,9474.636058
592.368513,0.000000,-76.609550,9326.594869
592.368836,0.000000,-0.000000,9474.636058
592.369158,0.000000,153.219100,9178.553681
592.369481,0.000000,306.438199,9400.615463
592.369803,-370.102971,-0.000000,9474.636058
592.370126,0.000000,306.438199,9474.636058
592.370449,0.000000,383.047749,9474.636058
592.370771,0.000000,229.828649,9326.594869
592.371094,-222.061783,459.657299,9326.594869
592.371417,-370.102971,229.828649,9400.615463
592.371739,-222.061783,-76.609550,9474.636058
592.372062,-222.061783,459.657299,9474.636058
592.372384,-296.082377,306.438199,9400.615463
592.372707,0.000000,-0.000000,9326.594869
592.373030,-296.082377,-0.000000,9400.615463
592.373352,0.000000,153.219100,9474.636058
592.373675,-148.041188,-0.000000,9474.636058
592.373998,0.000000,-76.609550,9178.553681
592.374320,-222.061783,-0.000000,9400.615463
592.374643,-148.041188,-0.000000,9326.594869
592.374965,-222.061783,-0.000000,9474.636058
592.375288,0.000000,842.705048,9770.718434
592.375611,-222.061783,-0.000000,9548.656652
592.375933,-222.061783,153.219100,9400.615463
592.376256,-222.061783,383.047749,9326.594869
592.376579,0.000000,-0.000000,9474.636058
592.376901,-296.082377,459.657299,9474.636058
592.377224,0.000000,153.219100,9400.615463
592.377546,-148.041188,-0.000000,9326.594869
592.377869,-296.082377,459.657299,9400.615463
592.378192,0.000000,-612.876398,9178.553681
592.378514,0.000000,153.219100,9474.636058
592.378837,-296.082377,229.828649,9548.656652
592.379160,-222.061783,-0.000000,9326.594869
592.379482,0.000000,153.219100,9548.656652
592.379805,-296.082377,229.828649,9474.636058
592.380128,-370.102971,306.438199,9326.594869
592.380450,-296.082377,153.219100,9474.636058
592.380773,-296.082377,153.219100,9474.636058
592.381096,0.000000,-0.000000,9178.553681
592.381418,-296.082377,-0.000000,9400.615463
592.381741,0.000000,-0.000000,9104.533087
592.382064,-222.061783,229.828649,9252.574275
592.382387,-296.082377,229.828649,9326.594869
592.382709,-222.061783,306.438199,9474.636058
592.383032,0.000000,306.438199,9400.615463
592.383355,0.000000,-0.000000,9252.574275
592.383677,-148.041188,229.828649,9400.615463
592.384000,-370.102971,383.047749,9474.636058
592.384323,-148.041188,-0.000000,9400.615463
592.384645,-296.082377,306.438199,9400.615463
592.384968,-222.061783,306.438199,9326.594869
592.385291,74.020594,536.266849,9326.594869
592.385613,0.000000,-0.000000,9252.574275
592.385936,-370.102971,306.438199,9474.636058
592.386259,-222.061783,-0.000000,9400.615463
592.386581,74.020594,229.828649,9400.615463
592.386904,0.000000,-0.000000,9326.594869
592.387227,-222.061783,-76.609550,9252.574275
592.387549,-148.041188,-0.000000,9252.574275
592.387872,0.000000,306.438199,9400.615463
592.388195,-222.061783,-0.000000,9548.656652
592.388518,-296.082377,-0.000000,9400.615463
592.388840,0.000000,383.047749,9400.615463
592.389163,-370.102971,383.047749,9474.636058
592.389486,-370.102971,612.876398,9178.553681
592.389808,-148.041188,229.828649,9474.636058
592.390131,0.000000,306.438199,9178.553681
592.390454,148.041188,153.219100,9252.574275
592.390776,0.000000,-0.000000,9400.615463
592.391099,0.000000,153.219100,9474.636058
592.391422,0.000000,229.828649,9474.636058
592.391744,-148.041188,229.828649,9400.615463
592.392067,-222.061783,229.828649,9400.615463
592.392390,-296.082377,306.438199,9474.636058
592.392712,-296.082377,153.219100,9400.615463
592.393035,-222.061783,-0.000000,9400.615463
592.393358,-148.041188,153.219100,9474.636058
592.393680,-222.061783,-153.219100,9400.615463
592.394003,0.000000,-0.000000,9400.615463
592.394326,0.000000,-0.000000,9474.636058
592.394649,0.000000,-0.000000,9474.636058
592.394971,-222.061783,-0.000000,9474.636058
592.395294,0.000000,-0.000000,9474.636058
592.395617,0.000000,383.047749,9400.615463
592.395939,-148.041188,229.828649,9326.594869
592.396262,0.000000,153.219100,9400.615463
592.396585,-444.123565,-306.438199,9622.677246
592.396907,-148.041188,-0.000000,9400.615463
592.397230,0.000000,383.047749,9326.594869
592.397553,-222.061783,306.438199,9326.594869
592.397875,-296.082377,-0.000000,9326.594869
592.398198,-296.082377,306.438199,9252.574275
592.398521,0.000000,153.219100,9400.615463
592.398843,-296.082377,-76.609550,9400.615463
592.399166,-148.041188,306.438199,9400.615463
592.399489,-296.082377,536.266849,9326.594869
592.399812,0.000000,153.219100,9252.574275
592.400134,-370.102971,383.047749,9474.636058
592.400457,-222.061783,-0.000000,9474.636058
592.400780,0.000000,229.828649,8956.491898
592.401102,-222.061783,-0.000000,9474.636058
592.401425,-296.082377,229.828649,9326.594869
592.401748,-222.061783,-0.000000,9252.574275
592.402070,-148.041188,76.609550,9400.615463
592.402393,0.000000,-0.000000,9548.656652
592.402716,-296.082377,-0.000000,9474.636058
592.403038,-148.041188,153.219100,9400.615463
592.403361,0.000000,-0.000000,9326.594869
592.403684,148.041188,536.266849,9252.574275
592.404006,0.000000,153.219100,9326.594869
592.404329,-296.082377,-0.000000,9400.615463
592.404652,0.000000,-0.000000,9178.553681
592.404974,-74.020594,-459.657299,9400.615463
592.405297,0.000000,-0.000000,9400.615463
592.405620,-148.041188,-0.000000,9400.615463
592.405943,-296.082377,229.828649,9474.636058
592.406265,-148.041188,-0.000000,9400.615463
592.406588,0.000000,-0.000000,9474.636058
592.406911,-370.102971,-0.000000,9400.615463
592.407233,-222.061783,-0.000000,9326.594869
592.407556,0.000000,-0.000000,9400.615463
592.407879,-296.082377,229.828649,9918.759623
592.408201,-296.082377,153.219100,9474.636058
592.408524,-148.041188,153.219100,9400.615463
592.408847,0.000000,-0.000000,9400.615463
592.409169,0.000000,229.828649,9400.615463
592.409492,-222.061783,383.047749,9178.553681
592.409815,-222.061783,-0.000000,9474.636058
592.410137,-222.061783,-0.000000,9474.636058
592.410460,-148.041188,-0.000000,9400.615463
592.410783,148.041188,-153.219100,9474.636058
592.411105,-148.041188,-0.000000,9400.615463
592.411428,0.000000,-0.000000,9400.615463
592.411751,0.000000,229.828649,9474.636058
592.412074,-296.082377,306.438199,9474.636058
592.412396,-296.082377,229.828649,9474.636058
592.412719,-222.061783,306.438199,9474.636058
592.413042,-296.082377,-0.000000,9326.594869
592.413364,0.000000,-0.000000,9474.636058
592.413687,0.000000,229.828649,9178.553681
592.414010,-296.082377,306.438199,9400.615463
592.414332,0.000000,306.438199,9178.553681
592.414655,-296.082377,229.828649,9326.594869
592.414978,148.041188,-76.609550,9474.636058
592.415300,-296.082377,229.828649,9474.636058
592.415623,0.000000,153.219100,9030.512492
592.415946,0.000000,306.438199,9178.553681
592.416268,-296.082377,-0.000000,9474.636058
592.416591,-296.082377,229.828649,9622.677246
592.416914,-296.082377,229.828649,9178.553681
592.417236,0.000000,229.828649,9252.574275
592.417559,0.000000,229.828649,9178.553681
592.417882,-296.082377,229.828649,9178.553681
592.418205,-296.082377,306.438199,9326.594869
592.418527,-222.061783,229.828649,9474.636058
592.418850,-518.144159,-0.000000,9400.615463
592.419173,0.000000,-459.657299,9474.636058
592.419495,-370.102971,-0.000000,9474.636058
592.419818,-222.061783,-0.000000,9400.615463
592.420141,0.000000,306.438199,9474.636058
592.420463,-222.061783,153.219100,9252.574275
592.420786,0.000000,-0.000000,9178.553681
592.421109,-222.061783,306.438199,9326.594869
592.421431,-370.102971,383.047749,9474.636058
592.421754,0.000000,-0.000000,9326.594869
592.422077,-518.144159,536.266849,9548.656652
592.422399,-148.041188,306.438199,9252.574275
592.422722,0.000000,76.609550,9326.594869
592.423045,-222.061783,-0.000000,9474.636058
592.423367,0.000000,-153.219100,9474.636058
592.423690,-370.102971,383.047749,9474.636058
592.424013,-222.061783,153.219100,9326.594869
592.424336,0.000000,-0.000000,9326.594869
592.424658,-222.061783,306.438199,9474.636058
592.424981,0.000000,-0.000000,9030.512492
592.425304,0.000000,229.828649,9474.636058
592.425626,-148.041188,229.828649,9474.636058
592.425949,-222.061783,153.219100,9400.615463
592.426272,0.000000,536.266849,9770.718434
592.426594,-148.041188,-0.000000,9400.615463
592.426917,0.000000,383.047749,9326.594869
592.427240,-296.082377,306.438199,9400.615463
592.427562,-222.061783,-0.000000,9474.636058
592.427885,0.000000,-0.000000,9178.553681
592.428208,0.000000,306.438199,9474.636058
592.428530,0.000000,306.438199,9474.636058
592.428853,0.000000,-0.000000,9326.594869
592.429176,74.020594,-0.000000,9326.594869
592.429498,0.000000,-0.000000,9474.636058
592.429821,-370.102971,306.438199,9622.677246
592.430144,-74.020594,153.219100,9400.615463
592.430467,-148.041188,153.219100,9844.739029
592.430789,0.000000,459.657299,9400.615463
592.431112,-222.061783,-0.000000,9548.656652
592.431435,-222.061783,153.219100,9474.636058
592.431757,-222.061783,229.828649,9326.594869
592.432080,0.000000,229.828649,9400.615463
592.432403,-370.102971,383.047749,9400.615463
592.432725,-148.041188,-0.000000,9400.615463
592.433048,-222.061783,76.609550,9326.594869
592.433371,74.020594,-842.705048,9400.615463
592.433693,-296.082377,-76.609550,9326.594869
592.434016,-296.082377,-0.000000,9400.615463
592.434339,-148.041188,-0.000000,9474.636058
592.434661,-296.082377,-0.000000,9474.636058
592.434984,-296.082377,-0.000000,9326.594869
592.435307,0.000000,-0.000000,9252.574275
592.435630,0.000000,229.828649,9252.574275
592.435952,0.000000,383.047749,9326.594869
592.436275,-370.102971,383.047749,9400.615463
592.436598,-148.041188,153.219100,9400.615463
592.436920,-222.061783,-0.000000,9178.553681
592.437243,0.000000,229.828649,9400.615463
592.437566,148.041188,-76.609550,9400.615463
592.437888,0.000000,153.219100,9178.553681
592.438211,-370.102971,-0.000000,9326.594869
592.438534,-222.061783,229.828649,9474.636058
592.438856,0.000000,306.438199,9326.594869
592.439179,74.020594,229.828649,9326.594869
592.439502,0.000000,229.828649,9252.574275
592.439824,0.000000,383.047749,9474.636058
592.440147,-296.082377,229.828649,9326.594869
592.440470,-444.123565,-229.828649,9992.780217
592.440792,-148.041188,229.828649,9400.615463
592.441115,-222.061783,229.828649,9400.615463
592.441438,-148.041188,153.219100,9474.636058
592.441761,0.000000,766.095498,9474.636058
592.442083,0.000000,383.047749,9400.615463
592.442406,-148.041188,153.219100,9400.615463
592.442729,0.000000,306.438199,9400.615463
592.443051,0.000000,-0.000000,9326.594869
592.443374,0.000000,229.828649,9252.574275
592.443697,-296.082377,-0.000000,9474.636058
592.444019,0.000000,229.828649,9326.594869
592.444342,0.000000,153.219100,9400.615463
592.444665,0.000000,-229.828649,9326.594869
592.444987,0.000000,-0.000000,9474.636058
592.445310,0.000000,306.438199,9326.594869
592.445633,-296.082377,-0.000000,9326.594869
592.445955,0.000000,-0.000000,9400.615463
592.446278,-222.061783,-0.000000,9622.677246
592.446601,0.000000,-0.000000,9252.574275
592.446923,0.000000,229.828649,9326.594869
592.447246,-148.041188,153.219100,9326.594869
592.447569,-444.123565,306.438199,9696.697840
592.447892,-370.102971,-0.000000,9400.615463
592.448214,0.000000,-0.000000,9326.594869
592.448537,0.000000,459.657299,9326.594869
592.448860,-222.061783,-536.266849,9474.636058
592.449182,0.000000,153.219100,9400.615463
592.449505,-296.082377,-76.609550,9474.636058
592.449828,0.000000,-0.000000,9400.615463
592.450150,0.000000,153.219100,9252.574275
592.450473,-222.061783,229.828649,9474.636058
592.450796,-222.061783,229.828649,9252.574275
592.451118,-296.082377,-0.000000,9474.636058
592.451441,-148.041188,-0.000000,9400.615463
592.451764,-222.061783,153.219100,9030.512492
592.452086,0.000000,-0.000000,9326.594869
592.452409,-370.102971,-0.000000,9474.636058
592.452732,0.000000,-0.000000,9400.615463
592.453054,-296.082377,-0.000000,9474.636058
592.453377,0.000000,-0.000000,9326.594869
592.453700,-222.061783,153.219100,9178.553681
592.454023,0.000000,-0.000000,9326.594869
592.454345,0.000000,229.828649,9400.615463
592.454668,0.000000,306.438199,9474.636058
592.454991,-148.041188,-0.000000,9400.615463
592.455313,-444.123565,306.438199,9326.594869
592.455636,-222.061783,-0.000000,9178.553681
592.455959,0.000000,229.828649,9474.636058
592.456281,-296.082377,153.219100,9326.594869
592.456604,0.000000,-0.000000,9400.615463
592.456927,-222.061783,153.219100,9474.636058
592.457249,-222.061783,229.828649,9474.636058
592.457572,0.000000,153.219100,9400.615463
592.457895,-296.082377,229.828649,9400.615463
592.458217,0.000000,-0.000000,9400.615463
592.458540,-148.041188,-0.000000,9400.615463
592.458863,-148.041188,689.485948,9548.656652
592.459185,0.000000,-0.000000,9400.615463
592.459508,0.000000,153.219100,9252.574275
592.459831,0.000000,229.828649,9474.636058
592.460154,-296.082377,306.438199,9548.656652
592.460476,-148.041188,153.219100,9252.574275
592.460799,-148.041188,383.047749,9474.636058
592.461122,74.020594,-0.000000,9252.574275
592.461444,-296.082377,153.219100,9474.636058
592.461767,-370.102971,536.266849,9474.636058
592.462090,-222.061783,229.828649,9474.636058
592.462412,0.000000,-0.000000,9400.615463
592.462735,-148.041188,306.438199,9474.636058
592.463058,74.020594,229.828649,9474.636058
592.463380,-148.041188,-0.000000,9474.636058
592.463703,-296.082377,-0.000000,9326.594869
592.464026,-222.061783,-0.000000,9474.636058
592.464348,-222.061783,76.609550,9474.636058
592.464671,0.000000,-0.000000,9400.615463
592.464994,-222.061783,229.828649,9252.574275
592.465316,-148.041188,-0.000000,9474.636058
592.465639,-148.041188,-76.609550,9474.636058
592.465962,0.000000,536.266849,9696.697840
592.466285,0.000000,-0.000000,9104.533087
592.466607,0.000000,-0.000000,9178.553681
592.466930,-222.061783,383.047749,9326.594869
592.467253,-296.082377,-229.828649,9474.636058
592.467575,0.000000,153.219100,9326.594869
592.467898,-148.041188,229.828649,9326.594869
592.468221,-370.102971,153.219100,9326.594869
592.468543,0.000000,-0.000000,9474.636058
592.468866,0.000000,-76.609550,9400.615463
592.469189,-222.061783,-0.000000,9400.615463
592.469511,-222.061783,-0.000000,9400.615463
592.469834,-222.061783,306.438199,9252.574275
592.470157,-148.041188,383.047749,9696.697840
592.470479,-222.061783,-0.000000,9400.615463
592.470802,-148.041188,229.828649,9548.656652
592.471125,0.000000,459.657299,9474.636058
592.471448,0.000000,229.828649,9178.553681
592.471770,-222.061783,-0.000000,9474.636058
592.472093,-296.082377,-0.000000,9400.615463
592.472416,0.000000,-0.000000,9400.615463
592.472738,-222.061783,-0.000000,9400.615463
592.473061,-370.102971,459.657299,9326.594869
592.473384,-296.082377,-0.000000,9326.594869
592.473706,-222.061783,383.047749,9400.615463
592.474029,0.000000,-0.000000,9326.594869
592.474352,222.061783,229.828649,9474.636058
592.474674,-148.041188,-0.000000,9252.574275
592.474997,-296.082377,-0.000000,9326.594869
592.475320,-148.041188,-0.000000,9252.574275
592.475642,0.000000,-0.000000,9252.574275
592.475965,-296.082377,-0.000000,9548.656652
592.476288,-296.082377,459.657299,9474.636058
592.476610,0.000000,-0.000000,9474.636058
592.476933,0.000000,306.438199,9326.594869
592.477256,-296.082377,-153.219100,8956.491898
592.477579,0.000000,383.047749,9400.615463
592.477901,-296.082377,229.828649,9400.615463
592.478224,-222.061783,-0.000000,9400.615463
592.478547,-222.061783,-0.000000,9326.594869
592.478869,-148.041188,306.438199,9178.553681
592.479192,-296.082377,-0.000000,9400.615463
592.479515,-148.041188,229.828649,9400.615463
592.479837,-148.041188,229.828649,9326.594869
592.480160,222.061783,-0.000000,9326.594869
592.480483,-148.041188,-0.000000,9474.636058
592.480805,-148.041188,153.219100,9400.615463
592.481128,-370.102971,153.219100,9400.615463
592.481451,-148.041188,-306.438199,9474.636058
592.481773,-148.041188,-0.000000,9474.636058
592.482096,-148.041188,-0.000000,9326.594869
592.482419,-222.061783,153.219100,9474.636058
592.482741,-370.102971,-0.000000,9400.615463
592.483064,0.000000,306.438199,9326.594869
592.483387,0.000000,-0.000000,9474.636058
592.483710,-222.061783,229.828649,9400.615463
592.484032,-148.041188,229.828649,9474.636058
592.484355,-296.082377,612.876398,9770.718434
592.484678,-296.082377,229.828649,9400.615463
592.485000,0.000000,229.828649,9400.615463
592.485323,-222.061783,-0.000000,9474.636058
592.485646,-148.041188,-0.000000,9474.636058
592.485968,-222.061783,229.828649,9178.553681
592.486291,-74.020594,-0.000000,9400.615463
592.486614,0.000000,-0.000000,9400.615463
592.486936,0.000000,229.828649,9400.615463
592.487259,0.000000,-76.609550,9474.636058
592.487582,0.000000,383.047749,9326.594869
592.487905,-296.082377,383.047749,9326.594869
592.488227,-148.041188,153.219100,9474.636058
592.488550,-518.144159,-0.000000,10066.800811
592.488873,-222.061783,153.219100,9474.636058
592.489195,-148.041188,229.828649,9326.594869
592.489518,0.000000,-0.000000,9326.594869
592.489841,0.000000,383.047749,9104.533087
592.490163,-518.144159,229.828649,9474.636058
592.490486,-296.082377,-0.000000,9548.656652
592.490809,0.000000,229.828649,9474.636058
592.491131,-148.041188,-0.000000,9400.615463
592.491454,74.020594,229.828649,9030.512492
592.491777,0.000000,153.219100,9400.615463
592.492099,-148.041188,-0.000000,9474.636058
592.492422,0.000000,306.438199,9400.615463
592.492745,0.000000,-229.828649,9696.697840
592.493068,-296.082377,229.828649,9474.636058
592.493390,-148.041188,229.828649,9326.594869
592.493713,-148.041188,306.438199,9326.594869
592.494036,0.000000,229.828649,9326.594869
592.494358,-222.061783,383.047749,9474.636058
592.494681,0.000000,306.438199,9326.594869
592.495004,-222.061783,153.219100,9474.636058
592.495326,-148.041188,229.828649,9326.594869
592.495649,518.144159,229.828649,9326.594869
592.495972,0.000000,153.219100,9474.636058
592.496294,-148.041188,-0.000000,9400.615463
592.496617,-148.041188,-0.000000,9474.636058
592.496940,0.000000,153.219100,9474.636058
592.497263,0.000000,459.657299,9400.615463
592.497585,-296.082377,-76.609550,9400.615463
592.497908,-296.082377,229.828649,9548.656652
592.498231,-370.102971,229.828649,9400.615463
592.498553,0.000000,306.438199,9400.615463
592.498876,-148.041188,76.609550,9400.615463
592.499199,0.000000,229.828649,9252.574275
592.499521,-148.041188,153.219100,9400.615463
592.499844,-222.061783,153.219100,9474.636058
592.500167,-148.041188,229.828649,9474.636058
592.500489,0.000000,306.438199,9252.574275
592.500812,0.000000,306.438199,9400.615463
592.501135,-444.123565,229.828649,9474.636058
592.501457,0.000000,-0.000000,9400.615463
592.501780,-296.082377,153.219100,9400.615463
592.502103,0.000000,-0.000000,9326.594869
592.502426,-222.061783,383.047749,9474.636058
592.502748,222.061783,-76.609550,9400.615463
592.503071,-148.041188,153.219100,9474.636058
592.503394,-370.102971,229.828649,9474.636058
592.503716,-296.082377,-0.000000,9326.594869
592.504039,-222.061783,-153.219100,9474.636058
592.504362,-222.061783,306.438199,9622.677246
592.504684,0.000000,383.047749,9400.615463
592.505007,0.000000,229.828649,9474.636058
592.505330,0.000000,229.828649,9104.533087
592.505652,-222.061783,383.047749,9104.533087
592.505975,-296.082377,-0.000000,9400.615463
592.506298,-148.041188,229.828649,9252.574275
592.506621,-148.041188,-0.000000,9400.615463
592.506943,74.020594,306.438199,9548.656652
592.507266,-222.061783,229.828649,9400.615463
592.507589,-222.061783,383.047749,9178.553681
592.507911,0.000000,306.438199,9400.615463
592.508234,-296.082377,153.219100,9548.656652
592.508557,-444.123565,383.047749,9474.636058
592.508879,-148.041188,306.438199,9326.594869
592.509202,-148.041188,229.828649,9474.636058
592.509525,-148.041188,-0.000000,9474.636058
592.509847,-370.102971,459.657299,9548.656652
592.510170,-222.061783,-0.000000,9474.636058
592.510493,0.000000,-0.000000,9400.615463
592.510816,-148.041188,229.828649,9326.594869
592.511138,0.000000,536.266849,9548.656652
592.511461,0.000000,-0.000000,9326.594869
592.511784,0.000000,229.828649,9474.636058
592.512106,0.000000,306.438199,9400.615463
592.512429,0.000000,306.438199,9252.574275
592.512752,0.000000,-0.000000,9400.615463
592.513074,0.000000,-0.000000,9326.594869
592.513397,-296.082377,-0.000000,9326.594869
592.513720,0.000000,153.219100,9400.615463
592.514042,0.000000,-306.438199,9474.636058
592.514365,-296.082377,306.438199,9400.615463
592.514688,-370.102971,229.828649,9474.636058
592.515010,-74.020594,459.657299,9400.615463
592.515333,0.000000,383.047749,9400.615463
592.515656,-222.061783,306.438199,9400.615463
592.515979,-296.082377,229.828649,9474.636058
592.516301,-222.061783,306.438199,9474.636058
592.516624,-148.041188,-0.000000,9400.615463
592.516947,0.000000,459.657299,9178.553681
592.517269,-296.082377,306.438199,9326.594869
592.517592,-222.061783,153.219100,9178.553681
592.517915,-222.061783,306.438199,9252.574275
592.518237,0.000000,-0.000000,9326.594869
592.518560,0.000000,-0.000000,9400.615463
592.518883,0.000000,-0.000000,9178.553681
592.519205,0.000000,-0.000000,9252.574275
592.519528,0.000000,229.828649,9474.636058
592.519851,-296.082377,383.047749,9252.574275
592.520174,-148.041188,76.609550,9252.574275
592.520496,0.000000,-0.000000,9400.615463
592.520819,0.000000,383.047749,9178.553681
592.521142,148.041188,-459.657299,9104.533087
592.521464,-222.061783,153.219100,9474.636058
592.521787,-444.123565,-0.000000,9178.553681
592.522110,0.000000,-0.000000,9474.636058
592.522432,-222.061783,-0.000000,9770.718434
592.522755,-296.082377,153.219100,9178.553681
592.523078,-296.082377,459.657299,9474.636058
592.523400,-296.082377,-0.000000,9474.636058
592.523723,0.000000,306.438199,9474.636058
592.524046,-592.164754,-0.000000,9400.615463
592.524368,0.000000,153.219100,9474.636058
592.524691,0.000000,306.438199,9474.636058
592.525014,0.000000,-0.000000,9474.636058
592.525337,0.000000,306.438199,9622.677246
592.525659,-148.041188,-0.000000,9474.636058
592.525982,0.000000,153.219100,9326.594869
592.526305,-148.041188,383.047749,9474.636058
592.526627,-148.041188,229.828649,9548.656652
592.526950,0.000000,383.047749,9252.574275
592.527273,-296.082377,229.828649,9400.615463
592.527595,0.000000,153.219100,9252.574275
592.527918,-148.041188,153.219100,9400.615463
592.528241,0.000000,-76.609550,9548.656652
592.528563,0.000000,229.828649,9474.636058
592.528886,-222.061783,-0.000000,9326.594869
592.529209,-370.102971,229.828649,9474.636058
592.529532,-148.041188,612.876398,9474.636058
592.529854,0.000000,153.219100,9548.656652
592.530177,-148.041188,-0.000000,9400.615463
592.530500,-148.041188,383.047749,9474.636058
592.530822,-296.082377,306.438199,9474.636058
592.531145,0.000000,-0.000000,9178.553681
592.531468,0.000000,-0.000000,9326.594869
592.531790,-222.061783,-0.000000,9326.594869
592.532113,0.000000,-0.000000,9400.615463
592.532436,0.000000,-229.828649,9104.533087
592.532758,0.000000,-0.000000,9326.594869
592.533081,0.000000,-0.000000,9252.574275
592.533404,0.000000,306.438199,9326.594869
592.533726,-222.061783,383.047749,9400.615463
592.534049,-222.061783,-0.000000,9474.636058
592.534372,-222.061783,229.828649,9400.615463
592.534695,-296.082377,153.219100,9178.553681
592.535017,-222.061783,229.828649,9252.574275
592.535340,-148.041188,-0.000000,9474.636058
592.535663,0.000000,-0.000000,9400.615463
592.535985,-370.102971,153.219100,9400.615463
592.536308,0.000000,306.438199,9326.594869
592.536631,-370.102971,383.047749,9474.636058
592.536953,-148.041188,153.219100,9474.636058
592.537276,0.000000,306.438199,9400.615463
592.537599,-222.061783,-0.000000,9474.636058
592.537921,-222.061783,153.219100,9326.594869
592.538244,0.000000,-0.000000,9326.594869
592.538567,0.000000,153.219100,9252.574275
592.538890,0.000000,459.657299,9474.636058
592.539212,-370.102971,-0.000000,9474.636058
592.539535,222.061783,-459.657299,9178.553681
592.539858,-148.041188,153.219100,9474.636058
592.540180,0.000000,306.438199,9252.574275
592.540503,0.000000,-0.000000,9326.594869
592.540826,-148.041188,-76.609550,9474.636058
592.541148,-148.041188,229.828649,9474.636058
592.541471,0.000000,229.828649,9474.636058
592.541794,-370.102971,383.047749,9400.615463
592.542116,0.000000,306.438199,9326.594869
592.542439,222.061783,153.219100,9326.594869
592.542762,-148.041188,153.219100,9474.636058
592.543085,-222.061783,229.828649,9474.636058
592.543407,-148.041188,153.219100,9252.574275
592.543730,0.000000,-383.047749,9474.636058
592.544053,-222.061783,383.047749,9474.636058
592.544375,-222.061783,-0.000000,9474.636058
592.544698,-148.041188,229.828649,9474.636058
592.545021,0.000000,229.828649,9400.615463
592.545343,0.000000,153.219100,9326.594869
592.545666,0.000000,-0.000000,9474.636058
592.545989,-222.061783,383.047749,9400.615463
592.546311,-222.061783,229.828649,9474.636058
592.546634,0.000000,-0.000000,9622.677246
592.546957,0.000000,153.219100,9326.594869
592.547279,0.000000,-0.000000,9326.594869
592.547602,-222.061783,-0.000000,9326.594869
592.547925,0.000000,306.438199,9622.677246
592.548248,-296.082377,306.438199,9474.636058
592.548570,-148.041188,-0.000000,9474.636058
592.548893,-222.061783,306.438199,9326.594869
592.549216,-296.082377,-0.000000,9326.594869
592.549538,296.082377,-0.000000,9252.574275
592.549861,-148.041188,383.047749,9474.636058
592.550184,-296.082377,306.438199,9474.636058
592.550506,-148.041188,76.609550,9326.594869
592.550829,-222.061783,-229.828649,9622.677246
592.551152,0.000000,-0.000000,9400.615463
592.551474,-296.082377,229.828649,9548.656652
592.551797,-592.164754,306.438199,9474.636058
592.552120,-222.061783,-0.000000,9178.553681
592.552443,-296.082377,-0.000000,9474.636058
592.552765,-222.061783,153.219100,9252.574275
592.553088,-296.082377,229.828649,9548.656652
592.553411,-370.102971,-0.000000,9474.636058
592.553733,518.144159,229.828649,9178.553681
592.554056,-148.041188,383.047749,9400.615463
592.554379,-148.041188,-0.000000,9326.594869
592.554701,0.000000,153.219100,9474.636058
592.555024,-370.102971,-919.314598,9326.594869
592.555347,0.000000,229.828649,9178.553681
592.555669,0.000000,-0.000000,9474.636058
592.555992,-222.061783,-0.000000,9178.553681
592.556315,-148.041188,-0.000000,9474.636058
592.556637,0.000000,-0.000000,9474.636058
592.556960,0.000000,-0.000000,9548.656652
592.557283,-222.061783,229.828649,9400.615463
592.557606,-148.041188,229.828649,9474.636058
592.557928,-370.102971,-0.000000,9844.739029
592.558251,0.000000,-0.000000,9474.636058
592.558574,-296.082377,153.219100,9400.615463
592.558896,0.000000,383.047749,9326.594869
592.559219,-222.061783,306.438199,9474.636058
592.559542,0.000000,229.828649,9326.594869
592.559864,0.000000,229.828649,9474.636058
592.560187,-296.082377,229.828649,9474.636058
592.560510,-296.082377,-0.000000,9400.615463
592.560832,0.000000,459.657299,9474.636058
592.561155,0.000000,306.438199,9326.594869
592.561478,0.000000,-0.000000,9326.594869
592.561801,-222.061783,-0.000000,9400.615463
592.562123,0.000000,-383.047749,9326.594869
592.562446,-148.041188,-0.000000,9400.615463
592.562769,-148.041188,229.828649,9326.594869
592.563091,-370.102971,-0.000000,9474.636058
592.563414,-296.082377,-0.000000,9474.636058
592.563737,-148.041188,383.047749,9474.636058
592.564059,0.000000,229.828649,9400.615463
592.564382,-296.082377,306.438199,9252.574275
592.564705,0.000000,459.657299,9178.553681
592.565027,222.061783,536.266849,9400.615463
592.565350,-148.041188,-0.000000,9474.636058
592.565673,-74.020594,306.438199,9474.636058
592.565995,-222.061783,-0.000000,9326.594869
592.566318,-296.082377,-0.000000,9474.636058
592.566641,-296.082377,229.828649,9326.594869
592.566964,-296.082377,229.828649,9326.594869
592.567286,-148.041188,-0.000000,9548.656652
592.567609,-222.061783,-0.000000,9474.636058
592.567932,-222.061783,229.828649,9474.636058
592.568254,-74.020594,306.438199,9326.594869
592.568577,0.000000,229.828649,9178.553681
592.568900,-296.082377,229.828649,9474.636058
592.569222,-592.164754,-0.000000,9548.656652
592.569545,-148.041188,229.828649,9474.636058
592.569868,-222.061783,306.438199,9400.615463
592.570190,-148.041188,-0.000000,9400.615463
592.570513,-222.061783,-0.000000,9326.594869
592.570836,0.000000,306.438199,9326.594869
592.571159,-296.082377,-0.000000,9178.553681
592.571481,-148.041188,153.219100,9252.574275
592.571804,0.000000,229.828649,9474.636058
592.572127,0.000000,536.266849,9400.615463
592.572449,0.000000,383.047749,9400.615463
592.572772,0.000000,-0.000000,9400.615463
592.573095,-222.061783,-0.000000,9252.574275
592.573417,0.000000,-229.828649,9326.594869
592.573740,74.020594,229.828649,9474.636058
592.574063,-296.082377,229.828649,9474.636058
592.574385,-222.061783,383.047749,9474.636058
592.574708,-222.061783,-0.000000,9178.553681
592.575031,0.000000,306.438199,9474.636058
592.575353,-148.041188,306.438199,9326.594869
592.575676,-148.041188,-0.000000,9178.553681
592.575999,-222.061783,306.438199,9474.636058
592.576322,-444.123565,383.047749,9770.718434
592.576644,0.000000,-0.000000,9400.615463
592.576967,0.000000,153.219100,9400.615463
592.577290,0.000000,-0.000000,9474.636058
592.577612,-296.082377,153.219100,9400.615463
592.577935,-74.020594,306.438199,9178.553681
592.578258,-444.123565,306.438199,9474.636058
592.578580,0.000000,-0.000000,9326.594869
592.578903,-148.041188,-0.000000,9474.636058
592.579226,74.020594,-76.609550,9474.636058
592.579548,0.000000,459.657299,9474.636058
592.579871,-222.061783,-0.000000,9326.594869
592.580194,0.000000,-0.000000,9474.636058
592.580517,0.000000,-306.438199,9474.636058
592.580839,-444.123565,153.219100,9474.636058
592.581162,-222.061783,153.219100,9474.636058
592.581485,-296.082377,153.219100,9474.636058
592.581807,-222.061783,-0.000000,9474.636058
592.582130,0.000000,383.047749,9252.574275
592.582453,-222.061783,-0.000000,9326.594869
592.582775,0.000000,306.438199,9474.636058
592.583098,0.000000,-0.000000,9474.636058
592.583421,370.102971,153.219100,9178.553681
592.583743,0.000000,-0.000000,9326.594869
592.584066,0.000000,229.828649,9326.594869
592.584388,-148.041188,153.219100,9326.594869
592.584711,-222.061783,-459.657299,9326.594869
592.585034,-148.041188,153.219100,9474.636058
592.585356,0.000000,-0.000000,9326.594869
592.585679,-222.061783,-0.000000,9474.636058
592.586002,-296.082377,-0.000000,9474.636058
592.586324,0.000000,-0.000000,9474.636058
592.586647,-370.102971,-0.000000,9178.553681
592.586969,-296.082377,-0.000000,9326.594869
592.587292,-148.041188,229.828649,9400.615463
592.587615,0.000000,-76.609550,9326.594869
592.587937,0.000000,-0.000000,9400.615463
592.588260,-296.082377,306.438199,9326.594869
592.588583,-370.102971,153.219100,9400.615463
592.588905,-222.061783,306.438199,9474.636058
592.589228,-222.061783,153.219100,9474.636058
592.589550,0.000000,-0.000000,9252.574275
592.589873,0.000000,306.438199,9400.615463
592.590196,-148.041188,-0.000000,9400.615463
592.590518,-370.102971,383.047749,9474.636058
592.590841,-222.061783,-0.000000,9400.615463
592.591164,-148.041188,-0.000000,9252.574275
592.591486,-222.061783,229.828649,9622.677246
592.591809,-222.061783,459.657299,9474.636058
592.592131,-296.082377,229.828649,9474.636058
592.592454,-222.061783,306.438199,9400.615463
592.592777,-148.041188,153.219100,9474.636058
592.593099,-74.020594,-0.000000,9474.636058
592.593422,-518.144159,-0.000000,9252.574275
592.593745,-296.082377,-0.000000,9474.636058
592.594067,0.000000,229.828649,9474.636058
592.594390,-148.041188,536.266849,9474.636058
592.594713,222.061783,306.438199,9252.574275
592.595035,0.000000,-0.000000,9326.594869
592.595358,0.000000,229.828649,9474.636058
592.595680,-222.061783,306.438199,9474.636058
592.596003,-148.041188,-0.000000,9400.615463
592.596326,-222.061783,306.438199,9474.636058
592.596648,-148.041188,-0.000000,9474.636058
592.596971,-222.061783,-0.000000,9400.615463
592.597294,0.000000,-0.000000,9326.594869
592.597616,0.000000,459.657299,9104.533087
592.597939,0.000000,229.828649,9252.574275
592.598261,0.000000,-0.000000,9400.615463
592.598584,0.000000,-0.000000,9474.636058
592.598907,-148.041188,306.438199,9400.615463
592.599229,0.000000,-0.000000,9178.553681
592.599552,0.000000,153.219100,9252.574275
592.599875,-370.102971,383.047749,9622.677246
592.600197,-296.082377,-0.000000,9400.615463
592.600520,-370.102971,459.657299,9474.636058
592.600842,-296.082377,-0.000000,9400.615463
592.601165,-222.061783,229.828649,9252.574275
592.601488,0.000000,-0.000000,9474.636058
592.601810,-148.041188,306.438199,9400.615463
592.602133,-296.082377,153.219100,9326.594869
592.602456,0.000000,383.047749,9326.594869
592.602778,0.000000,229.828649,9400.615463
592.603101,0.000000,229.828649,9252.574275
592.603423,-296.082377,-0.000000,9326.594869
592.603746,-296.082377,-0.000000,9474.636058
592.604069,-222.061783,229.828649,9474.636058
592.604391,0.000000,306.438199,9326.594869
592.604714,-296.082377,-229.828649,9474.636058
592.605037,-296.082377,-76.609550,9474.636058
592.605359,0.000000,-0.000000,9400.615463
592.605682,-148.041188,-0.000000,9326.594869
592.606005,0.000000,612.876398,9548.656652
592.606327,-148.041188,-0.000000,9400.615463
592.606650,-222.061783,-0.000000,9400.615463
592.606972,-370.102971,-0.000000,9474.636058
592.607295,-148.041188,-0.000000,9326.594869
592.607618,-296.082377,153.219100,9474.636058
592.607940,-222.061783,229.828649,9400.615463
592.608263,0.000000,229.828649,9326.594869
592.608586,-296.082377,229.828649,9326.594869
592.608908,-222.061783,383.047749,9400.615463
592.609231,0.000000,-0.000000,9252.574275
592.609553,-296.082377,306.438199,9474.636058
592.609876,-296.082377,229.828649,9326.594869
592.610199,0.000000,229.828649,9400.615463
592.610521,0.000000,-0.000000,9400.615463
592.610844,-148.041188,-153.219100,9400.615463
592.611167,0.000000,-0.000000,9474.636058
592.611489,-222.061783,-0.000000,9326.594869
592.611812,0.000000,383.047749,9252.574275
592.612134,-148.041188,-0.000000,9252.574275
592.612457,-370.102971,229.828649,9400.615463
592.612780,-296.082377,-0.000000,9326.594869
592.613102,74.020594,-383.047749,9474.636058
592.613425,74.020594,229.828649,9326.594869
592.613748,-222.061783,153.219100,9474.636058
592.614070,0.000000,306.438199,9326.594869
592.614393,-370.102971,306.438199,9474.636058
592.614715,-296.082377,-0.000000,9548.656652
592.615038,-222.061783,306.438199,9252.574275
592.615361,-296.082377,-0.000000,9326.594869
592.615683,0.000000,153.219100,9400.615463
592.616006,0.000000,153.219100,9548.656652
592.616329,-222.061783,229.828649,9474.636058
592.616651,0.000000,153.219100,9400.615463
592.616974,-148.041188,306.438199,9326.594869
592.617297,0.000000,459.657299,9326.594869
592.617619,0.000000,306.438199,9178.553681
592.617942,-370.102971,153.219100,9474.636058
592.618264,-370.102971,229.828649,9326.594869
592.618587,-148.041188,229.828649,9326.594869
592.618910,0.000000,-0.000000,9474.636058
592.619232,0.000000,153.219100,9474.636058
592.619555,-296.082377,383.047749,9474.636058
592.619878,0.000000,-0.000000,9178.553681
592.620200,0.000000,-229.828649,9770.718434
592.620523,-370.102971,229.828649,9326.594869
592.620845,-518.144159,-0.000000,9400.615463
592.621168,-222.061783,-0.000000,9474.636058
592.621491,0.000000,229.828649,9252.574275
592.621813,-370.102971,-0.000000,9326.594869
592.622136,-370.102971,-0.000000,9326.594869
592.622459,-222.061783,153.219100,9252.574275
592.622781,0.000000,229.828649,9178.553681
592.623104,0.000000,459.657299,9770.718434
592.623426,-296.082377,-76.609550,9252.574275
592.623749,-148.041188,-0.000000,9400.615463
592.624072,-296.082377,-0.000000,9474.636058
592.624394,0.000000,-76.609550,8882.471304
592.624717,-296.082377,153.219100,9474.636058
592.625040,0.000000,229.828649,9474.636058
592.625362,0.000000,-0.000000,9326.594869
592.625685,-296.082377,153.219100,9178.553681
592.626007,-148.041188,306.438199,9252.574275
592.626330,-296.082377,-0.000000,9400.615463
592.626653,-370.102971,-76.609550,9326.594869
592.626975,0.000000,-0.000000,9474.636058
592.627298,0.000000,-0.000000,9178.553681
592.627621,0.000000,-0.000000,9326.594869
592.627943,-148.041188,153.219100,9326.594869
592.628266,-296.082377,306.438199,9474.636058
592.628589,0.000000,306.438199,9400.615463
592.628911,-148.041188,-0.000000,9474.636058
592.629234,-296.082377,229.828649,9474.636058
592.629556,-222.061783,383.047749,9474.636058
592.629879,-296.082377,-0.000000,9326.594869
592.630202,-222.061783,153.219100,9548.656652
592.630524,0.000000,459.657299,9252.574275
592.630847,-222.061783,383.047749,9400.615463
592.631170,-222.061783,229.828649,9326.594869
592.631492,0.000000,306.438199,9252.574275
592.631815,-296.082377,153.219100,9474.636058
592.632137,0.000000,-0.000000,9474.636058
592.632460,-222.061783,153.219100,9400.615463
592.632783,-148.041188,229.828649,9326.594869
592.633105,-222.061783,153.219100,9252.574275
592.633428,0.000000,229.828649,9326.594869
592.633751,-148.041188,-0.000000,9548.656652
592.634073,-148.041188,383.047749,9400.615463
592.634396,-148.041188,766.095498,9696.697840
592.634718,-222.061783,306.438199,9400.615463
592.635041,-222.061783,229.828649,9474.636058
592.635364,-222.061783,-0.000000,9474.636058
592.635686,0.000000,306.438199,9548.656652
592.636009,-370.102971,229.828649,9474.636058
592.636332,-296.082377,-0.000000,9474.636058
592.636654,-370.102971,-0.000000,9474.636058
592.636977,0.000000,306.438199,9252.574275
592.637299,74.020594,-0.000000,9326.594869
592.637622,0.000000,-0.000000,9252.574275
592.637945,-222.061783,-0.000000,9474.636058
592.638267,-370.102971,-0.000000,9400.615463
592.638590,-296.082377,-229.828649,9474.636058
592.638913,-444.123565,153.219100,9252.574275
592.639235,-296.082377,-0.000000,9400.615463
592.639558,-222.061783,76.609550,9474.636058
592.639881,-148.041188,229.828649,9326.594869
592.640203,0.000000,306.438199,9474.636058
592.640526,0.000000,-0.000000,9474.636058
592.640848,-148.041188,-0.000000,9400.615463
592.641171,-296.082377,-0.000000,9178.553681
592.641494,-296.082377,-0.000000,9622.677246
592.641816,0.000000,153.219100,9474.636058
592.642139,0.000000,-0.000000,9400.615463
592.642462,-444.123565,229.828649,9252.574275
592.642784,0.000000,306.438199,9252.574275
592.643107,-222.061783,76.609550,9400.615463
592.643429,0.000000,229.828649,9252.574275
592.643752,-148.041188,153.219100,9400.615463
592.644075,-222.061783,229.828649,9474.636058
592.644397,0.000000,383.047749,9474.636058
592.644720,-222.061783,-0.000000,9178.553681
592.645043,-222.061783,229.828649,9548.656652
592.645365,-222.061783,229.828649,9474.636058
592.645688,296.082377,689.485948,9252.574275
592.646010,0.000000,-0.000000,9252.574275
592.646333,0.000000,76.609550,9252.574275
592.646656,-222.061783,-0.000000,9474.636058
592.646978,-148.041188,-612.876398,9474.636058
592.647301,0.000000,-0.000000,9474.636058
592.647624,0.000000,153.219100,9178.553681
592.647946,-148.041188,383.047749,9474.636058
592.648269,0.000000,306.438199,9400.615463
592.648591,0.000000,383.047749,9844.739029
592.648914,0.000000,306.438199,9548.656652
592.649237,-296.082377,306.438199,9252.574275
592.649559,74.020594,-0.000000,9104.533087
592.649882,0.000000,383.047749,9548.656652
592.650205,-296.082377,459.657299,9474.636058
592.650527,-74.020594,383.047749,9400.615463
592.650850,-148.041188,-0.000000,9400.615463
592.651173,0.000000,153.219100,9400.615463
592.651495,-370.102971,306.438199,9326.594869
592.651818,-222.061783,-0.000000,9326.594869
592.652140,-222.061783,229.828649,9400.615463
592.652463,-148.041188,383.047749,9400.615463
592.652786,0.000000,-76.609550,9400.615463
592.653108,0.000000,-0.000000,9178.553681
592.653431,-148.041188,306.438199,9252.574275
592.653754,-148.041188,383.047749,9326.594869
592.654076,-222.061783,-306.438199,9474.636058
592.654399,-148.041188,-0.000000,9474.636058
592.654721,0.000000,-0.000000,9252.574275
592.655044,0.000000,-0.000000,9326.594869
592.655367,-148.041188,383.047749,9474.636058
592.655689,-592.164754,383.047749,9252.574275
592.656012,-222.061783,-0.000000,9326.594869
592.656335,-222.061783,153.219100,9474.636058
592.656657,-296.082377,-0.000000,9252.574275
592.656980,296.082377,306.438199,9326.594869
592.657302,0.000000,306.438199,9178.553681
592.657625,-444.123565,-0.000000,9474.636058
592.657948,-222.061783,-0.000000,9326.594869
592.658270,-222.061783,229.828649,9326.594869
592.658593,-148.041188,-0.000000,9178.553681
592.658916,0.000000,229.828649,9326.594869
592.659238,0.000000,153.219100,9326.594869
592.659561,-222.061783,229.828649,9474.636058
592.659883,0.000000,-0.000000,9178.553681
592.660206,-296.082377,229.828649,9400.615463
592.660529,0.000000,-0.000000,9252.574275
592.660851,-148.041188,153.219100,9400.615463
592.661174,-222.061783,-153.219100,9844.739029
592.661497,0.000000,-0.000000,9474.636058
592.661819,-370.102971,306.438199,9474.636058
592.662142,-222.061783,-0.000000,9400.615463
592.662465,-222.061783,-0.000000,9400.615463
592.662787,-370.102971,-0.000000,9548.656652
592.663110,-222.061783,153.219100,9474.636058
592.663432,-222.061783,-0.000000,9400.615463
592.663755,-148.041188,-0.000000,9400.615463
592.664078,0.000000,306.438199,9474.636058
592.664400,-222.061783,-0.000000,9474.636058
592.664723,0.000000,-0.000000,9474.636058
592.665046,0.000000,153.219100,9400.615463
592.665368,-296.082377,-0.000000,9326.594869
592.665691,0.000000,153.219100,9474.636058
592.666013,-296.082377,459.657299,9400.615463
592.666336,-222.061783,153.219100,9326.594869
592.666659,0.000000,-0.000000,9474.636058
592.666981,-444.123565,-0.000000,9548.656652
592.667304,-222.061783,229.828649,9474.636058
592.667627,-296.082377,153.219100,9326.594869
592.667949,-222.061783,-0.000000,9400.615463
592.668272,-222.061783,383.047749,9474.636058
592.668594,-148.041188,-0.000000,9252.574275
592.668917,0.000000,-0.000000,9474.636058
592.669240,0.000000,383.047749,9474.636058
592.669562,-296.082377,-0.000000,9474.636058
592.669885,-296.082377,-0.000000,9548.656652
592.670208,-148.041188,229.828649,9474.636058
592.670530,0.000000,306.438199,9326.594869
592.670853,0.000000,306.438199,9400.615463
592.671175,-370.102971,229.828649,9474.636058
592.671498,-222.061783,153.219100,9474.636058
592.671821,-222.061783,-0.000000,9326.594869
592.672143,0.000000,153.219100,9400.615463
592.672466,-222.061783,-0.000000,9474.636058
592.672789,0.000000,229.828649,9252.574275
592.673111,0.000000,229.828649,9178.553681
592.673434,-296.082377,229.828649,9474.636058
592.673757,-148.041188,153.219100,9474.636058
592.674079,148.041188,-0.000000,9252.574275
592.674402,-222.061783,229.828649,9178.553681
592.674724,-148.041188,-0.000000,9326.594869
592.675047,-222.061783,-0.000000,9326.594869
592.675370,0.000000,-459.657299,9622.677246
592.675692,-370.102971,229.828649,9474.636058
592.676015,-148.041188,-0.000000,9326.594869
592.676338,-370.102971,153.219100,9400.615463
592.676660,-296.082377,153.219100,9474.636058
592.676983,-370.102971,459.657299,9400.615463
592.677305,-148.041188,153.219100,9474.636058
592.677628,0.000000,-0.000000,9400.615463
592.677951,0.000000,-0.000000,9400.615463
592.678273,-148.041188,-0.000000,8882.471304
592.678596,-148.041188,-0.000000,9474.636058
592.678919,-296.082377,-0.000000,9474.636058
592.679241,0.000000,229.828649,9252.574275
592.679564,0.000000,-229.828649,9474.636058
592.679886,0.000000,229.828649,9474.636058
592.680209,0.000000,153.219100,9252.574275
592.680532,-148.041188,306.438199,9474.636058
592.680854,-222.061783,383.047749,9400.615463
592.681177,-148.041188,536.266849,9178.553681
592.681500,-74.020594,153.219100,9252.574275
592.681822,-222.061783,306.438199,9474.636058
592.682145,-296.082377,-0.000000,9326.594869
592.682467,0.000000,-76.609550,9918.759623
592.682790,0.000000,306.438199,9326.594869
592.683113,-296.082377,-76.609550,9474.636058
592.683435,0.000000,306.438199,9474.636058
592.683758,-222.061783,536.266849,9474.636058
592.684081,-370.102971,-0.000000,9474.636058
592.684403,-222.061783,-0.000000,9400.615463
592.684726,-148.041188,-0.000000,9326.594869
592.685048,74.020594,153.219100,9252.574275
592.685371,-370.102971,612.876398,9548.656652
592.685694,-148.041188,-0.000000,9474.636058
592.686016,0.000000,229.828649,9400.615463
592.686339,-148.041188,306.438199,9474.636058
592.686662,0.000000,-383.047749,9178.553681
592.686984,0.000000,153.219100,9252.574275
592.687307,-148.041188,306.438199,9474.636058
592.687629,0.000000,-0.000000,9474.636058
592.687952,0.000000,-0.000000,9326.594869
592.688275,0.000000,-76.609550,9474.636058
592.688597,-222.061783,229.828649,9326.594869
592.688920,-296.082377,153.219100,9474.636058
592.689242,0.000000,306.438199,9326.594869
592.689565,-444.123565,-0.000000,9918.759623
592.689888,-296.082377,229.828649,9474.636058
592.690210,0.000000,306.438199,9252.574275
592.690533,-296.082377,383.047749,9178.553681
592.690856,-148.041188,-766.095498,9326.594869
592.691178,0.000000,153.219100,9178.553681
592.691501,-296.082377,229.828649,9400.615463
592.691823,-296.082377,229.828649,9178.553681
592.692146,-222.061783,383.047749,9474.636058
592.692469,-296.082377,153.219100,9104.533087
592.692791,0.000000,306.438199,9474.636058
592.693114,-370.102971,153.219100,9474.636058
592.693436,0.000000,-0.000000,9178.553681
592.693759,222.061783,-0.000000,9548.656652
592.694082,-296.082377,-0.000000,9326.594869
592.694404,-148.041188,-0.000000,9474.636058
592.694727,-222.061783,-0.000000,9474.636058
592.695050,0.000000,229.828649,9326.594869
592.695372,0.000000,229.828649,9178.553681
592.695695,-148.041188,306.438199,9474.636058
592.696017,0.000000,-0.000000,9326.594869
592.696340,0.000000,-0.000000,9326.594869
592.696663,0.000000,-383.047749,9548.656652
592.696985,-296.082377,-0.000000,9474.636058
592.697308,0.000000,229.828649,9104.533087
592.697631,0.000000,153.219100,9474.636058
592.697953,-296.082377,-306.438199,9326.594869
592.698276,-148.041188,229.828649,9548.656652
592.698598,0.000000,153.219100,9252.574275
592.698921,-222.061783,229.828649,9474.636058
592.699244,0.000000,-0.000000,9400.615463
592.699566,-592.164754,306.438199,9622.677246
592.699889,0.000000,459.657299,9326.594869
592.700211,-148.041188,229.828649,9474.636058
592.700534,-148.041188,229.828649,9400.615463
592.700857,296.082377,229.828649,9474.636058
592.701179,0.000000,536.266849,9252.574275
592.701502,-148.041188,-0.000000,9400.615463
592.701825,-222.061783,229.828649,9474.636058
592.702147,-296.082377,-0.000000,9474.636058
592.702470,-222.061783,-0.000000,9474.636058
592.702792,-222.061783,229.828649,9474.636058
592.703115,-370.102971,459.657299,9400.615463
592.703438,-296.082377,229.828649,9252.574275
592.703760,222.061783,153.219100,8882.471304
592.704083,-296.082377,229.828649,9474.636058
592.704405,-222.061783,153.219100,9326.594869
592.704728,0.000000,459.657299,9326.594869
592.705051,-444.123565,-0.000000,9622.677246
592.705373,-148.041188,-0.000000,9474.636058
592.705696,-222.061783,306.438199,9474.636058
592.706019,-222.061783,-0.000000,9400.615463
592.706341,0.000000,-0.000000,9326.594869
592.706664,-370.102971,-76.609550,9474.636058
592.706986,-296.082377,-0.000000,9474.636058
592.707309,0.000000,306.438199,9252.574275
592.707632,-222.061783,229.828649,9400.615463
592.707954,-222.061783,536.266849,9548.656652
592.708277,-222.061783,306.438199,9474.636058
592.708600,0.000000,153.219100,9400.615463
592.708922,-222.061783,229.828649,9400.615463
592.709245,74.020594,-0.000000,9252.574275
592.709567,0.000000,153.219100,9252.574275
592.709890,-296.082377,-0.000000,9474.636058
592.710213,-148.041188,229.828649,9400.615463
592.710535,-148.041188,306.438199,9400.615463
592.710858,-222.061783,-0.000000,9326.594869
592.711180,-148.041188,-0.000000,9474.636058
592.711503,-444.123565,383.047749,9548.656652
592.711826,0.000000,153.219100,9178.553681
592.712148,-148.041188,919.314598,9548.656652
592.712471,-222.061783,-0.000000,9400.615463
592.712794,0.000000,306.438199,9178.553681
592.713116,-148.041188,383.047749,9326.594869
592.713439,-222.061783,-0.000000,9474.636058
592.713761,-370.102971,383.047749,9400.615463
592.714084,0.000000,306.438199,9326.594869
592.714407,0.000000,-0.000000,9400.615463
592.714729,-222.061783,383.047749,9400.615463
592.715052,222.061783,-612.876398,9178.553681
592.715374,-222.061783,-0.000000,9400.615463
592.715697,0.000000,229.828649,9400.615463
592.716020,0.000000,229.828649,9326.594869
592.716342,0.000000,153.219100,9770.718434
592.716665,0.000000,153.219100,9178.553681
592.716988,-222.061783,153.219100,9326.594869
592.717310,-222.061783,306.438199,9474.636058
592.717633,-148.041188,-0.000000,9474.636058
592.717955,-148.041188,-0.000000,9474.636058
592.718278,0.000000,-0.000000,9474.636058
592.718601,-148.041188,229.828649,9400.615463
592.718923,0.000000,383.047749,9252.574275
592.719246,-296.082377,536.266849,9474.636058
592.719569,-222.061783,229.828649,9474.636058
592.719891,-370.102971,306.438199,9400.615463
592.720214,-444.123565,153.219100,9400.615463
592.720536,0.000000,-0.000000,9252.574275
592.720859,-222.061783,306.438199,9400.615463
592.721182,-296.082377,383.047749,9326.594869
592.721504,0.000000,-0.000000,9400.615463
592.721827,-222.061783,153.219100,9400.615463
592.722149,0.000000,-0.000000,9178.553681
592.722472,-222.061783,153.219100,9400.615463
592.722795,-296.082377,-0.000000,9104.533087
592.723117,0.000000,-0.000000,9474.636058
592.723440,-592.164754,153.219100,9474.636058
592.723763,-148.041188,-0.000000,9252.574275
592.724085,-222.061783,229.828649,9400.615463
592.724408,0.000000,-0.000000,9326.594869
592.724730,-296.082377,383.047749,9400.615463
592.725053,-296.082377,459.657299,9326.594869
592.725376,0.000000,153.219100,9400.615463
592.725698,-222.061783,383.047749,9400.615463
592.726021,-148.041188,-0.000000,9326.594869
592.726343,0.000000,-612.876398,9104.533087
592.726666,0.000000,153.219100,9474.636058
592.726989,0.000000,229.828649,9474.636058
592.727311,0.000000,-0.000000,9252.574275
592.727634,-148.041188,153.219100,9326.594869
592.727957,-296.082377,-0.000000,9326.594869
592.728279,0.000000,-0.000000,9178.553681
592.728602,0.000000,153.219100,9474.636058
592.728924,-296.082377,-0.000000,9474.636058
592.729247,-222.061783,306.438199,9844.739029
592.729570,0.000000,153.219100,9326.594869
592.729892,-296.082377,153.219100,9400.615463
