#time,accel_x,accel_y,accel_z
205.350864,4885.359217,8142.265362,0.000000
205.351185,4885.359217,8068.244768,-306.438199
205.351506,5033.400406,8068.244768,-229.828649
205.351826,4885.359217,7920.203579,-306.438199
205.352147,5107.421000,7994.224174,76.609550
205.352468,4737.318029,8068.244768,76.609550
205.352788,5107.421000,7994.224174,0.000000
205.353109,4885.359217,8142.265362,0.000000
205.353430,4959.379811,8142.265362,-153.219100
205.353751,5181.441594,8216.285956,-306.438199
205.354071,4959.379811,8142.265362,0.000000
205.354392,5033.400406,7920.203579,0.000000
205.354713,4885.359217,8216.285956,-306.438199
205.355033,5329.482782,7846.182985,0.000000
205.355354,5181.441594,8142.265362,-383.047749
205.355675,5107.421000,7920.203579,-306.438199
205.355996,4811.338623,7920.203579,-306.438199
205.356316,4959.379811,8068.244768,-229.828649
205.356637,5181.441594,8290.306550,0.000000
205.356958,4811.338623,8142.265362,-153.219100
205.357279,4811.338623,7920.203579,-459.657299
205.357599,4959.379811,8216.285956,-229.828649
205.357920,5033.400406,7994.224174,-306.438199
205.358241,4959.379811,8068.244768,153.219100
205.358561,4737.318029,8586.388927,-153.219100
205.358882,4959.379811,8068.244768,0.000000
205.359203,5255.462188,7994.224174,-229.828649
205.359524,5033.400406,8216.285956,-229.828649
205.359844,5033.400406,8068.244768,-153.219100
205.360165,5033.400406,7994.224174,-153.219100
205.360486,5033.400406,8142.265362,-153.219100
205.360806,4959.379811,7994.224174,-229.828649
205.361127,5033.400406,7846.182985,-306.438199
205.361448,4959.379811,8512.368333,0.000000
205.361769,4885.359217,8142.265362,0.000000
205.362089,5033.400406,8142.265362,0.000000
205.362410,4885.359217,7994.224174,0.000000
205.362731,4811.338623,7994.224174,0.000000
205.363051,4515.256246,7624.121203,-536.266849
205.363372,4145.153275,7402.059420,-76.609550
205.363693,4367.215058,7994.224174,-306.438199
205.364014,4737.318029,9252.574275,-612.876398
205.364334,4663.297435,9548.656652,-1072.533697
205.364655,4737.318029,9474.636058,-1302.362347
205.364976,3923.091493,9030.512492,-766.095498
205.365296,3775.050304,8512.368333,0.000000
205.365617,3108.864956,9104.533087,1455.581446
205.365938,2960.823768,9400.615463,919.314598
205.366259,2664.741391,9104.533087,229.828649
205.366579,2738.761985,8438.347739,-383.047749
205.366900,2960.823768,7994.224174,-766.095498
205.367221,2886.803174,8734.430116,-536.266849
205.367542,2886.803174,9474.636058,229.828649
205.367862,2590.720797,9104.533087,0.000000
205.368183,2368.659014,8882.471304,76.609550
205.368504,2368.659014,9474.636058,-153.219100
205.368824,2368.659014,10881.027347,-919.314598
205.369145,2072.576638,11843.295072,-1302.362347
205.369466,1406.391290,12213.398043,-1685.410096
205.369787,1184.329507,11621.233289,-1378.971896
205.370107,222.061783,11177.109724,-1838.629195
205.370428,-518.144159,11325.150913,-1225.752797
205.370749,-1258.350101,12065.356855,-383.047749
205.371069,-2146.597232,13471.748144,306.438199
205.371390,-2368.659014,12583.501014,919.314598
205.371711,-1406.391290,11843.295072,1302.362347
205.372032,-1110.308913,11991.336260,2451.505594
205.372352,-1850.514855,12361.439231,2068.457845
205.372673,-2368.659014,11547.212695,612.876398
205.372994,-1998.556043,10807.006753,-612.876398
205.373314,-1628.453072,10066.800811,-536.266849
205.373635,-1036.288319,9696.697840,842.705048
205.373956,-222.061783,10362.883188,1149.143247
205.374277,0.000000,10732.986159,153.219100
205.374597,592.164754,11769.274478,-1302.362347
205.374918,1628.453072,11177.109724,-1685.410096
205.375239,2368.659014,10807.006753,-842.705048
205.375559,2664.741391,10362.883188,306.438199
205.375880,3256.906145,10214.842000,0.000000
205.376201,2516.700203,9696.697840,-1762.019645
205.376522,2146.597232,9474.636058,-2221.676944
205.376842,2368.659014,9326.594869,-1608.800546
205.377163,2220.617826,9918.759623,-229.828649
205.377484,2072.576638,9844.739029,76.609550
205.377805,1480.411884,10066.800811,-306.438199
205.378125,1184.329507,10732.986159,153.219100
205.378446,296.082377,10955.047942,153.219100
205.378767,-370.102971,10732.986159,842.705048
205.379087,-296.082377,10140.821405,842.705048
205.379408,0.000000,10066.800811,995.924147
205.379729,-222.061783,10510.924376,1149.143247
205.380050,-1036.288319,10881.027347,1302.362347
205.380370,-444.123565,11177.109724,1378.971896
205.380691,666.185348,11399.171507,995.924147
205.381012,1184.329507,11399.171507,459.657299
205.381332,1554.432478,10732.986159,-306.438199
205.381653,1184.329507,10584.944971,-1378.971896
205.381974,1406.391290,9548.656652,-1072.533697
205.382295,1332.370696,9178.553681,-153.219100
205.382615,1406.391290,8734.430116,0.000000
205.382936,1850.514855,8734.430116,0.000000
205.383257,2368.659014,9696.697840,0.000000
205.383577,2368.659014,10881.027347,-383.047749
205.383898,2960.823768,11325.150913,-842.705048
205.384219,3034.844362,10362.883188,-1532.190996
205.384540,2812.782580,10214.842000,-1225.752797
205.384860,3108.864956,9252.574275,-1072.533697
205.385181,2738.761985,9474.636058,-919.314598
205.385502,1850.514855,10510.924376,-306.438199
205.385822,1184.329507,11251.130318,229.828649
205.386143,1258.350101,11695.253884,-459.657299
205.386464,1036.288319,11843.295072,-536.266849
205.386785,0.000000,10881.027347,-1455.581446
205.387105,-962.267725,9696.697840,-1838.629195
205.387426,-1258.350101,8734.430116,-1225.752797
205.387747,-666.185348,8956.491898,459.657299
205.388068,-888.247130,10066.800811,1532.190996
205.388388,-296.082377,11917.315666,2068.457845
205.388709,592.164754,14211.954086,1685.410096
205.389030,296.082377,14804.118840,612.876398
205.389350,1184.329507,13249.686362,-229.828649
205.389671,2220.617826,11251.130318,-995.924147
205.389992,1702.473667,9992.780217,-612.876398
205.390313,740.205942,9548.656652,-842.705048
205.390633,74.020594,9770.718434,-1072.533697
205.390954,-1702.473667,9622.677246,-1685.410096
205.391275,-1850.514855,10214.842000,-1608.800546
205.391595,-1406.391290,10436.903782,-995.924147
205.391916,148.041188,11251.130318,-153.219100
205.392237,740.205942,13915.871710,459.657299
205.392558,0.000000,14508.036463,0.000000
205.392878,0.000000,14211.954086,-612.876398
205.393199,370.102971,13101.645173,-383.047749
205.393520,296.082377,10732.986159,-229.828649
205.393840,666.185348,8438.347739,-153.219100
205.394161,1332.370696,7550.100608,-459.657299
205.394482,1036.288319,9030.512492,-306.438199
205.394803,962.267725,10510.924376,766.095498
205.395123,1406.391290,10288.862594,1149.143247
205.395444,1110.308913,9030.512492,459.657299
205.395765,370.102971,8734.430116,306.438199
205.396085,962.267725,9474.636058,0.000000
205.396406,1184.329507,10362.883188,-995.924147
205.396727,1850.514855,11769.274478,-1378.971896
205.397048,2294.638420,12213.398043,-1149.143247
205.397368,1036.288319,13101.645173,-2221.676944
205.397689,666.185348,13471.748144,-1838.629195
205.398010,518.144159,14137.933492,-689.485948
205.398330,148.041188,13027.624579,0.000000
205.398651,0.000000,9992.780217,2145.067394
205.398972,296.082377,9030.512492,2451.505594
205.399293,-2146.597232,7846.182985,1915.238745
205.399613,-2368.659014,8660.409521,1225.752797
205.399934,-1702.473667,9326.594869,995.924147
205.400255,-1628.453072,9326.594869,306.438199
205.400576,148.041188,9770.718434,689.485948
205.400896,1702.473667,11843.295072,383.047749
205.401217,1924.535449,13397.727550,-383.047749
205.401538,1480.411884,12953.603985,-766.095498
205.401858,1702.473667,10362.883188,-1455.581446
205.402179,888.247130,7624.121203,-2298.286494
205.402500,2072.576638,6587.832884,-689.485948
205.402821,4145.153275,9548.656652,1762.019645
205.403141,2072.576638,12731.542202,919.314598
205.403462,1258.350101,13767.830521,-2451.505594
205.403783,1776.494261,11843.295072,-4290.134789
205.404103,1776.494261,9400.615463,-2987.772442
205.404424,-370.102971,7105.977043,-306.438199
205.404745,-1332.370696,5921.647536,153.219100
205.405066,0.000000,8956.491898,-459.657299
205.405386,-296.082377,13545.768739,0.000000
205.405707,-2072.576638,15396.283594,536.266849
205.406028,-444.123565,15396.283594,153.219100
205.406348,222.061783,14878.139434,0.000000
205.406669,-2072.576638,12879.583391,612.876398
205.406990,-1332.370696,10288.862594,612.876398
205.407311,-888.247130,9548.656652,0.000000
205.407631,-444.123565,10066.800811,995.924147
205.407952,-962.267725,10288.862594,1838.629195
205.408273,-814.226536,9992.780217,766.095498
205.408593,-666.185348,10140.821405,0.000000
205.408914,1258.350101,10807.006753,1455.581446
205.409235,3034.844362,10955.047942,1685.410096
205.409556,4367.215058,11251.130318,0.000000
205.409876,4811.338623,11103.089130,-1149.143247
205.410197,3849.070898,10881.027347,-2451.505594
205.410518,1924.535449,9770.718434,-3217.601092
205.410839,1332.370696,8068.244768,-3140.991542
205.411159,2294.638420,8438.347739,-1762.019645
205.411480,3997.112087,11399.171507,1149.143247
205.411801,2590.720797,13323.706956,612.876398
205.412121,1184.329507,13323.706956,-1915.238745
205.412442,-148.041188,11029.068536,-2451.505594
205.412763,-1554.432478,9844.739029,-383.047749
205.413083,-1554.432478,8956.491898,1991.848295
205.413404,-1554.432478,9400.615463,1149.143247
205.413725,148.041188,11547.212695,-536.266849
205.414046,-666.185348,13619.789333,-1225.752797
205.414366,-2516.700203,13693.809927,-306.438199
205.414687,-2516.700203,11991.336260,459.657299
205.415008,-888.247130,10510.924376,2451.505594
205.415328,0.000000,10584.944971,2987.772442
205.415649,-1036.288319,10066.800811,1455.581446
205.415970,-888.247130,9696.697840,-612.876398
205.416291,222.061783,10066.800811,0.000000
205.416611,1036.288319,9770.718434,1685.410096
205.416932,2442.679609,7476.080014,842.705048
205.417253,3108.864956,6957.935855,-689.485948
205.417573,4441.235652,9770.718434,-1378.971896
205.417894,3108.864956,11843.295072,-1915.238745
205.418215,3552.988522,10288.862594,-1685.410096
205.418535,5329.482782,9844.739029,-1532.190996
205.418856,5329.482782,10214.842000,-612.876398
205.419177,1036.288319,8142.265362,-1532.190996
205.419498,2146.597232,8512.368333,-2604.724693
205.419818,2368.659014,10436.903782,-1455.581446
205.420139,-666.185348,12065.356855,-1149.143247
205.420460,1110.308913,10807.006753,-1838.629195
205.420780,1036.288319,10510.924376,-2068.457845
205.421101,-370.102971,10510.924376,-153.219100
205.421422,-222.061783,11843.295072,3140.991542
205.421743,-814.226536,13101.645173,2298.286494
205.422063,-3478.967927,13027.624579,459.657299
205.422384,-3256.906145,12583.501014,459.657299
205.422705,-1332.370696,11177.109724,1149.143247
205.423025,0.000000,11325.150913,1378.971896
205.423346,-666.185348,12435.459826,2145.067394
205.423667,-1924.535449,12583.501014,383.047749
205.423987,-2368.659014,11325.150913,-995.924147
205.424308,-1110.308913,11621.233289,842.705048
205.424629,666.185348,11103.089130,2451.505594
205.424950,1406.391290,9474.636058,1991.848295
205.425270,1702.473667,9400.615463,536.266849
205.425591,2516.700203,10288.862594,-1149.143247
205.425912,2294.638420,9696.697840,-1762.019645
205.426232,4367.215058,9622.677246,-1302.362347
205.426553,5403.503377,9178.553681,-1378.971896
205.426874,4219.173869,9474.636058,-2068.457845
205.427195,2812.782580,9844.739029,-2221.676944
205.427515,3627.009116,11621.233289,-2604.724693
205.427836,2590.720797,12287.418637,-2451.505594
205.428157,1110.308913,11695.253884,-1302.362347
205.428477,1554.432478,10732.986159,-919.314598
205.428798,296.082377,10362.883188,-1685.410096
205.429119,-1110.308913,10362.883188,-1762.019645
205.429439,-1850.514855,10584.944971,306.438199
205.429760,-1332.370696,13545.768739,1532.190996
205.430081,-3627.009116,13397.727550,2145.067394
205.430402,-3701.029710,12435.459826,1532.190996
205.430722,-1850.514855,11991.336260,842.705048
205.431043,-2442.679609,11843.295072,2298.286494
205.431364,-3256.906145,11769.274478,3217.601092
205.431684,-2368.659014,11103.089130,2451.505594
205.432005,-2516.700203,11103.089130,1532.190996
205.432326,-370.102971,11547.212695,2987.772442
205.432647,370.102971,11325.150913,2911.162892
205.432967,296.082377,9622.677246,-612.876398
205.433288,3108.864956,8438.347739,-1455.581446
205.433609,3849.070898,7105.977043,-1991.848295
205.433929,2738.761985,5699.585753,-459.657299
205.434250,5033.400406,7550.100608,766.095498
205.434571,6513.812290,10362.883188,0.000000
205.434891,3701.029710,10140.821405,-4519.963438
205.435212,6217.729913,9326.594869,-4290.134789
205.435533,7105.977043,8660.409521,-2911.162892
205.435854,4663.297435,8438.347739,-1608.800546
205.436174,5255.462188,10584.944971,-766.095498
205.436495,5033.400406,9696.697840,-1838.629195
205.436816,1480.411884,7550.100608,-2987.772442
205.437136,2516.700203,7105.977043,0.000000
205.437457,3182.885551,9474.636058,689.485948
205.437778,0.000000,10881.027347,0.000000
205.438099,-666.185348,11547.212695,1302.362347
205.438419,-296.082377,11769.274478,1608.800546
205.438740,0.000000,11103.089130,2834.553343
205.439061,-4515.256246,10362.883188,919.314598
205.439381,-4515.256246,10807.006753,-995.924147
205.439702,-4071.132681,13323.706956,0.000000
205.440023,-2368.659014,14285.974681,1838.629195
205.440343,-1998.556043,13323.706956,536.266849
205.440664,-592.164754,11991.336260,-1532.190996
205.440985,-1406.391290,13175.665768,-536.266849
205.441306,-3701.029710,13471.748144,2374.896044
205.441626,-2146.597232,10288.862594,1378.971896
205.441947,1776.494261,8068.244768,459.657299
205.442268,2220.617826,8290.306550,229.828649
205.442588,1702.473667,9104.533087,-229.828649
205.442909,3923.091493,9770.718434,-1532.190996
205.443230,3923.091493,10955.047942,-3217.601092
205.443551,3849.070898,10510.924376,-4290.134789
205.443871,5995.668130,7179.997637,-3600.648841
205.444192,6439.791695,7994.224174,-1838.629195
205.444513,4959.379811,10732.986159,0.000000
205.444833,4219.173869,11473.192101,-1685.410096
205.445154,5625.565159,12583.501014,-3600.648841
205.445475,5329.482782,12435.459826,-2528.115143
205.445795,4441.235652,11843.295072,76.609550
205.446116,3552.988522,10066.800811,689.485948
205.446437,1480.411884,7550.100608,-1302.362347
205.446758,0.000000,5773.606348,612.876398
205.447078,1184.329507,7550.100608,2757.943793
205.447399,1554.432478,8660.409521,2451.505594
205.447720,740.205942,7105.977043,766.095498
205.448040,2220.617826,7402.059420,1532.190996
205.448361,1850.514855,9400.615463,3064.381992
205.448682,2294.638420,11029.068536,2374.896044
205.449003,2960.823768,9992.780217,-536.266849
205.449323,4885.359217,7328.038826,-3524.039291
205.449644,7772.162391,8586.388927,-1991.848295
205.449965,6217.729913,9548.656652,0.000000
205.450285,4293.194464,9178.553681,-1991.848295
205.450606,6143.709319,8956.491898,-2757.943793
205.450927,7179.997637,10214.842000,0.000000
205.451247,8586.388927,9844.739029,1838.629195
205.451568,7254.018232,6883.915261,1225.752797
205.451889,5773.606348,6365.771101,-1378.971896
205.452210,5403.503377,6217.729913,76.609550
205.452530,3923.091493,4219.173869,2221.676944
205.452851,5329.482782,2368.659014,1838.629195
205.453172,8438.347739,3034.844362,919.314598
205.453492,7772.162391,7550.100608,-306.438199
205.453813,4737.318029,9992.780217,-1915.238745
205.454134,5329.482782,8660.409521,-2068.457845
205.454455,6661.853478,6809.894666,-536.266849
205.454775,7328.038826,6439.791695,2221.676944
205.455096,6217.729913,7772.162391,919.314598
205.455417,3849.070898,8882.471304,-3447.429741
205.455737,2072.576638,9844.739029,-4903.011187
205.456058,5477.523971,10436.903782,-2604.724693
205.456379,5181.441594,8808.450710,919.314598
205.456699,4663.297435,6513.812290,1991.848295
205.457020,3775.050304,7254.018232,1991.848295
205.457341,1554.432478,10288.862594,1762.019645
205.457662,2442.679609,9918.759623,1685.410096
205.457982,3182.885551,7772.162391,2298.286494
205.458303,4367.215058,5699.585753,1685.410096
205.458624,5255.462188,6143.709319,1838.629195
205.458944,4071.132681,7550.100608,995.924147
205.459265,3552.988522,7550.100608,-1378.971896
205.459586,5033.400406,6809.894666,-1608.800546
205.459907,6513.812290,5847.626942,-1225.752797
205.460227,7402.059420,8142.265362,-689.485948
205.460548,8364.327145,9844.739029,-995.924147
205.460869,7179.997637,10140.821405,-2374.896044
205.461189,5921.647536,10140.821405,-2604.724693
205.461510,6513.812290,8660.409521,-2757.943793
205.461831,4885.359217,7550.100608,-2298.286494
205.462151,7476.080014,6735.874072,-1302.362347
205.462472,7476.080014,8290.306550,153.219100
205.462793,5107.421000,9770.718434,383.047749
205.463114,4441.235652,7994.224174,-306.438199
205.463434,4145.153275,6587.832884,383.047749
205.463755,4959.379811,4885.359217,2834.553343
205.464076,7550.100608,7328.038826,3830.477490
205.464396,5033.400406,8808.450710,1225.752797
205.464717,2294.638420,6809.894666,-4519.963438
205.465038,3775.050304,8660.409521,-3217.601092
205.465359,4515.256246,10955.047942,459.657299
205.465679,4145.153275,11251.130318,1608.800546
205.466000,4811.338623,10436.903782,0.000000
205.466321,3108.864956,10732.986159,-3830.477490
205.466641,2664.741391,12139.377449,-2911.162892
205.466962,592.164754,11103.089130,0.000000
205.467283,2664.741391,8956.491898,689.485948
205.467603,4145.153275,9252.574275,2298.286494
205.467924,4885.359217,9030.512492,3600.648841
205.468245,888.247130,6883.915261,1685.410096
205.468566,2590.720797,6439.791695,153.219100
205.468886,4293.194464,6661.853478,306.438199
205.469207,5625.565159,6883.915261,459.657299
205.469528,7402.059420,5329.482782,383.047749
205.469848,8290.306550,6513.812290,0.000000
205.470169,5847.626942,6735.874072,-842.705048
205.470490,6587.832884,9252.574275,-1302.362347
205.470811,6143.709319,8438.347739,-2604.724693
205.471131,5847.626942,8142.265362,-4443.353888
205.471452,9104.533087,8142.265362,-3370.820191
205.471773,8068.244768,7920.203579,-1991.848295
205.472093,6809.894666,8364.327145,-689.485948
205.472414,6513.812290,8734.430116,919.314598
205.472735,5329.482782,7328.038826,1302.362347
205.473055,5403.503377,4959.379811,2068.457845
205.473376,6883.915261,3256.906145,1378.971896
205.473697,5995.668130,2886.803174,842.705048
205.474018,5995.668130,4885.359217,1455.581446
205.474338,6661.853478,8142.265362,1378.971896
205.474659,4959.379811,6069.688724,-536.266849
205.474980,6439.791695,4441.235652,-2221.676944
205.475300,9326.594869,6143.709319,-689.485948
205.475621,4737.318029,10140.821405,-306.438199
205.475942,4071.132681,11399.171507,-1838.629195
205.476263,5995.668130,11103.089130,-2374.896044
205.476583,6661.853478,9474.636058,-2451.505594
205.476904,6439.791695,8882.471304,612.876398
205.477225,5773.606348,10881.027347,1838.629195
205.477545,1406.391290,11769.274478,-1225.752797
205.477866,1554.432478,11103.089130,-459.657299
205.478187,3552.988522,6661.853478,3064.381992
205.478507,5329.482782,4589.276840,3600.648841
205.478828,4293.194464,4737.318029,4749.792088
205.479149,1628.453072,7698.141797,1838.629195
205.479470,2368.659014,9622.677246,-995.924147
205.479790,2590.720797,8808.450710,-153.219100
205.480111,4589.276840,7920.203579,153.219100
205.480432,6217.729913,8734.430116,842.705048
205.480752,5403.503377,10955.047942,-306.438199
205.481073,2368.659014,11695.253884,-2757.943793
205.481394,3627.009116,9844.739029,-4979.620737
205.481715,4071.132681,7920.203579,-4213.525239
205.482035,6069.688724,9474.636058,-2145.067394
205.482356,5921.647536,12435.459826,995.924147
205.482677,5403.503377,12065.356855,842.705048
205.482997,4885.359217,8512.368333,76.609550
205.483318,5773.606348,4737.318029,459.657299
205.483639,3701.029710,2368.659014,1302.362347
205.483959,4589.276840,3478.967927,2145.067394
205.484280,5181.441594,6587.832884,1762.019645
205.484601,5181.441594,7920.203579,76.609550
205.484922,5699.585753,4959.379811,-689.485948
205.485242,7772.162391,6809.894666,153.219100
205.485563,4811.338623,9030.512492,229.828649
205.485884,3627.009116,10066.800811,-229.828649
205.486204,6809.894666,8660.409521,-2374.896044
205.486525,5477.523971,5847.626942,-3907.087040
205.486846,4959.379811,6069.688724,-2221.676944
205.487167,7105.977043,10362.883188,76.609550
205.487487,4219.173869,13027.624579,-995.924147
205.487808,4367.215058,11399.171507,-612.876398
205.488129,6809.894666,5773.606348,612.876398
205.488449,6661.853478,2294.638420,766.095498
205.488770,4959.379811,3182.885551,2681.334243
205.489091,3775.050304,6143.709319,2987.772442
205.489411,3330.926739,6143.709319,-766.095498
205.489732,7105.977043,5699.585753,-842.705048
205.490053,7772.162391,5255.462188,229.828649
205.490374,6661.853478,7550.100608,-766.095498
205.490694,5255.462188,10881.027347,-229.828649
205.491015,4145.153275,12583.501014,-1149.143247
205.491336,6883.915261,10584.944971,-2604.724693
205.491656,8364.327145,7254.018232,-1608.800546
205.491977,5181.441594,7550.100608,-1072.533697
205.492298,2886.803174,11029.068536,229.828649
205.492619,1258.350101,12953.603985,612.876398
205.492939,2516.700203,10807.006753,-306.438199
205.493260,6291.750507,6439.791695,459.657299
205.493581,7698.141797,4145.153275,2145.067394
205.493901,4293.194464,6957.935855,2757.943793
205.494222,2072.576638,8734.430116,2145.067394
205.494543,2590.720797,6957.935855,-153.219100
205.494863,5699.585753,4811.338623,-306.438199
205.495184,8142.265362,4515.256246,1072.533697
205.495505,7328.038826,8734.430116,612.876398
205.495826,4367.215058,11399.171507,-1302.362347
205.496146,4293.194464,12213.398043,-3830.477490
205.496467,5181.441594,10140.821405,-3447.429741
205.496788,5921.647536,6513.812290,-1685.410096
205.497108,5699.585753,7328.038826,-536.266849
205.497429,4589.276840,11251.130318,-766.095498
205.497750,1776.494261,12065.356855,-1149.143247
205.498071,2590.720797,9252.574275,-306.438199
205.498391,7105.977043,6587.832884,1302.362347
205.498712,4515.256246,4441.235652,2911.162892
205.499033,2590.720797,4885.359217,1762.019645
205.499353,3849.070898,8512.368333,536.266849
205.499674,2960.823768,8364.327145,-459.657299
205.499995,4219.173869,6143.709319,-459.657299
205.500315,7994.224174,5477.523971,536.266849
205.500636,6513.812290,7920.203579,459.657299
205.500957,3256.906145,10510.924376,306.438199
205.501278,4071.132681,11547.212695,-1378.971896
205.501598,4515.256246,8660.409521,-4136.915689
205.501919,5477.523971,6957.935855,-1915.238745
205.502240,8734.430116,9548.656652,1838.629195
205.502560,5699.585753,10955.047942,766.095498
205.502881,3404.947333,9696.697840,-689.485948
205.503202,5625.565159,8216.285956,-306.438199
205.503523,3923.091493,5329.482782,0.000000
205.503843,3404.947333,2812.782580,2451.505594
205.504164,5921.647536,4515.256246,2604.724693
205.504485,6069.688724,6957.935855,383.047749
205.504805,5107.421000,7402.059420,-229.828649
205.505126,6069.688724,6809.894666,-1225.752797
205.505447,6143.709319,7105.977043,-1532.190996
205.505767,5255.462188,8364.327145,766.095498
205.506088,5477.523971,10288.862594,0.000000
205.506409,7105.977043,10955.047942,-3140.991542
205.506730,4293.194464,8808.450710,-4060.306139
205.507050,4515.256246,9326.594869,-1915.238745
205.507371,6143.709319,10362.883188,995.924147
205.507692,2960.823768,11325.150913,1915.238745
205.508012,3849.070898,9770.718434,1762.019645
205.508333,5551.544565,7624.121203,306.438199
205.508654,4071.132681,5995.668130,-229.828649
205.508975,3034.844362,4737.318029,2068.457845
205.509295,4663.297435,4515.256246,2987.772442
205.509616,4145.153275,4367.215058,2145.067394
205.509937,4515.256246,6735.874072,1455.581446
205.510257,6069.688724,6365.771101,306.438199
205.510578,5181.441594,7105.977043,-2221.676944
205.510899,5255.462188,8660.409521,-1225.752797
205.511219,7328.038826,10584.944971,-1455.581446
205.511540,7328.038826,9548.656652,-4443.353888
205.511861,6365.771101,7698.141797,-3600.648841
205.512182,6883.915261,8734.430116,-1378.971896
205.512502,4737.318029,10955.047942,-766.095498
205.512823,3701.029710,10955.047942,0.000000
205.513144,3552.988522,9844.739029,-766.095498
205.513465,5181.441594,7105.977043,-1378.971896
205.513785,6513.812290,7031.956449,1225.752797
205.514106,3997.112087,7105.977043,1838.629195
205.514427,1184.329507,5107.421000,0.000000
205.514748,3256.906145,5847.626942,306.438199
205.515068,3108.864956,7105.977043,1991.848295
205.515389,3701.029710,9992.780217,1532.190996
205.515710,5625.565159,10214.842000,153.219100
205.516030,3552.988522,10732.986159,-1532.190996
205.516351,5107.421000,11325.150913,-842.705048
205.516672,4293.194464,10510.924376,-612.876398
205.516993,2738.761985,8216.285956,-2374.896044
205.517313,5255.462188,9696.697840,0.000000
205.517634,5477.523971,10362.883188,2374.896044
205.517955,4071.132681,9770.718434,689.485948
205.518276,5699.585753,7402.059420,-459.657299
205.518596,5477.523971,6291.750507,-995.924147
205.518917,5255.462188,5403.503377,536.266849
205.519238,5403.503377,3849.070898,2145.067394
205.519558,6513.812290,4219.173869,2068.457845
205.519879,6439.791695,6069.688724,842.705048
205.520200,6513.812290,8808.450710,-995.924147
205.520521,6661.853478,9696.697840,-2911.162892
205.520841,6883.915261,8956.491898,-3064.381992
205.521162,7105.977043,8660.409521,-1685.410096
205.521483,7476.080014,8512.368333,-1149.143247
205.521804,4959.379811,7920.203579,-1991.848295
205.522124,3701.029710,9104.533087,-1302.362347
205.522445,2960.823768,10584.944971,0.000000
205.522766,2220.617826,10807.006753,1149.143247
205.523087,4145.153275,9474.636058,2068.457845
205.523407,5255.462188,7550.100608,2451.505594
205.523728,3997.112087,5847.626942,1915.238745
205.524049,2812.782580,6143.709319,1455.581446
205.524369,3478.967927,6809.894666,1225.752797
205.524690,3108.864956,5847.626942,919.314598
205.525011,5033.400406,6291.750507,1762.019645
205.525332,7105.977043,8364.327145,2681.334243
205.525652,6143.709319,9326.594869,459.657299
205.525973,3108.864956,8586.388927,-2604.724693
205.526294,5181.441594,7994.224174,-3600.648841
205.526615,5255.462188,8808.450710,-2987.772442
205.526935,5255.462188,8438.347739,-612.876398
205.527256,6735.874072,8068.244768,766.095498
205.527577,6513.812290,10214.842000,-1149.143247
205.527897,3627.009116,10214.842000,-689.485948
205.528218,3775.050304,8808.450710,919.314598
205.528539,5329.482782,7179.997637,229.828649
205.528860,6143.709319,6143.709319,459.657299
205.529180,6291.750507,5181.441594,1608.800546
205.529501,5847.626942,5255.462188,-689.485948
205.529822,4145.153275,6661.853478,-842.705048
205.530143,2664.741391,7476.080014,153.219100
205.530463,4367.215058,7105.977043,-995.924147
205.530784,5181.441594,7698.141797,-306.438199
205.531105,5551.544565,9400.615463,229.828649
205.531426,4515.256246,11251.130318,-1225.752797
205.531746,3552.988522,11399.171507,-2911.162892
205.532067,2812.782580,11103.089130,-2145.067394
205.532388,4515.256246,10362.883188,766.095498
205.532708,4737.318029,8882.471304,3064.381992
205.533029,4293.194464,8734.430116,1762.019645
205.533350,4219.173869,8290.306550,76.609550
205.533671,3256.906145,7254.018232,383.047749
205.533991,3256.906145,6513.812290,2451.505594
205.534312,4737.318029,6513.812290,2451.505594
205.534633,5477.523971,6069.688724,1072.533697
205.534954,6069.688724,6365.771101,0.000000
205.535274,7179.997637,6439.791695,-383.047749
205.535595,5403.503377,7328.038826,-2451.505594
205.535916,5551.544565,7994.224174,-2987.772442
205.536236,7105.977043,8364.327145,-2528.115143
205.536557,6217.729913,8882.471304,-2987.772442
205.536878,8216.285956,10732.986159,-1838.629195
205.537199,7624.121203,11843.295072,-1225.752797
205.537519,4219.173869,11547.212695,-3294.210641
205.537840,4293.194464,9178.553681,-2451.505594
205.538161,5773.606348,8142.265362,1685.410096
205.538482,4885.359217,6439.791695,3140.991542
205.538802,3997.112087,4811.338623,3217.601092
205.539123,3552.988522,5107.421000,459.657299
205.539444,2072.576638,6883.915261,-1225.752797
205.539764,3775.050304,8142.265362,1149.143247
205.540085,5551.544565,7698.141797,2298.286494
205.540406,5255.462188,6957.935855,459.657299
205.540727,5477.523971,6883.915261,0.000000
205.541047,4515.256246,8290.306550,-229.828649
205.541368,3701.029710,8734.430116,-2298.286494
205.541689,3256.906145,9030.512492,-2987.772442
205.542010,4811.338623,9178.553681,-3447.429741
205.542330,6883.915261,9696.697840,-995.924147
205.542651,6217.729913,11843.295072,1455.581446
205.542972,4367.215058,11399.171507,612.876398
205.543293,4959.379811,8364.327145,-1532.190996
205.543613,5403.503377,5995.668130,-995.924147
205.543934,4071.132681,4959.379811,1762.019645
205.544255,4811.338623,4367.215058,2834.553343
205.544575,5551.544565,5921.647536,1072.533697
205.544896,6439.791695,7994.224174,-612.876398
205.545217,4737.318029,8586.388927,-612.876398
205.545538,3997.112087,7550.100608,-2221.676944
205.545858,5773.606348,8882.471304,-1532.190996
205.546179,4293.194464,9992.780217,-842.705048
205.546500,3404.947333,9696.697840,-1532.190996
205.546821,5329.482782,8142.265362,-995.924147
205.547141,4959.379811,9918.759623,0.000000
205.547462,3478.967927,12361.439231,229.828649
205.547783,2368.659014,11547.212695,612.876398
205.548103,3256.906145,9030.512492,306.438199
205.548424,4737.318029,7994.224174,2068.457845
205.548745,5329.482782,7476.080014,3830.477490
205.549066,4293.194464,5181.441594,689.485948
205.549386,3997.112087,4515.256246,-1991.848295
205.549707,3701.029710,5699.585753,0.000000
205.550028,4589.276840,6883.915261,2604.724693
205.550349,7328.038826,7105.977043,2451.505594
205.550669,6217.729913,8364.327145,-1225.752797
205.550990,5773.606348,11103.089130,-2987.772442
205.551311,6069.688724,10732.986159,-3370.820191
205.551632,5625.565159,8216.285956,-3370.820191
205.551952,6069.688724,6217.729913,-1915.238745
205.552273,7550.100608,7402.059420,1378.971896
205.552594,5995.668130,8956.491898,1072.533697
205.552914,3849.070898,9326.594869,76.609550
205.553235,4441.235652,8734.430116,-1378.971896
205.553556,6143.709319,7550.100608,-1532.190996
205.553877,5477.523971,4589.276840,612.876398
205.554197,7105.977043,3627.009116,1991.848295
205.554518,6957.935855,4811.338623,1072.533697
205.554839,5551.544565,6291.750507,-459.657299
205.555160,4885.359217,7179.997637,-1149.143247
205.555480,6365.771101,8660.409521,-1762.019645
205.555801,6365.771101,9326.594869,-459.657299
205.556122,5921.647536,9326.594869,-383.047749
205.556442,7031.956449,8660.409521,-2604.724693
205.556763,4515.256246,7624.121203,-3447.429741
205.557084,3182.885551,7772.162391,-1838.629195
205.557405,2664.741391,10510.924376,-383.047749
205.557725,1702.473667,11399.171507,0.000000
205.558046,3330.926739,11399.171507,2145.067394
205.558367,6291.750507,9770.718434,3907.087040
205.558688,4515.256246,7698.141797,1915.238745
205.559008,3404.947333,7550.100608,0.000000
205.559329,3034.844362,7105.977043,-1302.362347
205.559650,2738.761985,5477.523971,-1991.848295
205.559970,5403.503377,5995.668130,1762.019645
205.560291,8290.306550,8586.388927,3677.258390
205.560612,5329.482782,10288.862594,689.485948
205.560933,3108.864956,10658.965565,-1915.238745
205.561253,4071.132681,10881.027347,-2834.553343
205.561574,4441.235652,9104.533087,-1838.629195
205.561895,7328.038826,7328.038826,1378.971896
205.562216,7179.997637,7105.977043,306.438199
205.562536,4367.215058,8734.430116,-1838.629195
205.562857,3108.864956,10658.965565,689.485948
205.563178,3404.947333,10214.842000,1532.190996
205.563499,5107.421000,6217.729913,1838.629195
205.563819,6957.935855,3849.070898,2757.943793
205.564140,7254.018232,3849.070898,1149.143247
205.564461,4071.132681,5477.523971,-1225.752797
205.564781,4219.173869,6883.915261,-2068.457845
205.565102,5699.585753,7105.977043,-1378.971896
205.565423,7624.121203,7254.018232,-766.095498
205.565744,7846.182985,7698.141797,306.438199
205.566064,6143.709319,10584.944971,0.000000
205.566385,2960.823768,9622.677246,-2528.115143
205.566706,3182.885551,9030.512492,-3064.381992
205.567027,4737.318029,7254.018232,-1685.410096
205.567347,5403.503377,7550.100608,0.000000
205.567668,4663.297435,7624.121203,842.705048
205.567989,2368.659014,8364.327145,-1532.190996
205.568309,2738.761985,7772.162391,459.657299
205.568630,3701.029710,6365.771101,3524.039291
205.568951,5551.544565,5921.647536,3600.648841
205.569272,4441.235652,3701.029710,1455.581446
205.569592,4959.379811,4367.215058,-842.705048
205.569913,6809.894666,8734.430116,-842.705048
205.570234,5033.400406,7698.141797,-1302.362347
205.570555,5477.523971,6883.915261,-2451.505594
205.570875,9770.718434,6661.853478,-2834.553343
205.571196,7920.203579,9770.718434,-1915.238745
205.571517,5773.606348,11843.295072,-1608.800546
205.571838,5033.400406,10362.883188,-2451.505594
205.572158,5403.503377,9104.533087,-2834.553343
205.572479,5255.462188,9696.697840,0.000000
205.572800,4737.318029,9474.636058,1532.190996
205.573120,4219.173869,9104.533087,383.047749
205.573441,4663.297435,9104.533087,229.828649
205.573762,1776.494261,8290.306550,1225.752797
205.574083,1850.514855,6143.709319,2374.896044
205.574403,3849.070898,5551.544565,3217.601092
205.574724,4663.297435,7031.956449,1762.019645
205.575045,4219.173869,8660.409521,-306.438199
205.575366,4663.297435,10584.944971,-2221.676944
205.575686,4885.359217,10584.944971,-3447.429741
205.576007,5551.544565,9844.739029,-995.924147
205.576328,7105.977043,10955.047942,306.438199
205.576648,7624.121203,11325.150913,-1608.800546
205.576969,4737.318029,9992.780217,-2221.676944
205.577290,3775.050304,8586.388927,-842.705048
205.577611,4663.297435,9400.615463,0.000000
205.577931,5255.462188,9252.574275,1762.019645
205.578252,4441.235652,8364.327145,1455.581446
205.578573,6735.874072,6217.729913,153.219100
205.578894,5699.585753,4367.215058,612.876398
205.579214,4071.132681,4145.153275,2528.115143
205.579535,3552.988522,3923.091493,2145.067394
205.579856,5329.482782,5107.421000,306.438199
205.580176,7031.956449,6957.935855,306.438199
205.580497,7179.997637,8734.430116,-1915.238745
205.580818,6513.812290,7179.997637,-3524.039291
205.581139,5107.421000,7105.977043,-3983.696590
205.581459,6217.729913,9400.615463,-2374.896044
205.581780,5255.462188,9770.718434,-1608.800546
205.582101,5847.626942,7698.141797,-2145.067394
205.582422,7179.997637,7105.977043,-1302.362347
205.582742,4737.318029,8438.347739,229.828649
205.583063,2590.720797,9326.594869,1532.190996
205.583384,3923.091493,7550.100608,1685.410096
205.583705,4663.297435,4737.318029,842.705048
205.584025,6439.791695,5181.441594,2528.115143
205.584346,5033.400406,6217.729913,3064.381992
205.584667,2590.720797,5033.400406,536.266849
205.584987,2516.700203,5773.606348,76.609550
205.585308,5699.585753,7920.203579,1532.190996
205.585629,6143.709319,8660.409521,689.485948
205.585950,5773.606348,7994.224174,0.000000
205.586270,5107.421000,9918.759623,-2145.067394
205.586591,5403.503377,11843.295072,-3140.991542
205.586912,4145.153275,10881.027347,-2757.943793
205.587233,5181.441594,8512.368333,-2604.724693
205.587553,5329.482782,8882.471304,-306.438199
205.587874,4885.359217,9474.636058,3524.039291
205.588195,4071.132681,9474.636058,4060.306139
205.588515,3552.988522,8586.388927,612.876398
205.588836,3256.906145,6587.832884,-842.705048
205.589157,4737.318029,5773.606348,153.219100
205.589478,5921.647536,5403.503377,995.924147
205.589798,5699.585753,6439.791695,1608.800546
205.590119,6587.832884,8068.244768,1378.971896
205.590440,6513.812290,8882.471304,-459.657299
205.590761,5625.565159,9770.718434,-2374.896044
205.591081,5847.626942,10140.821405,-1838.629195
205.591402,6143.709319,9992.780217,-1378.971896
205.591723,6735.874072,9400.615463,-766.095498
205.592044,6957.935855,7994.224174,0.000000
205.592364,5329.482782,7550.100608,612.876398
205.592685,2516.700203,7624.121203,-536.266849
205.593006,3997.112087,9696.697840,306.438199
205.593326,4441.235652,10214.842000,1685.410096
205.593647,3404.947333,7105.977043,1532.190996
205.593968,5773.606348,5847.626942,2451.505594
205.594289,5107.421000,6809.894666,1762.019645
205.594609,1702.473667,6069.688724,-383.047749
205.594930,2442.679609,6661.853478,-536.266849
205.595251,5773.606348,7624.121203,-689.485948
205.595572,5995.668130,9400.615463,-536.266849
205.595892,6513.812290,9992.780217,153.219100
205.596213,5403.503377,9548.656652,-2221.676944
205.596534,4663.297435,10510.924376,-2681.334243
205.596854,4071.132681,9770.718434,-383.047749
205.597175,4811.338623,7031.956449,0.000000
205.597496,6661.853478,7105.977043,-306.438199
205.597817,4589.276840,7994.224174,76.609550
205.598137,3997.112087,8364.327145,612.876398
205.598458,5329.482782,7550.100608,766.095498
205.598779,5625.565159,6661.853478,1072.533697
205.599100,4737.318029,5033.400406,1532.190996
205.599420,7031.956449,4515.256246,1149.143247
205.599741,5921.647536,6365.771101,689.485948
205.600062,4145.153275,7772.162391,-689.485948
205.600383,5551.544565,8808.450710,-2374.896044
205.600703,7550.100608,9474.636058,-2451.505594
205.601024,7105.977043,9400.615463,-1532.190996
205.601345,6217.729913,8882.471304,0.000000
205.601665,4737.318029,9030.512492,-1378.971896
205.601986,3330.926739,8586.388927,-2451.505594
205.602307,3775.050304,9770.718434,-766.095498
205.602628,4071.132681,10140.821405,0.000000
205.602948,5847.626942,9918.759623,1225.752797
205.603269,5921.647536,8808.450710,1608.800546
205.603590,3627.009116,7328.038826,459.657299
205.603911,2294.638420,5921.647536,1762.019645
205.604231,4737.318029,6217.729913,3217.601092
205.604552,4959.379811,5699.585753,1072.533697
205.604873,3849.070898,4737.318029,-383.047749
205.605193,6217.729913,7698.141797,-459.657299
205.605514,6735.874072,10584.944971,-536.266849
205.605835,3849.070898,8956.491898,-1302.362347
205.606156,7550.100608,8290.306550,-1991.848295
205.606476,8586.388927,7402.059420,-2911.162892
205.606797,4885.359217,8364.327145,-2604.724693
205.607118,4293.194464,9622.677246,-383.047749
205.607439,5403.503377,10658.965565,0.000000
205.607759,4589.276840,9844.739029,459.657299
205.608080,6365.771101,8734.430116,1455.581446
205.608401,5403.503377,6587.832884,229.828649
205.608721,3478.967927,7031.956449,-1455.581446
205.609042,2368.659014,7254.018232,1532.190996
205.609363,3627.009116,6735.874072,1838.629195
205.609684,5847.626942,5847.626942,1455.581446
205.610004,5181.441594,6809.894666,2451.505594
205.610325,3256.906145,9474.636058,459.657299
205.610646,3108.864956,10362.883188,-2451.505594
205.610966,3552.988522,11103.089130,-2145.067394
205.611287,6735.874072,9696.697840,-1532.190996
205.611608,7105.977043,6809.894666,-1072.533697
205.611928,5181.441594,7105.977043,0.000000
205.612249,3849.070898,11177.109724,-229.828649
205.612570,3256.906145,11843.295072,459.657299
205.612890,1850.514855,9178.553681,842.705048
205.613211,7402.059420,6365.771101,766.095498
205.613532,5625.565159,5995.668130,1455.581446
205.613852,4589.276840,6661.853478,919.314598
205.614173,4737.318029,6217.729913,1378.971896
205.614494,5033.400406,7105.977043,459.657299
205.614814,5033.400406,5773.606348,153.219100
205.615135,6291.750507,6513.812290,0.000000
205.615456,7328.038826,7846.182985,-1149.143247
205.615776,3701.029710,8808.450710,-2451.505594
205.616097,4441.235652,9844.739029,-1915.238745
205.616418,6809.894666,9030.512492,-2528.115143
205.616738,5033.400406,7846.182985,-1915.238745
205.617059,4441.235652,8290.306550,-383.047749
205.617380,4441.235652,10362.883188,0.000000
205.617700,3997.112087,9992.780217,612.876398
205.618021,4219.173869,8142.265362,459.657299
205.618342,3997.112087,4885.359217,842.705048
205.618662,4071.132681,3997.112087,842.705048
205.618983,5403.503377,7550.100608,2298.286494
205.619304,2516.700203,7920.203579,1302.362347
205.619624,4293.194464,6439.791695,-995.924147
205.619945,6069.688724,6143.709319,-229.828649
205.620266,5329.482782,7179.997637,766.095498
205.620586,5329.482782,8660.409521,0.000000
205.620907,6661.853478,9326.594869,-842.705048
205.621228,5921.647536,9696.697840,-3753.867940
205.621548,6365.771101,10510.924376,-3294.210641
205.621869,4885.359217,8808.450710,-1608.800546
205.622190,6143.709319,9696.697840,-1608.800546
205.622510,5551.544565,11251.130318,1302.362347
205.622831,3552.988522,10288.862594,2451.505594
205.623152,5181.441594,7105.977043,919.314598
205.623472,4737.318029,4219.173869,689.485948
205.623793,2072.576638,4219.173869,995.924147
205.624114,3997.112087,7031.956449,1915.238745
205.624434,3775.050304,8586.388927,689.485948
205.624755,5329.482782,9400.615463,-842.705048
205.625076,7920.203579,7550.100608,76.609550
205.625396,6513.812290,7402.059420,-306.438199
205.625717,5181.441594,9326.594869,-306.438199
205.626038,3330.926739,10288.862594,-1072.533697
205.626358,4145.153275,10362.883188,-2911.162892
205.626679,6365.771101,8438.347739,-3217.601092
205.627000,6439.791695,8290.306550,-1378.971896
205.627320,5329.482782,9104.533087,-919.314598
205.627641,2590.720797,9178.553681,229.828649
205.627962,3701.029710,9474.636058,1915.238745
205.628282,4589.276840,8734.430116,1838.629195
205.628603,4737.318029,5995.668130,1532.190996
205.628924,3775.050304,5847.626942,1762.019645
205.629244,4663.297435,7254.018232,153.219100
205.629565,3256.906145,8290.306550,-383.047749
205.629886,2886.803174,7920.203579,0.000000
205.630206,5255.462188,6143.709319,-1072.533697
205.630527,5699.585753,6809.894666,-536.266849
205.630848,4293.194464,8882.471304,-306.438199
205.631168,3849.070898,9770.718434,-1532.190996
205.631489,5255.462188,9844.739029,-3600.648841
205.631810,3997.112087,7328.038826,-3447.429741
205.632130,4441.235652,7624.121203,-919.314598
205.632451,6291.750507,11325.150913,1685.410096
205.632772,3182.885551,10140.821405,1302.362347
205.633092,4367.215058,7402.059420,76.609550
205.633413,8290.306550,6661.853478,-1072.533697
205.633734,4885.359217,6661.853478,-995.924147
205.634054,4367.215058,6217.729913,1608.800546
205.634375,7031.956449,5255.462188,2911.162892
205.634696,6439.791695,5477.523971,1149.143247
205.635016,7179.997637,7328.038826,459.657299
205.635337,5255.462188,6957.935855,-1532.190996
205.635658,5033.400406,8364.327145,-4979.620737
205.635978,6069.688724,10955.047942,-1991.848295
205.636299,5329.482782,10288.862594,0.000000
205.636620,6291.750507,7994.224174,-1608.800546
205.636940,7105.977043,7328.038826,-229.828649
205.637261,2960.823768,9104.533087,-1302.362347
205.637582,2146.597232,11251.130318,-1225.752797
205.637902,2442.679609,9992.780217,995.924147
205.638223,5403.503377,9030.512492,1608.800546
205.638544,5033.400406,7846.182985,2681.334243
205.638864,3997.112087,7402.059420,2604.724693
205.639185,2072.576638,7698.141797,-689.485948
205.639506,2220.617826,7402.059420,-306.438199
205.639826,3849.070898,6291.750507,1378.971896
205.640147,6069.688724,6365.771101,689.485948
205.640468,5181.441594,7624.121203,-306.438199
205.640788,4959.379811,11325.150913,-919.314598
205.641109,4811.338623,10658.965565,-1302.362347
205.641430,6069.688724,9030.512492,-3447.429741
205.641750,6217.729913,8660.409521,-3294.210641
205.642071,4959.379811,8882.471304,-2221.676944
205.642392,5847.626942,9548.656652,-153.219100
205.642712,6957.935855,9770.718434,1532.190996
205.643033,5995.668130,7550.100608,919.314598
205.643354,5107.421000,6143.709319,0.000000
205.643674,3701.029710,3775.050304,689.485948
205.643995,4145.153275,7624.121203,2068.457845
205.644316,4737.318029,9400.615463,2451.505594
205.644636,5699.585753,7550.100608,459.657299
205.644957,7402.059420,6439.791695,-1302.362347
205.645278,4367.215058,6513.812290,-1455.581446
205.645598,2442.679609,7328.038826,-842.705048
205.645919,3108.864956,6809.894666,306.438199
205.646240,5551.544565,8438.347739,-306.438199
205.646560,7550.100608,10584.944971,-1302.362347
205.646881,4737.318029,11251.130318,-2987.772442
205.647202,2960.823768,8808.450710,-4443.353888
205.647522,5329.482782,10362.883188,-919.314598
205.647843,5033.400406,10140.821405,4290.134789
205.648164,4811.338623,5625.565159,3600.648841
205.648484,5551.544565,4219.173869,1149.143247
205.648805,2590.720797,4885.359217,-306.438199
205.649126,2664.741391,7920.203579,-383.047749
205.649446,6217.729913,8068.244768,842.705048
205.649767,7105.977043,7846.182985,76.609550
205.650088,6809.894666,7550.100608,689.485948
205.650408,6809.894666,7105.977043,995.924147
205.650729,6143.709319,8512.368333,76.609550
205.651050,3552.988522,9326.594869,-1378.971896
205.651370,6143.709319,9548.656652,-2681.334243
205.651691,7846.182985,8142.265362,-3370.820191
205.652012,7105.977043,7624.121203,-2221.676944
205.652332,6143.709319,10362.883188,1072.533697
205.652653,2960.823768,10732.986159,1378.971896
205.652974,1924.535449,8216.285956,0.000000
205.653294,5181.441594,7328.038826,-306.438199
205.653615,4885.359217,6291.750507,-306.438199
205.653936,3923.091493,5921.647536,919.314598
205.654256,5329.482782,6735.874072,2221.676944
205.654577,3627.009116,8290.306550,459.657299
205.654898,2368.659014,8882.471304,-306.438199
205.655218,6587.832884,8142.265362,-766.095498
205.655539,6809.894666,7846.182985,-2374.896044
205.655860,3701.029710,7698.141797,-612.876398
205.656180,4589.276840,11917.315666,689.485948
205.656501,5033.400406,11843.295072,-1608.800546
205.656822,1998.556043,8290.306550,-3524.039291
205.657142,5921.647536,7254.018232,-995.924147
205.657463,6661.853478,7772.162391,842.705048
205.657784,2294.638420,8808.450710,459.657299
205.658104,3404.947333,9104.533087,2451.505594
205.658425,4663.297435,7402.059420,1608.800546
205.658746,5773.606348,6513.812290,229.828649
205.659066,6439.791695,6883.915261,1608.800546
205.659387,5255.462188,7105.977043,0.000000
205.659708,4811.338623,6587.832884,-2451.505594
205.660028,5477.523971,7994.224174,-919.314598
205.660349,4663.297435,7698.141797,-689.485948
205.660670,7105.977043,8512.368333,459.657299
205.660990,7402.059420,10288.862594,1991.848295
205.661311,5033.400406,10584.944971,-1685.410096
205.661632,4071.132681,9474.636058,-4060.306139
205.661952,4145.153275,7476.080014,-3217.601092
205.662273,5921.647536,7328.038826,-153.219100
205.662594,5255.462188,7402.059420,3064.381992
205.662914,5551.544565,8734.430116,2451.505594
205.663235,4737.318029,8216.285956,229.828649
205.663556,3923.091493,6069.688724,0.000000
205.663876,3627.009116,5255.462188,1838.629195
205.664197,5699.585753,5625.565159,2451.505594
205.664518,5329.482782,6069.688724,229.828649
205.664838,6957.935855,8512.368333,-306.438199
205.665159,6365.771101,8216.285956,-1762.019645
205.665480,5329.482782,7772.162391,-3217.601092
205.665800,4145.153275,8216.285956,-1762.019645
205.666121,4589.276840,9844.739029,-229.828649
205.666442,4737.318029,10807.006753,536.266849
205.666762,6365.771101,8808.450710,-383.047749
205.667083,5107.421000,6587.832884,-1838.629195
205.667404,3775.050304,7624.121203,-689.485948
205.667724,1998.556043,7920.203579,1149.143247
205.668045,3034.844362,8290.306550,2068.457845
205.668366,3034.844362,5921.647536,1149.143247
205.668686,6365.771101,6735.874072,2145.067394
205.669007,5773.606348,6661.853478,2528.115143
205.669328,4219.173869,6809.894666,612.876398
205.669648,3404.947333,7402.059420,-1225.752797
205.669969,5477.523971,8068.244768,-1455.581446
205.670290,7920.203579,8216.285956,-459.657299
205.670610,7550.100608,9548.656652,-229.828649
205.670931,4737.318029,9178.553681,-1991.848295
205.671252,4737.318029,11103.089130,-2911.162892
205.671572,4441.235652,11177.109724,-2145.067394
205.671893,3182.885551,9474.636058,-1532.190996
205.672214,5921.647536,9030.512492,919.314598
205.672534,4145.153275,8068.244768,2145.067394
205.672855,2812.782580,8734.430116,1608.800546
205.673176,2368.659014,7994.224174,2911.162892
205.673496,2442.679609,7328.038826,1378.971896
205.673817,3923.091493,5995.668130,1302.362347
205.674138,4441.235652,5625.565159,2298.286494
205.674458,5847.626942,7328.038826,1838.629195
205.674779,4737.318029,7179.997637,383.047749
205.675100,3404.947333,7105.977043,-1685.410096
205.675420,5107.421000,7772.162391,-3064.381992
205.675741,7698.141797,8438.347739,-1915.238745
205.676062,7698.141797,8364.327145,-995.924147
205.676382,8216.285956,10066.800811,-1302.362347
205.676703,7846.182985,10436.903782,-3447.429741
205.677024,5403.503377,9770.718434,-4519.963438
205.677344,5551.544565,8216.285956,-1991.848295
205.677665,7328.038826,7105.977043,919.314598
205.677986,6735.874072,6809.894666,2145.067394
205.678306,7550.100608,6513.812290,2834.553343
205.678627,3849.070898,5033.400406,306.438199
205.678948,1628.453072,3701.029710,-766.095498
205.679268,4367.215058,6883.915261,1455.581446
205.679589,5255.462188,7476.080014,1302.362347
205.679910,4441.235652,6143.709319,-153.219100
205.680230,9548.656652,8438.347739,-612.876398
205.680551,5699.585753,9548.656652,-2451.505594
205.680872,1850.514855,10066.800811,-3753.867940
205.681192,3849.070898,8882.471304,-2451.505594
205.681513,5921.647536,9918.759623,-1685.410096
205.681834,6365.771101,11029.068536,306.438199
205.682154,5773.606348,12361.439231,229.828649
205.682475,2590.720797,9548.656652,-2681.334243
205.682796,3627.009116,9696.697840,-2221.676944
205.683116,2442.679609,9622.677246,2987.772442
205.683437,1998.556043,6735.874072,2911.162892
205.683758,3997.112087,4811.338623,2987.772442
205.684078,2368.659014,5255.462188,2681.334243
205.684399,2664.741391,8290.306550,919.314598
205.684720,3552.988522,7624.121203,383.047749
205.685040,5255.462188,7920.203579,-1838.629195
205.685361,7920.203579,9622.677246,-2145.067394
205.685682,6291.750507,8882.471304,-306.438199
205.686002,7624.121203,9104.533087,-689.485948
205.686323,8364.327145,9770.718434,-1915.238745
205.686644,5107.421000,9326.594869,-3140.991542
205.686964,5773.606348,8956.491898,-3370.820191
205.687285,6809.894666,8438.347739,-995.924147
205.687606,5625.565159,7846.182985,1838.629195
205.687926,6439.791695,6587.832884,4213.525239
205.688247,5921.647536,6883.915261,2528.115143
205.688568,3775.050304,7031.956449,-919.314598
205.688888,2664.741391,5403.503377,-306.438199
205.689209,5033.400406,4293.194464,919.314598
205.689530,6957.935855,4589.276840,3064.381992
205.689850,6365.771101,6143.709319,3294.210641
205.690171,4737.318029,7402.059420,766.095498
205.690492,1924.535449,8290.306550,-3600.648841
205.690812,3627.009116,9844.739029,-4213.525239
205.691133,5995.668130,11103.089130,-1532.190996
205.691454,6217.729913,8142.265362,-1455.581446
205.691774,7920.203579,7105.977043,-1608.800546
205.692095,6069.688724,8290.306550,-995.924147
205.692416,1924.535449,9918.759623,-919.314598
205.692736,2146.597232,8586.388927,536.266849
205.693057,4811.338623,7698.141797,1762.019645
205.693378,7105.977043,7476.080014,1608.800546
205.693698,6217.729913,7254.018232,1608.800546
205.694019,3256.906145,5477.523971,306.438199
205.694340,4441.235652,4885.359217,-612.876398
205.694660,4589.276840,5995.668130,2528.115143
205.694981,4589.276840,7550.100608,1991.848295
205.695302,7031.956449,7698.141797,-306.438199
205.695622,5033.400406,7994.224174,-1838.629195
205.695943,6809.894666,10955.047942,-1302.362347
205.696264,6439.791695,10881.027347,-536.266849
205.696584,5403.503377,9918.759623,-2528.115143
205.696905,6809.894666,9030.512492,-3983.696590
205.697226,6957.935855,8734.430116,-1455.581446
205.697546,4219.173869,8808.450710,766.095498
205.697867,4071.132681,8290.306550,2068.457845
205.698188,3701.029710,8142.265362,2221.676944
205.698508,3256.906145,7772.162391,995.924147
205.698829,3849.070898,7402.059420,1149.143247
205.699150,3330.926739,6809.894666,383.047749
205.699470,3701.029710,7254.018232,612.876398
205.699791,3256.906145,7105.977043,1762.019645
205.700112,3997.112087,8734.430116,-306.438199
205.700432,4145.153275,10362.883188,-1915.238745
205.700753,3997.112087,10807.006753,-1455.581446
205.701074,4737.318029,9918.759623,-1532.190996
205.701394,6587.832884,9992.780217,-612.876398
205.701715,4293.194464,9326.594869,-995.924147
205.702036,2220.617826,7920.203579,-536.266849
205.702356,4515.256246,8142.265362,-153.219100
205.702677,5551.544565,9030.512492,1149.143247
205.702998,3997.112087,7550.100608,1685.410096
205.703318,7031.956449,5921.647536,1149.143247
205.703639,6809.894666,6809.894666,76.609550
205.703960,2812.782580,5551.544565,-153.219100
205.704280,5773.606348,5403.503377,919.314598
205.704601,6809.894666,5699.585753,459.657299
205.704922,6217.729913,7402.059420,-612.876398
205.705242,7698.141797,8956.491898,-919.314598
205.705563,5921.647536,9104.533087,-2834.553343
205.705884,3775.050304,8290.306550,-3600.648841
205.706204,6957.935855,8956.491898,-689.485948
205.706525,6365.771101,9474.636058,-919.314598
205.706846,4959.379811,8660.409521,-1225.752797
205.707166,3849.070898,7402.059420,-842.705048
205.707487,3478.967927,8438.347739,-766.095498
205.707808,3627.009116,9104.533087,995.924147
205.708128,4071.132681,8438.347739,3370.820191
205.708449,5033.400406,7698.141797,1225.752797
205.708770,3478.967927,6217.729913,76.609550
205.709090,3034.844362,5551.544565,1378.971896
205.709411,4441.235652,6957.935855,2068.457845
205.709732,5625.565159,6809.894666,919.314598
205.710052,5625.565159,8438.347739,0.000000
205.710373,7105.977043,11695.253884,-536.266849
205.710694,5477.523971,9252.574275,-1378.971896
205.711014,5551.544565,7920.203579,-766.095498
205.711335,7031.956449,7254.018232,0.000000
205.711656,7994.224174,8956.491898,-1378.971896
205.711976,6661.853478,9474.636058,-1455.581446
205.712297,4959.379811,9178.553681,-2145.067394
205.712618,5477.523971,7772.162391,-766.095498
205.712938,6439.791695,7254.018232,2374.896044
205.713259,5847.626942,6883.915261,2604.724693
205.713579,4959.379811,5477.523971,153.219100
205.713900,4219.173869,4811.338623,153.219100
205.714221,4071.132681,5403.503377,919.314598
205.714541,4737.318029,7772.162391,995.924147
205.714862,5477.523971,8438.347739,459.657299
205.715182,5255.462188,9474.636058,-1302.362347
205.715503,6587.832884,10214.842000,-2681.334243
205.715824,4663.297435,9992.780217,-2221.676944
205.716144,3923.091493,8956.491898,-2374.896044
205.716465,4737.318029,8364.327145,-919.314598
205.716785,3627.009116,9474.636058,-153.219100
205.717106,2886.803174,9326.594869,-766.095498
205.717427,3775.050304,10362.883188,-306.438199
205.717747,2664.741391,9104.533087,536.266849
205.718068,1998.556043,9400.615463,1302.362347
205.718388,1924.535449,8290.306550,2834.553343
205.718709,1258.350101,6809.894666,995.924147
205.719030,2220.617826,5773.606348,1072.533697
205.719350,3108.864956,6365.771101,1991.848295
205.719671,3034.844362,8734.430116,995.924147
205.719991,2368.659014,9770.718434,0.000000
205.720312,4737.318029,10288.862594,-1991.848295
205.720633,6143.709319,9696.697840,-2604.724693
205.720953,5995.668130,8586.388927,-2221.676944
205.721274,6439.791695,8956.491898,-2068.457845
205.721594,5033.400406,10288.862594,-2681.334243
205.721915,5255.462188,10658.965565,-1302.362347
205.722236,6439.791695,9992.780217,153.219100
205.722556,6143.709319,8660.409521,612.876398
205.722877,4737.318029,7105.977043,459.657299
205.723197,4885.359217,6809.894666,1685.410096
205.723518,4293.194464,5477.523971,1225.752797
205.723839,4367.215058,3849.070898,1149.143247
205.724159,5403.503377,4145.153275,1149.143247
205.724480,6217.729913,6069.688724,153.219100
205.724800,6291.750507,8438.347739,536.266849
205.725121,6735.874072,9178.553681,153.219100
205.725442,7105.977043,9178.553681,-459.657299
205.725762,8290.306550,6809.894666,-1762.019645
205.726083,6069.688724,5329.482782,-1608.800546
205.726403,5847.626942,6883.915261,-1608.800546
205.726724,6809.894666,11103.089130,-1378.971896
205.727045,5921.647536,11103.089130,-1532.190996
205.727365,4737.318029,7402.059420,-1915.238745
205.727686,8290.306550,5921.647536,229.828649
205.728006,3404.947333,7328.038826,2068.457845
205.728327,1110.308913,7031.956449,2145.067394
205.728648,3182.885551,5107.421000,2221.676944
205.728968,5181.441594,3775.050304,153.219100
205.729289,6513.812290,5847.626942,76.609550
205.729609,5699.585753,7920.203579,-229.828649
205.729930,3997.112087,9030.512492,-2757.943793
205.730251,5551.544565,10732.986159,-2068.457845
205.730571,5181.441594,9474.636058,-536.266849
205.730892,6735.874072,7772.162391,-2451.505594
205.731212,6587.832884,7179.997637,-1915.238745
205.731533,1628.453072,9474.636058,-3830.477490
205.731854,3627.009116,11843.295072,-3294.210641
205.732174,5033.400406,11991.336260,-229.828649
205.732495,5477.523971,10436.903782,1149.143247
205.732815,4811.338623,8734.430116,2451.505594
205.733136,3997.112087,8290.306550,2451.505594
205.733457,1480.411884,8660.409521,995.924147
205.733777,444.123565,6513.812290,1685.410096
205.734098,3330.926739,5255.462188,1302.362347
205.734418,5995.668130,6883.915261,612.876398
205.734739,3923.091493,7846.182985,459.657299
205.735060,4441.235652,10658.965565,0.000000
205.735380,5847.626942,11547.212695,-1302.362347
205.735701,4959.379811,9252.574275,-2681.334243
205.736021,5847.626942,8734.430116,-3140.991542
205.736342,7698.141797,9474.636058,-3217.601092
205.736663,6365.771101,10807.006753,-2145.067394
205.736983,6735.874072,11399.171507,-383.047749
205.737304,8586.388927,9104.533087,-459.657299
205.737624,5699.585753,5329.482782,-229.828649
205.737945,4515.256246,3108.864956,1991.848295
205.738266,5551.544565,5625.565159,3370.820191
205.738586,5477.523971,6217.729913,2221.676944
205.738907,4811.338623,4145.153275,0.000000
205.739227,9104.533087,3256.906145,-612.876398
205.739548,7846.182985,4145.153275,-1991.848295
205.739869,5847.626942,6217.729913,-766.095498
205.740189,5773.606348,7031.956449,459.657299
205.740510,9400.615463,8512.368333,-1149.143247
205.740830,10362.883188,9770.718434,-2068.457845
205.741151,8734.430116,10140.821405,-2757.943793
205.741472,6069.688724,9104.533087,-4136.915689
205.741792,4589.276840,9622.677246,-2757.943793
205.742113,5255.462188,9844.739029,1455.581446
205.742433,6883.915261,7179.997637,2528.115143
205.742754,6291.750507,2812.782580,1072.533697
205.743075,1850.514855,1036.288319,0.000000
205.743395,3627.009116,4367.215058,1532.190996
205.743716,5181.441594,7402.059420,4213.525239
205.744036,7105.977043,7698.141797,4596.572988
205.744357,11399.171507,5921.647536,2451.505594
205.744678,11769.274478,5329.482782,0.000000
205.744998,7772.162391,3849.070898,-1225.752797
205.745319,7254.018232,2886.803174,-1991.848295
205.745639,11917.315666,4589.276840,-2374.896044
205.745960,16062.468941,7994.224174,-2987.772442
205.746281,15322.262999,10436.903782,-2911.162892
205.746601,11917.315666,9622.677246,-2834.553343
205.746922,9474.636058,7254.018232,-1378.971896
205.747242,7550.100608,3108.864956,2451.505594
205.747563,9030.512492,1628.453072,3294.210641
205.747884,9918.759623,1406.391290,1685.410096
205.748204,8808.450710,3108.864956,-995.924147
205.748525,6957.935855,4737.318029,-1225.752797
205.748845,7402.059420,4441.235652,612.876398
205.749166,8290.306550,4219.173869,1685.410096
205.749487,8956.491898,5551.544565,1915.238745
205.749807,9770.718434,6957.935855,229.828649
205.750128,9770.718434,8068.244768,229.828649
205.750448,8068.244768,6291.750507,766.095498
205.750769,8808.450710,4959.379811,766.095498
205.751090,10362.883188,7105.977043,-1072.533697
205.751410,8734.430116,7772.162391,-3753.867940
205.751731,7550.100608,6513.812290,-4596.572988
205.752051,11103.089130,5107.421000,-1838.629195
205.752372,8438.347739,4293.194464,995.924147
205.752693,6957.935855,3923.091493,2528.115143
205.753013,6809.894666,5551.544565,1532.190996
205.753334,7846.182985,7846.182985,0.000000
205.753654,8956.491898,7476.080014,1762.019645
205.753975,9326.594869,5403.503377,3370.820191
205.754296,8808.450710,4219.173869,383.047749
205.754616,7031.956449,4811.338623,-919.314598
205.754937,8438.347739,7105.977043,-1149.143247
205.755257,11621.233289,8216.285956,-1838.629195
205.755578,10732.986159,7624.121203,-766.095498
205.755899,10881.027347,5329.482782,689.485948
205.756219,11621.233289,5181.441594,383.047749
205.756540,9548.656652,6217.729913,-689.485948
205.756860,9770.718434,4737.318029,-1072.533697
205.757181,11177.109724,2442.679609,-2068.457845
205.757502,13323.706956,2368.659014,-612.876398
205.757822,12139.377449,4737.318029,2834.553343
205.758143,10214.842000,6069.688724,3447.429741
205.758463,9326.594869,5107.421000,-612.876398
205.758784,11103.089130,4145.153275,-536.266849
205.759105,10584.944971,3701.029710,459.657299
205.759425,11547.212695,3552.988522,842.705048
205.759746,8734.430116,3923.091493,0.000000
205.760066,9252.574275,5921.647536,-689.485948
205.760387,7402.059420,7550.100608,-76.609550
205.760708,7328.038826,6217.729913,383.047749
205.761028,8068.244768,5477.523971,76.609550
205.761349,8290.306550,5477.523971,306.438199
205.761669,6069.688724,5551.544565,-383.047749
205.761990,6143.709319,4959.379811,-2221.676944
205.762311,5477.523971,4737.318029,-2374.896044
205.762631,7772.162391,7031.956449,-689.485948
205.762952,8364.327145,9104.533087,1991.848295
205.763272,8068.244768,8956.491898,1072.533697
205.763593,7550.100608,8364.327145,0.000000
205.763914,8364.327145,8364.327145,536.266849
205.764234,7550.100608,5995.668130,1455.581446
205.764555,7254.018232,2886.803174,2068.457845
205.764875,8956.491898,888.247130,1991.848295
205.765196,10288.862594,1406.391290,842.705048
205.765517,9030.512492,1924.535449,0.000000
205.765837,9474.636058,3330.926739,-1532.190996
205.766158,11917.315666,5107.421000,-2068.457845
205.766478,12435.459826,4515.256246,-612.876398
205.766799,15618.345376,4663.297435,0.000000
205.767120,16284.530724,6143.709319,-995.924147
205.767440,11991.336260,6513.812290,-3830.477490
205.767761,10881.027347,5699.585753,-3907.087040
205.768081,11547.212695,5255.462188,-2451.505594
205.768402,12361.439231,4737.318029,0.000000
205.768723,11325.150913,5773.606348,689.485948
205.769043,7772.162391,6809.894666,-1455.581446
205.769364,5181.441594,6957.935855,-2911.162892
205.769684,5625.565159,7105.977043,1762.019645
205.770005,5255.462188,5921.647536,4060.306139
205.770326,5181.441594,4737.318029,2604.724693
205.770646,4219.173869,4737.318029,1072.533697
205.770967,3701.029710,7846.182985,76.609550
205.771287,4441.235652,10658.965565,612.876398
205.771608,5773.606348,9992.780217,1838.629195
205.771929,8438.347739,8216.285956,76.609550
205.772249,8956.491898,7476.080014,229.828649
205.772570,8290.306550,7328.038826,306.438199
205.772890,8364.327145,7031.956449,-76.609550
205.773211,9770.718434,5625.565159,-766.095498
205.773532,11325.150913,3034.844362,-1072.533697
205.773852,11991.336260,888.247130,-766.095498
205.774173,13767.830521,666.185348,229.828649
205.774493,14434.015869,3478.967927,153.219100
205.774814,14211.954086,4367.215058,306.438199
205.775135,14137.933492,2886.803174,-995.924147
205.775455,15692.365970,2368.659014,-1685.410096
205.775776,16210.510130,2886.803174,-919.314598
205.776096,14730.098246,4145.153275,-1225.752797
205.776417,12879.583391,4589.276840,-2528.115143
205.776738,11769.274478,4219.173869,-2757.943793
205.777058,10807.006753,3627.009116,-995.924147
205.777379,10510.924376,3034.844362,0.000000
205.777699,9622.677246,4959.379811,-383.047749
205.778020,6513.812290,7105.977043,-766.095498
205.778341,5255.462188,6365.771101,0.000000
205.778661,6587.832884,4663.297435,1072.533697
205.778982,7105.977043,3775.050304,1762.019645
205.779302,5995.668130,5255.462188,2068.457845
205.779623,5255.462188,8734.430116,1072.533697
205.779944,3997.112087,9992.780217,153.219100
205.780264,5477.523971,9178.553681,1225.752797
205.780585,7994.224174,7624.121203,2221.676944
205.780905,8660.409521,6439.791695,2068.457845
205.781226,7254.018232,6957.935855,766.095498
205.781547,6069.688724,7105.977043,306.438199
205.781867,6735.874072,3997.112087,0.000000
205.782188,10214.842000,740.205942,689.485948
205.782508,12287.418637,0.000000,1149.143247
205.782829,12509.480420,3552.988522,0.000000
205.783150,12139.377449,6439.791695,-1991.848295
205.783470,13323.706956,7105.977043,-3753.867940
205.783791,15248.242405,5255.462188,-2451.505594
205.784111,16136.489536,4071.132681,76.609550
205.784432,14656.077652,4737.318029,995.924147
205.784753,11695.253884,6291.750507,-919.314598
205.785073,9992.780217,6883.915261,-2604.724693
205.785394,9474.636058,6365.771101,-1991.848295
205.785714,9030.512492,4811.338623,0.000000
205.786035,7624.121203,3627.009116,1762.019645
205.786356,4959.379811,4145.153275,1532.190996
205.786676,4219.173869,5255.462188,0.000000
205.786997,3997.112087,6217.729913,-536.266849
205.787317,4441.235652,7624.121203,612.876398
205.787638,5107.421000,9252.574275,1532.190996
205.787959,5773.606348,10955.047942,2068.457845
205.788279,5329.482782,11177.109724,1302.362347
205.788600,4515.256246,8882.471304,766.095498
205.788920,5181.441594,7179.997637,0.000000
205.789241,6143.709319,5033.400406,0.000000
205.789562,7105.977043,5551.544565,229.828649
205.789882,8512.368333,6587.832884,306.438199
205.790203,10362.883188,6883.915261,536.266849
205.790523,11547.212695,4737.318029,689.485948
205.790844,11399.171507,666.185348,919.314598
205.791165,12657.521608,-1258.350101,76.609550
205.791485,14508.036463,-666.185348,-536.266849
205.791806,15544.324782,1850.514855,-2221.676944
205.792126,17024.736666,4515.256246,-2451.505594
205.792447,17024.736666,5773.606348,-3753.867940
205.792767,16062.468941,5477.523971,-3294.210641
205.793088,15100.201217,4959.379811,-1915.238745
205.793409,12731.542202,4145.153275,-1378.971896
205.793729,10140.821405,2664.741391,-1991.848295
205.794050,10436.903782,2294.638420,-2145.067394
205.794370,9400.615463,3182.885551,-1532.190996
205.794691,7772.162391,5329.482782,76.609550
205.795012,7624.121203,8734.430116,1378.971896
205.795332,7328.038826,9252.574275,306.438199
205.795653,6291.750507,8068.244768,0.000000
205.795973,5329.482782,6513.812290,1685.410096
205.796294,5107.421000,4737.318029,3294.210641
205.796615,4367.215058,4737.318029,2604.724693
205.796935,4959.379811,6365.771101,2451.505594
205.797256,6365.771101,8142.265362,689.485948
205.797576,7476.080014,9326.594869,-153.219100
205.797897,8512.368333,9104.533087,76.609550
205.798218,9474.636058,7846.182985,459.657299
205.798538,9844.739029,5699.585753,1225.752797
205.798859,10362.883188,3849.070898,536.266849
205.799179,10510.924376,2442.679609,-383.047749
205.799500,10807.006753,2442.679609,-919.314598
205.799821,11621.233289,3775.050304,-612.876398
205.800141,13027.624579,4959.379811,-919.314598
205.800462,12583.501014,6587.832884,-2451.505594
205.800782,12213.398043,7476.080014,-3370.820191
205.801103,11769.274478,6883.915261,-2145.067394
205.801424,10807.006753,5477.523971,459.657299
205.801744,9622.677246,4663.297435,1915.238745
205.802065,7994.224174,4589.276840,1072.533697
205.802385,7105.977043,5181.441594,-919.314598
205.802706,6661.853478,6809.894666,-1378.971896
205.803027,6587.832884,6439.791695,-536.266849
205.803347,7105.977043,5329.482782,0.000000
205.803668,7254.018232,4589.276840,842.705048
205.803988,6291.750507,5107.421000,1225.752797
205.804309,5403.503377,6439.791695,842.705048
205.804630,6069.688724,6587.832884,306.438199
205.804950,7328.038826,6587.832884,842.705048
205.805271,7920.203579,6957.935855,1149.143247
205.805591,8956.491898,7402.059420,842.705048
205.805912,8438.347739,8216.285956,-306.438199
205.806233,8364.327145,7920.203579,-995.924147
205.806553,8808.450710,6439.791695,-306.438199
205.806874,9030.512492,4959.379811,689.485948
205.807194,9326.594869,3627.009116,1685.410096
205.807515,9104.533087,2294.638420,1225.752797
205.807836,9326.594869,1406.391290,536.266849
205.808156,10955.047942,1776.494261,-766.095498
205.808477,11769.274478,1924.535449,-229.828649
205.808797,12435.459826,2960.823768,-1149.143247
205.809118,12805.562797,4367.215058,-2145.067394
205.809439,13323.706956,5773.606348,-2987.772442
205.809759,13397.727550,7105.977043,-2911.162892
205.810080,13693.809927,7179.997637,-2987.772442
205.810400,12731.542202,7031.956449,-2221.676944
205.810721,11325.150913,5995.668130,-1685.410096
205.811042,10510.924376,5551.544565,153.219100
205.811362,9326.594869,5551.544565,1302.362347
205.811683,8216.285956,4737.318029,2145.067394
205.812003,7031.956449,4589.276840,2068.457845
205.812324,6809.894666,4737.318029,1991.848295
205.812647,6291.750507,4293.194464,2068.457845
205.812968,6439.791695,4219.173869,1991.848295
205.813289,6883.915261,4663.297435,1378.971896
205.813609,7476.080014,5847.626942,383.047749
205.813930,7920.203579,7772.162391,0.000000
205.814251,9030.512492,8734.430116,-536.266849
205.814571,9992.780217,9104.533087,-459.657299
205.814892,10066.800811,8438.347739,0.000000
205.815213,9474.636058,7550.100608,0.000000
205.815533,9326.594869,6291.750507,0.000000
205.815854,9030.512492,4811.338623,-306.438199
205.816175,9178.553681,3330.926739,-383.047749
205.816496,9252.574275,2220.617826,-612.876398
205.816816,10288.862594,2886.803174,-689.485948
205.817137,10140.821405,4737.318029,-612.876398
205.817458,10140.821405,6587.832884,-612.876398
205.817778,9992.780217,7476.080014,-76.609550
205.818099,9474.636058,8290.306550,842.705048
205.818420,7402.059420,8216.285956,919.314598
205.818740,6143.709319,8364.327145,1072.533697
205.819061,4737.318029,8216.285956,153.219100
205.819382,3997.112087,7476.080014,-229.828649
205.819702,3775.050304,6735.874072,-766.095498
205.820023,4367.215058,6883.915261,-766.095498
205.820344,3478.967927,8142.265362,229.828649
205.820664,3256.906145,9696.697840,1762.019645
205.820985,3108.864956,10955.047942,2911.162892
205.821306,4959.379811,11325.150913,3447.429741
205.821626,5773.606348,10732.986159,5439.278036
205.821947,5107.421000,9252.574275,5286.058936
205.822268,4219.173869,8142.265362,4366.744339
205.822588,4441.235652,7402.059420,4136.915689
205.822909,4811.338623,7772.162391,4060.306139
205.823230,5995.668130,8364.327145,3600.648841
205.823550,6735.874072,9252.574275,3600.648841
205.823871,6513.812290,8808.450710,3370.820191
205.824192,6513.812290,8660.409521,4213.525239
205.824512,7105.977043,7105.977043,5286.058936
205.824833,7920.203579,7328.038826,4903.011187
205.825154,8216.285956,7476.080014,4290.134789
205.825474,7772.162391,7698.141797,4060.306139
205.825795,7994.224174,7920.203579,4213.525239
205.826116,8512.368333,8512.368333,5439.278036
205.826436,8068.244768,8660.409521,6894.859482
205.826757,7328.038826,8142.265362,7048.078582
205.827078,6957.935855,7105.977043,6894.859482
205.827398,5995.668130,6143.709319,6894.859482
205.827719,5551.544565,5181.441594,7277.907231
205.828040,5181.441594,4293.194464,7431.126331
205.828360,5403.503377,5033.400406,7277.907231
205.828681,5403.503377,6587.832884,7354.516781
205.829002,4885.359217,7994.224174,7431.126331
205.829322,4737.318029,8364.327145,6971.469032
205.829643,4367.215058,7772.162391,7507.735880
205.829964,4071.132681,7328.038826,7584.345430
205.830284,3701.029710,7105.977043,8044.002729
205.830605,2738.761985,6513.812290,7201.297681
205.830926,1924.535449,6217.729913,7124.688131
205.831246,1702.473667,6217.729913,6205.373534
205.831567,1406.391290,5995.668130,5898.935335
205.831888,1258.350101,5921.647536,5209.449386
205.832208,2516.700203,6365.771101,5209.449386
205.832529,3256.906145,6957.935855,5822.325785
205.832850,3182.885551,7402.059420,6358.592633
205.833170,3775.050304,7624.121203,6511.811733
205.833491,4367.215058,7772.162391,5669.106685
205.833812,4145.153275,7550.100608,4903.011187
205.834132,4071.132681,7254.018232,4443.353888
205.834453,4515.256246,6735.874072,3830.477490
205.834774,4515.256246,5847.626942,4213.525239
205.835094,4737.318029,5477.523971,4366.744339
205.835415,4589.276840,5995.668130,3064.381992
205.835736,4071.132681,6365.771101,2451.505594
205.836056,4959.379811,7179.997637,1838.629195
205.836377,5625.565159,8660.409521,2221.676944
205.836698,6365.771101,9252.574275,2374.896044
205.837018,6513.812290,11103.089130,2987.772442
205.837339,6883.915261,11177.109724,3294.210641
205.837660,6513.812290,10436.903782,4443.353888
205.837980,5847.626942,9918.759623,5975.544884
205.838301,4959.379811,9918.759623,6052.154434
205.838622,4959.379811,9844.739029,5669.106685
205.838942,4145.153275,9104.533087,5669.106685
205.839263,3256.906145,6513.812290,4366.744339
205.839584,3256.906145,2886.803174,2681.334243
205.839904,3923.091493,1184.329507,1072.533697
205.840225,5403.503377,3256.906145,995.924147
205.840546,6883.915261,8586.388927,-383.047749
205.840866,9104.533087,13767.830521,-1838.629195
205.841187,10955.047942,17542.880825,-1991.848295
205.841508,11177.109724,18653.189738,0.000000
205.841828,10140.821405,17394.839637,3677.258390
205.842149,8882.471304,13989.892304,4979.620737
205.842470,6291.750507,9178.553681,5975.544884
205.842790,5773.606348,7105.977043,6665.030833
205.843111,2442.679609,6587.832884,8044.002729
205.843432,962.267725,7105.977043,6435.202183
205.843753,1258.350101,6661.853478,5898.935335
205.844073,2738.761985,6291.750507,4749.792088
205.844394,2590.720797,4959.379811,4519.963438
205.844715,4589.276840,5699.585753,5132.839837
205.845035,6809.894666,8734.430116,5439.278036
205.845356,6365.771101,12953.603985,4673.182538
205.845677,6365.771101,14582.057057,3370.820191
205.845997,8808.450710,15396.283594,2681.334243
205.846318,9622.677246,14656.077652,3140.991542
205.846639,6365.771101,10214.842000,5209.449386
205.846959,5033.400406,4737.318029,6358.592633
205.847280,5107.421000,2812.782580,7354.516781
205.847601,1554.432478,2960.823768,6588.421283
205.847921,2368.659014,4515.256246,4903.011187
205.848242,4589.276840,6217.729913,4366.744339
205.848563,5107.421000,7105.977043,5592.497135
205.848883,5477.523971,6587.832884,8120.612279
205.849204,6513.812290,6957.935855,9652.803275
205.849525,5625.565159,9622.677246,8503.660028
205.849845,2146.597232,10362.883188,6205.373534
205.850166,2368.659014,8142.265362,4903.011187
205.850487,4737.318029,6587.832884,4749.792088
205.850807,4219.173869,4071.132681,5669.106685
205.851128,3997.112087,5699.585753,8273.831378
205.851449,4293.194464,8142.265362,8963.317327
205.851769,370.102971,8438.347739,5439.278036
205.852090,1850.514855,7328.038826,5132.839837
205.852411,3849.070898,4737.318029,6358.592633
205.852731,3849.070898,2368.659014,6971.469032
205.853052,4219.173869,2738.761985,6894.859482
205.853373,6217.729913,7105.977043,6665.030833
205.853693,6217.729913,11547.212695,6052.154434
205.854014,4367.215058,11103.089130,5669.106685
205.854335,4515.256246,7476.080014,4749.792088
205.854655,3775.050304,4811.338623,4979.620737
205.854976,2368.659014,3182.885551,7584.345430
205.855297,4293.194464,4811.338623,9882.631924
205.855617,5551.544565,9400.615463,8886.707777
205.855938,4663.297435,13397.727550,4673.182538
205.856259,4959.379811,13989.892304,1685.410096
205.856579,6069.688724,11399.171507,1762.019645
205.856900,4737.318029,6291.750507,4673.182538
205.857221,4293.194464,3182.885551,6741.640382
205.857541,6365.771101,2960.823768,8044.002729
205.857862,6439.791695,6365.771101,6818.249932
205.858183,4663.297435,8660.409521,4903.011187
205.858503,5107.421000,8882.471304,3600.648841
205.858824,7179.997637,10807.006753,3830.477490
205.859145,5773.606348,12065.356855,5669.106685
205.859465,5699.585753,10658.965565,6358.592633
205.859786,7624.121203,8808.450710,4903.011187
205.860107,6957.935855,7402.059420,2681.334243
205.860427,4737.318029,6587.832884,1455.581446
205.860748,4811.338623,7179.997637,1762.019645
205.861069,5329.482782,9104.533087,2911.162892
205.861389,4885.359217,10510.924376,4596.572988
205.861710,5625.565159,10807.006753,5515.887586
205.862031,7328.038826,10807.006753,5056.230287
205.862351,5773.606348,10362.883188,3983.696590
205.862672,4145.153275,11103.089130,3830.477490
205.862993,4367.215058,10658.965565,2987.772442
205.863313,4219.173869,9252.574275,4060.306139
205.863634,4737.318029,8068.244768,6588.421283
205.863955,5477.523971,8142.265362,6894.859482
205.864275,4145.153275,8512.368333,3907.087040
205.864596,2812.782580,9548.656652,1915.238745
205.864917,3775.050304,8734.430116,3447.429741
205.865237,5847.626942,7402.059420,5439.278036
205.865558,7031.956449,7624.121203,5592.497135
205.865879,5625.565159,8734.430116,4596.572988
205.866199,3923.091493,9400.615463,2987.772442
205.866520,5847.626942,10066.800811,3370.820191
205.866841,7179.997637,9030.512492,4903.011187
205.867161,6439.791695,7179.997637,5362.668486
205.867482,6439.791695,6291.750507,4290.134789
205.867803,5551.544565,7402.059420,3600.648841
205.868123,4071.132681,8512.368333,4596.572988
205.868444,4367.215058,7105.977043,4903.011187
205.868765,5329.482782,4441.235652,2987.772442
205.869085,5847.626942,4367.215058,4903.011187
205.869406,5477.523971,7105.977043,7737.564530
205.869727,4663.297435,10066.800811,6511.811733
205.870047,2664.741391,9844.739029,4596.572988
205.870368,2886.803174,7179.997637,3753.867940
205.870689,5551.544565,5921.647536,5822.325785
205.871009,6143.709319,7105.977043,7584.345430
205.871330,3256.906145,8808.450710,6741.640382
205.871651,1924.535449,9400.615463,3907.087040
205.871972,2664.741391,8438.347739,2451.505594
205.872292,4071.132681,7476.080014,5362.668486
205.872613,5699.585753,6883.915261,8273.831378
205.872934,7105.977043,9400.615463,8120.612279
205.873254,3627.009116,11029.068536,6052.154434
205.873575,1480.411884,8586.388927,4903.011187
205.873896,4219.173869,4811.338623,6588.421283
205.874216,6587.832884,4737.318029,8503.660028
205.874537,5181.441594,6439.791695,8733.488677
205.874858,4367.215058,7402.059420,6205.373534
205.875178,4959.379811,7031.956449,3140.991542
205.875499,5255.462188,5181.441594,3294.210641
205.875820,7179.997637,5403.503377,6205.373534
205.876140,8142.265362,7772.162391,5209.449386
205.876461,5847.626942,10288.862594,3524.039291
205.876782,5625.565159,11251.130318,2834.553343
205.877102,7105.977043,9474.636058,3830.477490
205.877423,7179.997637,7624.121203,6128.763984
205.877744,4663.297435,8216.285956,7737.564530
205.878064,3108.864956,9104.533087,6741.640382
205.878385,2146.597232,8438.347739,2987.772442
205.878706,1702.473667,6587.832884,2757.943793
205.879026,3182.885551,5847.626942,4136.915689
205.879347,4145.153275,6291.750507,6818.249932
205.879668,2960.823768,7624.121203,6128.763984
205.879988,2442.679609,9622.677246,3830.477490
205.880309,2590.720797,9622.677246,2068.457845
205.880630,4145.153275,8882.471304,3064.381992
205.880950,4885.359217,9622.677246,6052.154434
205.881271,6439.791695,12361.439231,7354.516781
205.881592,5033.400406,12287.418637,4749.792088
205.881912,4663.297435,11251.130318,2374.896044
205.882233,4589.276840,7772.162391,2834.553343
205.882554,5921.647536,5773.606348,5822.325785
205.882874,4367.215058,5107.421000,6588.421283
205.883195,4219.173869,5255.462188,4290.134789
205.883516,4885.359217,5403.503377,2221.676944
205.883836,8216.285956,6735.874072,2374.896044
205.884157,7179.997637,6735.874072,3830.477490
205.884478,8068.244768,8734.430116,4290.134789
205.884798,8068.244768,9400.615463,2757.943793
205.885119,7624.121203,7550.100608,1685.410096
205.885440,7994.224174,6217.729913,2604.724693
205.885760,10584.944971,9178.553681,3294.210641
205.886081,7105.977043,11325.150913,2374.896044
205.886402,4959.379811,10066.800811,1608.800546
205.886722,6069.688724,9474.636058,2298.286494
205.887043,6069.688724,8216.285956,4366.744339
205.887364,2664.741391,6143.709319,5669.106685
205.887684,2886.803174,5847.626942,5132.839837
205.888005,2664.741391,7550.100608,3907.087040
205.888326,1480.411884,9326.594869,4519.963438
205.888646,3849.070898,9918.759623,4213.525239
205.888967,7328.038826,11547.212695,4443.353888
205.889288,4737.318029,12065.356855,6665.030833
205.889608,2294.638420,11325.150913,8350.440928
205.889929,3997.112087,9844.739029,7354.516781
205.890250,3256.906145,7328.038826,4979.620737
205.890570,2072.576638,4219.173869,3753.867940
205.890891,5329.482782,3997.112087,3370.820191
205.891212,6217.729913,6587.832884,3447.429741
205.891532,6735.874072,9474.636058,3753.867940
205.891853,6809.894666,8882.471304,3524.039291
205.892174,7920.203579,7328.038826,3140.991542
205.892494,7031.956449,5625.565159,4979.620737
205.892815,6587.832884,5033.400406,6128.763984
205.893136,6661.853478,6069.688724,4903.011187
205.893456,6661.853478,7328.038826,1762.019645
205.893777,6439.791695,8808.450710,536.266849
205.894098,6439.791695,9474.636058,1149.143247
205.894418,5995.668130,8734.430116,2681.334243
205.894739,4367.215058,6439.791695,4213.525239
205.895060,1924.535449,4959.379811,3140.991542
205.895380,1184.329507,7105.977043,3600.648841
205.895701,888.247130,8364.327145,4519.963438
205.896022,3552.988522,9474.636058,4213.525239
205.896342,2738.761985,10807.006753,3064.381992
205.896663,1628.453072,12065.356855,2987.772442
205.896984,2590.720797,11621.233289,5362.668486
205.897304,2146.597232,7920.203579,6281.983084
205.897625,1036.288319,4145.153275,6052.154434
205.897946,2220.617826,3330.926739,4519.963438
205.898266,2738.761985,4811.338623,2221.676944
205.898587,2368.659014,5847.626942,1608.800546
205.898908,5033.400406,7550.100608,2451.505594
205.899229,9474.636058,10362.883188,2451.505594
205.899549,8808.450710,10214.842000,459.657299
205.899870,6069.688724,8290.306550,0.000000
205.900191,7772.162391,7624.121203,612.876398
205.900511,8734.430116,8068.244768,995.924147
205.900832,6143.709319,6587.832884,612.876398
205.901153,7254.018232,6217.729913,153.219100
205.901473,7772.162391,8734.430116,229.828649
205.901794,4811.338623,9992.780217,2298.286494
205.902115,3182.885551,7772.162391,1072.533697
205.902435,5181.441594,6291.750507,-842.705048
205.902756,5995.668130,7105.977043,459.657299
205.903077,3775.050304,8290.306550,2987.772442
205.903397,4219.173869,7550.100608,2757.943793
205.903718,5477.523971,8438.347739,-459.657299
205.904039,3923.091493,9400.615463,-1149.143247
205.904359,3701.029710,9326.594869,-842.705048
205.904680,6069.688724,8734.430116,-995.924147
205.905001,5403.503377,9548.656652,306.438199
205.905321,5255.462188,10214.842000,1378.971896
205.905642,6291.750507,10732.986159,1378.971896
205.905963,5329.482782,10658.965565,842.705048
205.906283,4145.153275,9104.533087,766.095498
205.906604,3627.009116,6587.832884,-459.657299
205.906925,4663.297435,4145.153275,-1991.848295
205.907245,3478.967927,2738.761985,-2451.505594
205.907566,4515.256246,5181.441594,-1302.362347
205.907887,8364.327145,8734.430116,0.000000
205.908207,7994.224174,10584.944971,-2834.553343
205.908528,7105.977043,10955.047942,-4826.401637
205.908849,7179.997637,11473.192101,-2834.553343
205.909169,7920.203579,10140.821405,1378.971896
205.909490,7105.977043,7624.121203,2681.334243
205.909811,6587.832884,7698.141797,-459.657299
205.910131,4145.153275,7550.100608,-3983.696590
205.910452,2368.659014,7179.997637,-3983.696590
205.910773,4737.318029,8734.430116,-1608.800546
205.911093,4959.379811,9622.677246,0.000000
205.911414,4219.173869,8882.471304,-766.095498
205.911735,3997.112087,8290.306550,-1378.971896
205.912055,2146.597232,6957.935855,1762.019645
205.912376,1702.473667,7105.977043,3830.477490
205.912697,5181.441594,9030.512492,2451.505594
205.913017,4959.379811,11029.068536,-1532.190996
205.913338,2960.823768,12139.377449,-2911.162892
205.913659,6217.729913,12657.521608,-612.876398
205.913979,7328.038826,9326.594869,2604.724693
205.914300,4441.235652,6069.688724,2834.553343
205.914621,4589.276840,5773.606348,536.266849
205.914941,3997.112087,7550.100608,-1762.019645
205.915262,1628.453072,6661.853478,-842.705048
205.915582,5551.544565,6735.874072,1915.238745
205.915903,10732.986159,8438.347739,1762.019645
205.916224,7550.100608,8068.244768,-612.876398
205.916544,3330.926739,7550.100608,-2834.553343
205.916865,5477.523971,6291.750507,-4060.306139
205.917185,5033.400406,4145.153275,-4136.915689
205.917506,5329.482782,3182.885551,-1149.143247
205.917826,9252.574275,6957.935855,536.266849
205.918147,6291.750507,10881.027347,-995.924147
205.918468,5255.462188,12731.542202,-1149.143247
205.918788,5329.482782,11843.295072,-2145.067394
205.919109,4589.276840,9326.594869,-1072.533697
205.919429,3182.885551,4959.379811,4749.792088
205.919750,4219.173869,2738.761985,4060.306139
205.920070,3701.029710,4071.132681,-1225.752797
205.920391,1332.370696,6143.709319,-1991.848295
205.920711,2220.617826,8068.244768,-383.047749
205.921032,5551.544565,8808.450710,1302.362347
205.921353,6291.750507,9326.594869,2068.457845
205.921673,3478.967927,9178.553681,-306.438199
205.921994,2590.720797,7476.080014,-2221.676944
205.922314,3182.885551,6809.894666,459.657299
205.922635,4811.338623,8512.368333,2911.162892
205.922955,6957.935855,11251.130318,612.876398
205.923276,5477.523971,11917.315666,-2681.334243
205.923596,3256.906145,9696.697840,-2834.553343
205.923917,4737.318029,7994.224174,2145.067394
205.924238,6291.750507,7179.997637,3524.039291
205.924558,3034.844362,5329.482782,229.828649
205.924879,3923.091493,5477.523971,-3370.820191
205.925199,6143.709319,9030.512492,-1838.629195
205.925520,5255.462188,11621.233289,1915.238745
205.925840,6291.750507,9918.759623,2145.067394
205.926161,6661.853478,8808.450710,-459.657299
205.926482,6143.709319,8586.388927,-229.828649
205.926802,5255.462188,8216.285956,1225.752797
205.927123,5255.462188,7105.977043,-1149.143247
205.927443,5181.441594,5921.647536,-3447.429741
205.927764,6735.874072,8364.327145,-1991.848295
205.928084,7179.997637,10658.965565,766.095498
205.928405,3478.967927,9400.615463,459.657299
205.928725,6661.853478,9400.615463,-919.314598
205.929046,6735.874072,8216.285956,-842.705048
205.929367,4219.173869,5773.606348,1225.752797
205.929687,4293.194464,3849.070898,2604.724693
205.930008,5551.544565,6735.874072,1072.533697
205.930328,3552.988522,7624.121203,-1532.190996
205.930649,2960.823768,7550.100608,-2834.553343
205.930969,5477.523971,7920.203579,-2298.286494
205.931290,7402.059420,8882.471304,-306.438199
205.931610,6143.709319,9548.656652,0.000000
205.931931,4663.297435,8216.285956,-3524.039291
205.932252,2738.761985,7254.018232,-4213.525239
205.932572,3552.988522,8290.306550,766.095498
205.932893,6661.853478,10510.924376,3524.039291
205.933213,6365.771101,10584.944971,-306.438199
205.933534,2368.659014,9400.615463,-3217.601092
205.933854,3478.967927,7994.224174,-1378.971896
205.934175,3997.112087,5551.544565,3217.601092
205.934496,4589.276840,4811.338623,4519.963438
205.934816,3997.112087,5625.565159,689.485948
205.935137,3182.885551,7254.018232,-3677.258390
205.935457,2220.617826,9178.553681,-2068.457845
205.935778,6513.812290,9992.780217,2451.505594
205.936098,7105.977043,9178.553681,2298.286494
205.936419,7179.997637,9474.636058,-612.876398
205.936739,3997.112087,8808.450710,-2681.334243
205.937060,2294.638420,7624.121203,-2221.676944
205.937381,5255.462188,7476.080014,0.000000
205.937701,7328.038826,8364.327145,-995.924147
205.938022,5403.503377,7846.182985,-2298.286494
205.938342,4737.318029,8364.327145,-2604.724693
205.938663,6587.832884,10658.965565,-1762.019645
205.938983,4293.194464,8882.471304,-306.438199
205.939304,5181.441594,5477.523971,2145.067394
205.939624,7179.997637,4885.359217,1762.019645
205.939945,5699.585753,8216.285956,1378.971896
205.940266,3108.864956,9030.512492,919.314598
205.940586,4737.318029,9400.615463,-1762.019645
205.940907,6661.853478,8808.450710,-1991.848295
205.941227,4441.235652,6735.874072,306.438199
205.941548,5033.400406,6439.791695,1149.143247
205.941868,5921.647536,7105.977043,-1072.533697
205.942189,2812.782580,7698.141797,-2757.943793
205.942510,3775.050304,8660.409521,-1762.019645
205.942830,8068.244768,10584.944971,-919.314598
205.943151,6809.894666,11917.315666,-995.924147
205.943471,4885.359217,9474.636058,-153.219100
205.943792,5995.668130,7624.121203,-612.876398
205.944112,5551.544565,7328.038826,1149.143247
205.944433,3627.009116,7031.956449,4673.182538
205.944753,5329.482782,7031.956449,3294.210641
205.945074,5847.626942,8512.368333,-459.657299
205.945395,2442.679609,8068.244768,-919.314598
205.945715,3034.844362,6883.915261,1302.362347
205.946036,5477.523971,7105.977043,1762.019645
205.946356,4441.235652,7105.977043,1072.533697
205.946677,2442.679609,7105.977043,-1838.629195
205.946997,3404.947333,7328.038826,-3217.601092
205.947318,5625.565159,9548.656652,-1455.581446
205.947638,5329.482782,10510.924376,1455.581446
205.947959,7179.997637,10436.903782,-306.438199
205.948280,6883.915261,9992.780217,-2834.553343
205.948600,4441.235652,9918.759623,-1838.629195
205.948921,5033.400406,7105.977043,1608.800546
205.949241,5255.462188,4441.235652,2145.067394
205.949562,4959.379811,4441.235652,1149.143247
205.949882,1924.535449,3330.926739,0.000000
205.950203,3627.009116,5107.421000,-1608.800546
205.950524,5107.421000,7476.080014,0.000000
205.950844,5551.544565,8882.471304,842.705048
205.951165,6217.729913,7550.100608,-612.876398
205.951485,6735.874072,8068.244768,-2221.676944
205.951806,4219.173869,7994.224174,-1915.238745
205.952126,3478.967927,6809.894666,-1072.533697
205.952447,5995.668130,6809.894666,-1225.752797
205.952767,5107.421000,7550.100608,-2911.162892
205.953088,5033.400406,11103.089130,-2451.505594
205.953409,6809.894666,12361.439231,-1455.581446
205.953729,4589.276840,9696.697840,-1532.190996
205.954050,3552.988522,6661.853478,229.828649
205.954370,7031.956449,6587.832884,2374.896044
205.954691,5551.544565,7254.018232,1685.410096
205.955011,2738.761985,6735.874072,1455.581446
205.955332,4663.297435,7772.162391,612.876398
205.955652,5625.565159,8512.368333,-612.876398
205.955973,4737.318029,8364.327145,0.000000
205.956294,6661.853478,8512.368333,383.047749
205.956614,6661.853478,9474.636058,-995.924147
205.956935,4293.194464,10066.800811,-1455.581446
205.957255,5181.441594,10658.965565,-995.924147
205.957576,5847.626942,9474.636058,-1378.971896
205.957896,5773.606348,9178.553681,-1225.752797
205.958217,5255.462188,10288.862594,-766.095498
205.958538,4441.235652,9548.656652,-1149.143247
205.958858,4219.173869,7994.224174,-1072.533697
205.959179,5773.606348,7624.121203,1225.752797
205.959499,5403.503377,8290.306550,2911.162892
205.959820,3404.947333,7179.997637,1991.848295
205.960140,4811.338623,9252.574275,153.219100
205.960461,4367.215058,9474.636058,536.266849
205.960781,3108.864956,9400.615463,1455.581446
205.961102,5995.668130,9104.533087,2604.724693
205.961423,5847.626942,8512.368333,1072.533697
205.961743,2516.700203,5329.482782,-459.657299
205.962064,2812.782580,4071.132681,-612.876398
205.962384,6735.874072,7624.121203,-2068.457845
205.962705,3627.009116,9844.739029,-2451.505594
205.963025,4885.359217,11103.089130,-612.876398
205.963346,9992.780217,10732.986159,0.000000
205.963666,6439.791695,7846.182985,919.314598
205.963987,4663.297435,6365.771101,2451.505594
205.964308,6735.874072,5403.503377,1378.971896
205.964628,5033.400406,5699.585753,-306.438199
205.964949,3404.947333,4219.173869,1838.629195
205.965269,7105.977043,5255.462188,1532.190996
205.965590,8068.244768,7476.080014,-229.828649
205.965910,3034.844362,5921.647536,1149.143247
205.966231,3923.091493,5403.503377,766.095498
205.966552,6661.853478,7031.956449,-919.314598
205.966872,4219.173869,8068.244768,-536.266849
205.967193,3404.947333,7105.977043,-536.266849
205.967513,6661.853478,8808.450710,-1532.190996
205.967834,5477.523971,10140.821405,0.000000
205.968154,2664.741391,11251.130318,229.828649
205.968475,4959.379811,8734.430116,-2298.286494
205.968795,3997.112087,7328.038826,-2221.676944
205.969116,3108.864956,7772.162391,2374.896044
205.969437,3182.885551,7105.977043,3907.087040
205.969757,2516.700203,5329.482782,842.705048
205.970078,3182.885551,6143.709319,1685.410096
205.970398,4367.215058,8142.265362,995.924147
205.970719,4811.338623,9178.553681,-2374.896044
205.971039,3775.050304,9252.574275,-2451.505594
205.971360,5921.647536,8512.368333,-842.705048
205.971680,7476.080014,8660.409521,229.828649
205.972001,4441.235652,6957.935855,1072.533697
205.972322,3108.864956,7328.038826,-1608.800546
205.972642,5255.462188,10066.800811,-3294.210641
205.972963,6069.688724,12583.501014,-1838.629195
205.973283,6439.791695,10807.006753,-689.485948
205.973604,7179.997637,9474.636058,-2221.676944
205.973924,7402.059420,8586.388927,-995.924147
205.974245,5181.441594,7846.182985,1532.190996
205.974566,3775.050304,7254.018232,2145.067394
205.974886,5255.462188,8142.265362,1915.238745
205.975207,5921.647536,8512.368333,919.314598
205.975527,4515.256246,7550.100608,229.828649
205.975848,5107.421000,7402.059420,-689.485948
205.976168,6365.771101,8068.244768,-229.828649
205.976489,6513.812290,9252.574275,-153.219100
205.976809,6143.709319,9770.718434,-2298.286494
205.977130,5181.441594,9178.553681,-2068.457845
205.977451,5255.462188,9474.636058,0.000000
205.977771,5921.647536,8290.306550,306.438199
205.978092,4737.318029,8068.244768,0.000000
205.978412,4811.338623,8808.450710,-842.705048
205.978733,5255.462188,9918.759623,-1532.190996
205.979053,4441.235652,9030.512492,-689.485948
205.979374,4663.297435,6365.771101,689.485948
205.979695,5033.400406,6883.915261,1072.533697
205.980015,4293.194464,7994.224174,2451.505594
205.980336,1924.535449,6883.915261,1685.410096
205.980656,4293.194464,6587.832884,459.657299
205.980977,5995.668130,7328.038826,0.000000
205.981297,4589.276840,6957.935855,-306.438199
205.981618,3627.009116,6735.874072,-919.314598
205.981938,5181.441594,9030.512492,-689.485948
205.982259,4589.276840,9252.574275,-1762.019645
205.982580,5625.565159,7698.141797,-2145.067394
205.982900,7105.977043,8512.368333,-995.924147
205.983221,4811.338623,8068.244768,229.828649
205.983541,4737.318029,8438.347739,842.705048
205.983862,5847.626942,6883.915261,-842.705048
205.984182,4219.173869,6365.771101,-1302.362347
205.984503,5181.441594,7402.059420,1532.190996
205.984823,6513.812290,7920.203579,3447.429741
205.985144,4811.338623,6957.935855,2374.896044
205.985465,2886.803174,5699.585753,1762.019645
205.985785,4663.297435,5847.626942,306.438199
205.986106,3478.967927,4737.318029,0.000000
205.986426,5551.544565,6735.874072,1302.362347
205.986747,6735.874072,9696.697840,-383.047749
205.987067,5773.606348,11325.150913,-2757.943793
205.987388,4219.173869,10288.862594,-1608.800546
205.987709,6439.791695,10066.800811,229.828649
205.988029,5921.647536,9474.636058,2451.505594
205.988350,4663.297435,8142.265362,3064.381992
205.988670,3923.091493,6883.915261,0.000000
205.988991,4145.153275,6883.915261,-2145.067394
205.989311,4145.153275,6439.791695,689.485948
205.989632,4737.318029,6735.874072,1838.629195
205.989952,6957.935855,7920.203579,1378.971896
205.990273,5551.544565,9030.512492,1838.629195
205.990594,4811.338623,9400.615463,1532.190996
205.990914,5921.647536,8068.244768,995.924147
205.991235,5403.503377,7698.141797,612.876398
205.991555,4441.235652,6365.771101,919.314598
205.991876,6365.771101,6661.853478,-995.924147
205.992196,5033.400406,7254.018232,-4596.572988
205.992517,3849.070898,8142.265362,-4673.182538
205.992837,6217.729913,9104.533087,-2757.943793
205.993158,7179.997637,9918.759623,-1225.752797
205.993479,5107.421000,10288.862594,0.000000
205.993799,5107.421000,9918.759623,-229.828649
205.994120,5625.565159,9400.615463,-229.828649
205.994440,3923.091493,7698.141797,2145.067394
205.994761,4145.153275,7105.977043,2834.553343
205.995081,4589.276840,6809.894666,689.485948
205.995402,3404.947333,7550.100608,-1378.971896
205.995723,3256.906145,8734.430116,-1149.143247
205.996043,4219.173869,9104.533087,1149.143247
205.996364,5107.421000,7920.203579,2528.115143
205.996684,3627.009116,6661.853478,919.314598
205.997005,3552.988522,7328.038826,-1225.752797
205.997325,3997.112087,8364.327145,-2068.457845
205.997646,5477.523971,9696.697840,-2604.724693
205.997966,6069.688724,10732.986159,-3140.991542
205.998287,7031.956449,10140.821405,-2145.067394
205.998608,7402.059420,9326.594869,-153.219100
205.998928,6439.791695,7994.224174,1225.752797
205.999249,3849.070898,6365.771101,459.657299
205.999569,4441.235652,6069.688724,-1302.362347
205.999890,5477.523971,7994.224174,-459.657299
206.000210,3108.864956,7476.080014,1225.752797
206.000531,5995.668130,7624.121203,612.876398
206.000851,6957.935855,8216.285956,-842.705048
206.001172,3478.967927,8882.471304,-2451.505594
206.001493,2442.679609,7550.100608,-1149.143247
206.001813,5477.523971,7402.059420,-153.219100
206.002134,4885.359217,7402.059420,-459.657299
206.002454,5477.523971,8364.327145,-995.924147
206.002775,6439.791695,11325.150913,-2145.067394
206.003095,4441.235652,11621.233289,-2681.334243
206.003416,4293.194464,10362.883188,459.657299
206.003737,7254.018232,8586.388927,459.657299
206.004057,6439.791695,6587.832884,995.924147
206.004378,3701.029710,5033.400406,1991.848295
206.004698,3701.029710,5921.647536,2221.676944
206.005019,4737.318029,6587.832884,1225.752797
206.005339,3849.070898,6735.874072,919.314598
206.005660,5847.626942,7328.038826,-766.095498
206.005980,6365.771101,6217.729913,-1685.410096
206.006301,5329.482782,7402.059420,306.438199
206.006622,6291.750507,9474.636058,306.438199
206.006942,4885.359217,7920.203579,-842.705048
206.007263,4145.153275,7920.203579,-2911.162892
206.007583,5847.626942,9548.656652,-1838.629195
206.007904,5995.668130,10140.821405,-1149.143247
206.008224,5329.482782,10362.883188,-1302.362347
206.008545,5477.523971,9622.677246,-1225.752797
206.008865,3701.029710,7328.038826,-1378.971896
206.009186,3404.947333,6809.894666,536.266849
206.009507,4589.276840,6587.832884,2145.067394
206.009827,3478.967927,5477.523971,306.438199
206.010148,4145.153275,6809.894666,0.000000
206.010468,3701.029710,7846.182985,536.266849
206.010789,3552.988522,7402.059420,-536.266849
206.011109,5033.400406,6661.853478,919.314598
206.011430,6735.874072,7698.141797,1532.190996
206.011751,4515.256246,8512.368333,-1762.019645
206.012071,2664.741391,7550.100608,-3370.820191
206.012392,4071.132681,7402.059420,-2298.286494
206.012712,5625.565159,7994.224174,-1608.800546
206.013033,7624.121203,10584.944971,-1072.533697
206.013353,5773.606348,11029.068536,-1991.848295
206.013674,4737.318029,9992.780217,-4366.744339
206.013994,6143.709319,9474.636058,-383.047749
206.014315,5847.626942,9844.739029,3600.648841
206.014636,5107.421000,6883.915261,3524.039291
206.014956,6069.688724,7031.956449,2374.896044
206.015277,4071.132681,7328.038826,1608.800546
206.015598,1480.411884,6365.771101,383.047749
206.015918,5551.544565,7105.977043,306.438199
206.016239,7105.977043,8734.430116,-1225.752797
206.016560,4737.318029,9030.512492,-306.438199
206.016880,5921.647536,9252.574275,306.438199
206.017201,6661.853478,11399.171507,-1225.752797
206.017522,2738.761985,9474.636058,-459.657299
206.017842,4441.235652,8512.368333,612.876398
206.018163,7624.121203,10288.862594,-689.485948
206.018484,5181.441594,10658.965565,-2145.067394
206.018804,3404.947333,9252.574275,-383.047749
206.019125,8216.285956,8512.368333,2298.286494
206.019446,5403.503377,6069.688724,3677.258390
206.019766,2516.700203,4811.338623,3600.648841
206.020087,3478.967927,4885.359217,-612.876398
206.020408,2072.576638,5107.421000,-2911.162892
206.020728,2220.617826,5551.544565,229.828649
206.021049,6661.853478,7328.038826,2757.943793
206.021370,6957.935855,8290.306550,76.609550
206.021690,2960.823768,8660.409521,-3447.429741
206.022011,2368.659014,9326.594869,-3370.820191
206.022332,2368.659014,6883.915261,-2528.115143
206.022652,3182.885551,5329.482782,-1991.848295
206.022973,7550.100608,7846.182985,-1608.800546
206.023294,6365.771101,10140.821405,-3064.381992
206.023614,4959.379811,11177.109724,-2528.115143
206.023935,5403.503377,10140.821405,-306.438199
206.024256,5551.544565,7254.018232,919.314598
206.024576,5181.441594,3552.988522,2604.724693
206.024897,5699.585753,2442.679609,2221.676944
206.025218,4145.153275,3849.070898,-1838.629195
206.025538,3775.050304,5773.606348,-995.924147
206.025859,7105.977043,7624.121203,766.095498
206.026180,7624.121203,7550.100608,-1608.800546
206.026500,5625.565159,7772.162391,-1302.362347
206.026821,6957.935855,11029.068536,-536.266849
206.027142,4737.318029,9696.697840,-2757.943793
206.027462,4737.318029,7031.956449,-2604.724693
206.027783,6735.874072,7624.121203,-919.314598
206.028104,6587.832884,10658.965565,-2374.896044
206.028424,4885.359217,12657.521608,-2451.505594
206.028745,4811.338623,13175.665768,-1685.410096
206.029066,5921.647536,11917.315666,0.000000
206.029386,4811.338623,8216.285956,2681.334243
206.029707,2664.741391,5995.668130,3753.867940
206.030028,3627.009116,7031.956449,3064.381992
206.030348,3404.947333,9474.636058,1685.410096
206.030669,888.247130,8438.347739,-306.438199
206.030990,3701.029710,6883.915261,-1532.190996
206.031310,7772.162391,9104.533087,536.266849
206.031631,4589.276840,9844.739029,2068.457845
206.031952,3627.009116,9474.636058,-383.047749
206.032272,6217.729913,10214.842000,-3447.429741
206.032593,5477.523971,10140.821405,-2987.772442
206.032914,6513.812290,8808.450710,383.047749
206.033234,8734.430116,9326.594869,-76.609550
206.033555,5403.503377,10362.883188,-2374.896044
206.033876,4219.173869,9178.553681,-459.657299
206.034196,6809.894666,5995.668130,1762.019645
206.034517,5847.626942,1406.391290,995.924147
206.034838,5181.441594,2664.741391,383.047749
206.035158,7031.956449,7994.224174,536.266849
206.035479,4145.153275,9400.615463,-459.657299
206.035800,5773.606348,7920.203579,1532.190996
206.036120,8142.265362,7698.141797,3064.381992
206.036441,5921.647536,5995.668130,1685.410096
206.036762,2146.597232,4959.379811,-612.876398
206.037082,1998.556043,6957.935855,-2528.115143
206.037403,3108.864956,7254.018232,-2834.553343
206.037724,6735.874072,8660.409521,-1149.143247
206.038044,5995.668130,8734.430116,-995.924147
206.038365,4293.194464,9104.533087,-1072.533697
206.038686,4367.215058,10881.027347,1991.848295
206.039006,3627.009116,9696.697840,1608.800546
206.039327,2590.720797,5699.585753,-76.609550
206.039648,4737.318029,3404.947333,1991.848295
206.039968,6217.729913,4811.338623,3524.039291
206.040289,2812.782580,6587.832884,2681.334243
206.040610,2146.597232,9252.574275,536.266849
206.040930,4367.215058,8660.409521,-2298.286494
206.041251,5773.606348,6661.853478,-1455.581446
206.041572,5107.421000,7550.100608,2221.676944
206.041892,5403.503377,9844.739029,2221.676944
206.042213,1776.494261,8142.265362,-1378.971896
206.042534,3627.009116,8586.388927,-2528.115143
206.042854,7105.977043,9474.636058,-919.314598
206.043175,5699.585753,9844.739029,0.000000
206.043496,7476.080014,11325.150913,-459.657299
206.043816,6143.709319,10362.883188,-612.876398
206.044137,4071.132681,8068.244768,919.314598
206.044458,6291.750507,4959.379811,3983.696590
206.044778,7254.018232,4663.297435,2604.724693
206.045099,3849.070898,4515.256246,-1072.533697
206.045420,4441.235652,8068.244768,-1302.362347
206.045740,5033.400406,9104.533087,-1225.752797
206.046061,6513.812290,7624.121203,-1149.143247
206.046382,9770.718434,8734.430116,229.828649
206.046702,8142.265362,10288.862594,-1455.581446
206.047023,2664.741391,9326.594869,-2221.676944
206.047344,4959.379811,7994.224174,-153.219100
206.047664,6513.812290,7698.141797,-459.657299
206.047985,4811.338623,6735.874072,-1991.848295
206.048306,4737.318029,7920.203579,-2451.505594
206.048626,4811.338623,11843.295072,-2374.896044
206.048947,3552.988522,12139.377449,-459.657299
206.049268,4663.297435,8808.450710,1685.410096
206.049588,7031.956449,4959.379811,0.000000
206.049909,2664.741391,3701.029710,536.266849
206.050230,148.041188,6587.832884,2987.772442
206.050550,2368.659014,7772.162391,1378.971896
206.050871,5255.462188,8808.450710,-1838.629195
206.051192,5995.668130,9622.677246,-2834.553343
206.051512,6513.812290,10214.842000,-2604.724693
206.051833,4219.173869,9844.739029,-2451.505594
206.052154,3182.885551,9474.636058,-1225.752797
206.052474,5699.585753,9474.636058,-459.657299
206.052795,6439.791695,8142.265362,-2911.162892
206.053116,5255.462188,9030.512492,-2145.067394
206.053436,5699.585753,10807.006753,689.485948
206.053757,4737.318029,9326.594869,536.266849
206.054078,4737.318029,6513.812290,0.000000
206.054398,6365.771101,6143.709319,536.266849
206.054719,6661.853478,6809.894666,1762.019645
206.055040,5773.606348,6809.894666,3370.820191
206.055360,6069.688724,6883.915261,2604.724693
206.055681,6217.729913,7179.997637,-306.438199
206.056002,4959.379811,6809.894666,689.485948
206.056322,5995.668130,7476.080014,153.219100
206.056643,6513.812290,8142.265362,-2528.115143
206.056964,5921.647536,8364.327145,-2451.505594
206.057284,5995.668130,8142.265362,-2451.505594
206.057605,7328.038826,8734.430116,-2145.067394
206.057926,5995.668130,9918.759623,689.485948
206.058246,4737.318029,10140.821405,995.924147
206.058567,5551.544565,9104.533087,0.000000
206.058888,4293.194464,7254.018232,229.828649
206.059208,3034.844362,6143.709319,2911.162892
206.059529,4885.359217,5773.606348,3600.648841
206.059850,4441.235652,6513.812290,1378.971896
206.060170,1924.535449,7624.121203,-229.828649
206.060491,2516.700203,7624.121203,919.314598
206.060812,4441.235652,7846.182985,2604.724693
206.061132,3775.050304,6809.894666,4136.915689
206.061453,3552.988522,5699.585753,3447.429741
206.061774,4219.173869,6809.894666,-995.924147
206.062094,2738.761985,7920.203579,-2451.505594
206.062415,2664.741391,8586.388927,-1149.143247
206.062736,7402.059420,10584.944971,-1149.143247
206.063056,8290.306550,11695.253884,-536.266849
206.063377,4589.276840,9326.594869,-153.219100
206.063698,4071.132681,7328.038826,-153.219100
206.064018,5181.441594,6809.894666,1838.629195
206.064339,3849.070898,5625.565159,2451.505594
206.064660,5477.523971,6069.688724,1302.362347
206.064980,5625.565159,6735.874072,229.828649
206.065301,3701.029710,6957.935855,-842.705048
206.065622,4293.194464,6735.874072,612.876398
206.065942,7328.038826,6217.729913,1762.019645
206.066263,6587.832884,6439.791695,0.000000
206.066584,5255.462188,7031.956449,-1915.238745
206.066905,5773.606348,7846.182985,-2987.772442
206.067225,6809.894666,9326.594869,-2911.162892
206.067546,8068.244768,11251.130318,76.609550
206.067867,8290.306550,13545.768739,383.047749
206.068187,5625.565159,11621.233289,-1149.143247
206.068508,4071.132681,9104.533087,-842.705048
206.068829,3775.050304,5995.668130,919.314598
206.069149,3182.885551,4367.215058,3600.648841
206.069470,3627.009116,4589.276840,3064.381992
206.069791,2442.679609,5995.668130,-536.266849
206.070111,1184.329507,7402.059420,-1991.848295
206.070432,4737.318029,8512.368333,-459.657299
206.070753,5699.585753,9696.697840,-536.266849
206.071073,5033.400406,8956.491898,229.828649
206.071394,5773.606348,9548.656652,-383.047749
206.071715,5403.503377,10362.883188,-2757.943793
206.072035,3775.050304,9844.739029,-2451.505594
206.072356,4737.318029,10214.842000,-1532.190996
206.072677,7105.977043,11029.068536,-2834.553343
206.072997,6069.688724,11473.192101,-1991.848295
206.073318,4219.173869,10288.862594,-1302.362347
206.073639,4811.338623,7254.018232,-1532.190996
206.073959,3627.009116,5477.523971,-383.047749
206.074280,3108.864956,5033.400406,1608.800546
206.074601,4589.276840,8216.285956,2911.162892
206.074921,4959.379811,9770.718434,1991.848295
206.075242,3478.967927,8660.409521,0.000000
206.075563,4959.379811,8068.244768,76.609550
206.075883,5847.626942,7698.141797,766.095498
206.076204,3552.988522,6587.832884,-766.095498
206.076525,4737.318029,7994.224174,-2068.457845
206.076845,6365.771101,9104.533087,-2987.772442
206.077166,6069.688724,9844.739029,-3064.381992
206.077487,7476.080014,9918.759623,-536.266849
206.077807,8734.430116,12583.501014,-229.828649
206.078128,6069.688724,11917.315666,0.000000
206.078449,6439.791695,9400.615463,306.438199
206.078769,5847.626942,5181.441594,612.876398
206.079090,5699.585753,2812.782580,2451.505594
206.079411,6291.750507,4441.235652,3447.429741
206.079731,4367.215058,5403.503377,1608.800546
206.080052,1406.391290,5699.585753,0.000000
206.080373,6439.791695,7624.121203,612.876398
206.080693,6143.709319,7772.162391,0.000000
206.081014,3775.050304,6143.709319,536.266849
206.081335,5181.441594,7328.038826,842.705048
206.081655,4663.297435,8586.388927,-1608.800546
206.081976,1628.453072,8586.388927,-3294.210641
206.082297,4663.297435,9326.594869,-3217.601092
206.082617,6513.812290,11991.336260,-3064.381992
206.082938,5033.400406,11843.295072,689.485948
206.083259,3478.967927,10658.965565,2451.505594
206.083579,3256.906145,8364.327145,0.000000
206.083900,-370.102971,4145.153275,-459.657299
206.084221,1998.556043,3330.926739,3294.210641
206.084541,4589.276840,4885.359217,4060.306139
206.084862,2812.782580,6439.791695,2911.162892
206.085183,2368.659014,6883.915261,536.266849
206.085503,4663.297435,6513.812290,-1915.238745
206.085824,5033.400406,6661.853478,-459.657299
206.086145,5773.606348,6957.935855,2834.553343
206.086465,8660.409521,9030.512492,459.657299
206.086786,6587.832884,9474.636058,-4903.011187
206.087107,5033.400406,10658.965565,-5132.839837
206.087427,7105.977043,9548.656652,-1838.629195
206.087748,9252.574275,8734.430116,-689.485948
206.088069,7328.038826,8660.409521,-536.266849
206.088389,6587.832884,9474.636058,-3370.820191
206.088710,5329.482782,8586.388927,-3830.477490
206.089031,5773.606348,6809.894666,1915.238745
206.089351,7328.038826,6143.709319,6588.421283
206.089672,6735.874072,6661.853478,4903.011187
206.089993,3627.009116,7772.162391,612.876398
206.090313,2072.576638,7920.203579,-1991.848295
206.090634,4145.153275,8660.409521,-536.266849
206.090955,6735.874072,9104.533087,2757.943793
206.091275,6957.935855,8882.471304,2451.505594
206.091596,4367.215058,9326.594869,-306.438199
206.091917,2146.597232,10288.862594,-1915.238745
206.092237,2072.576638,11399.171507,-2068.457845
206.092558,4737.318029,10881.027347,-1455.581446
206.092879,5329.482782,9622.677246,-842.705048
206.093199,6291.750507,9622.677246,-1378.971896
206.093520,4737.318029,9770.718434,-1149.143247
206.093841,3627.009116,9030.512492,0.000000
206.094161,4071.132681,7772.162391,1838.629195
206.094482,4811.338623,6883.915261,2604.724693
206.094803,3552.988522,6291.750507,2834.553343
206.095123,3182.885551,6143.709319,766.095498
206.095444,3997.112087,6069.688724,-995.924147
206.095765,4071.132681,5699.585753,-229.828649
206.096085,5255.462188,7179.997637,995.924147
206.096406,5625.565159,7920.203579,-766.095498
206.096727,4441.235652,9178.553681,-2987.772442
206.097047,4219.173869,8216.285956,-3064.381992
206.097368,7772.162391,8512.368333,-1762.019645
206.097689,6661.853478,9474.636058,0.000000
206.098009,3034.844362,8438.347739,-1991.848295
206.098330,5181.441594,8882.471304,-4826.401637
206.098651,5551.544565,8512.368333,-2911.162892
206.098971,5329.482782,6587.832884,1225.752797
206.099292,7846.182985,6513.812290,2374.896044
206.099613,5921.647536,7476.080014,689.485948
206.099933,2516.700203,5625.565159,76.609550
206.100254,4219.173869,4441.235652,766.095498
206.100575,6587.832884,4589.276840,1532.190996
206.100895,4811.338623,5329.482782,1762.019645
206.101216,7105.977043,9252.574275,536.266849
206.101537,4737.318029,9696.697840,-2681.334243
206.101857,3182.885551,8808.450710,-2757.943793
206.102178,6069.688724,10214.842000,-76.609550
206.102499,6439.791695,9696.697840,-766.095498
206.102819,2442.679609,5329.482782,-1838.629195
206.103140,4441.235652,7254.018232,-2221.676944
206.103461,5551.544565,11547.212695,-4213.525239
206.103781,1998.556043,11547.212695,-2604.724693
206.104102,3923.091493,10510.924376,766.095498
206.104423,8216.285956,9918.759623,2068.457845
206.104743,3923.091493,7994.224174,2145.067394
206.105064,1702.473667,5329.482782,2298.286494
206.105385,2886.803174,3849.070898,-1378.971896
206.105705,1406.391290,5033.400406,-2145.067394
206.106026,3775.050304,8586.388927,1378.971896
206.106347,7402.059420,10362.883188,-383.047749
206.106667,5921.647536,10066.800811,-3830.477490
206.106988,4663.297435,9992.780217,-1072.533697
206.107309,6217.729913,10584.944971,0.000000
206.107629,4737.318029,8364.327145,-1302.362347
206.107950,4071.132681,7550.100608,-2068.457845
206.108271,7920.203579,10066.800811,-2987.772442
206.108591,7179.997637,11251.130318,-2604.724693
206.108912,5773.606348,9992.780217,306.438199
206.109233,5773.606348,8586.388927,1455.581446
206.109553,7402.059420,9178.553681,1302.362347
206.109874,4885.359217,7179.997637,1915.238745
206.110195,2886.803174,4145.153275,1838.629195
206.110515,5403.503377,3330.926739,1532.190996
206.110836,6809.894666,6513.812290,2757.943793
206.111157,6513.812290,10584.944971,919.314598
206.111477,4737.318029,10362.883188,-3064.381992
206.111798,6735.874072,11325.150913,-2681.334243
206.112119,6661.853478,11917.315666,995.924147
206.112439,5477.523971,9252.574275,1378.971896
206.112760,3627.009116,6661.853478,153.219100
206.113081,4885.359217,8364.327145,919.314598
206.113401,4441.235652,11695.253884,995.924147
206.113722,2516.700203,10214.842000,229.828649
206.114043,4145.153275,8216.285956,1762.019645
206.114363,4737.318029,6365.771101,4290.134789
206.114684,2368.659014,5329.482782,5286.058936
206.115005,3034.844362,4589.276840,3524.039291
206.115325,3627.009116,5107.421000,-536.266849
206.115646,2294.638420,7179.997637,-919.314598
206.115967,5329.482782,6069.688724,2528.115143
206.116287,7031.956449,4071.132681,3370.820191
206.116608,7254.018232,5625.565159,306.438199
206.116929,5699.585753,9030.512492,-2528.115143
206.117249,3775.050304,8142.265362,-4673.182538
206.117570,4663.297435,5847.626942,-3447.429741
206.117890,8586.388927,6957.935855,-383.047749
206.118211,8068.244768,8956.491898,536.266849
206.118532,4071.132681,7031.956449,-1685.410096
206.118852,2886.803174,5699.585753,-3830.477490
206.119173,3404.947333,6439.791695,-2374.896044
206.119493,3478.967927,6069.688724,1302.362347
206.119814,4737.318029,4515.256246,2604.724693
206.120134,5847.626942,5329.482782,0.000000
206.120455,2220.617826,5255.462188,-153.219100
206.120776,1924.535449,7105.977043,-153.219100
206.121096,4811.338623,7772.162391,-1838.629195
206.121417,4219.173869,7846.182985,-2298.286494
206.121737,6513.812290,9992.780217,-1302.362347
206.122058,6513.812290,11547.212695,-1685.410096
206.122379,3108.864956,9548.656652,-2987.772442
206.122699,4367.215058,9326.594869,-842.705048
206.123020,7624.121203,11251.130318,995.924147
206.123340,5255.462188,11843.295072,-1378.971896
206.123661,2368.659014,10436.903782,-3524.039291
206.123981,5477.523971,8364.327145,-2221.676944
206.124302,6661.853478,5995.668130,1149.143247
206.124623,4145.153275,5551.544565,3753.867940
206.124943,4737.318029,8512.368333,1225.752797
206.125264,5699.585753,11843.295072,-4060.306139
206.125584,4737.318029,12361.439231,-3447.429741
206.125905,8068.244768,10066.800811,-612.876398
206.126225,9400.615463,9326.594869,306.438199
206.126546,7624.121203,10362.883188,1149.143247
206.126867,4737.318029,11029.068536,-1225.752797
206.127187,4663.297435,9548.656652,-4903.011187
206.127508,5181.441594,9474.636058,-4060.306139
206.127828,4663.297435,9030.512492,-1685.410096
206.128149,7031.956449,11695.253884,0.000000
206.128470,6291.750507,12065.356855,0.000000
206.128790,2886.803174,9622.677246,-2987.772442
206.129111,4885.359217,8512.368333,-2145.067394
206.129431,5625.565159,7994.224174,2911.162892
206.129752,3108.864956,6957.935855,4979.620737
206.130072,4663.297435,7772.162391,4290.134789
206.130393,4441.235652,8586.388927,1072.533697
206.130714,1998.556043,7105.977043,-459.657299
206.131034,4959.379811,7105.977043,1225.752797
206.131355,5773.606348,6661.853478,1378.971896
206.131675,3849.070898,7105.977043,842.705048
206.131996,4811.338623,7550.100608,-689.485948
206.132316,4441.235652,6661.853478,-3753.867940
206.132637,4663.297435,6291.750507,-2604.724693
206.132958,7772.162391,8142.265362,2298.286494
206.133278,8216.285956,10436.903782,2374.896044
206.133599,5329.482782,9548.656652,-306.438199
206.133919,6143.709319,7105.977043,-612.876398
206.134240,5403.503377,3775.050304,1762.019645
206.134561,2960.823768,296.082377,4903.011187
206.134881,5033.400406,1776.494261,4060.306139
206.135202,5921.647536,6365.771101,-2068.457845
206.135522,3034.844362,8216.285956,-4596.572988
206.135843,3923.091493,6513.812290,-229.828649
206.136163,7698.141797,5995.668130,4290.134789
206.136484,6365.771101,5773.606348,6205.373534
206.136805,2072.576638,6513.812290,1915.238745
206.137125,1258.350101,6809.894666,-4136.915689
206.137446,3478.967927,7402.059420,-2604.724693
206.137766,6587.832884,7994.224174,1149.143247
206.138087,7031.956449,7994.224174,1149.143247
206.138407,4441.235652,8068.244768,-612.876398
206.138728,2294.638420,9918.759623,-1991.848295
206.139049,1480.411884,8068.244768,-1072.533697
206.139369,4663.297435,5181.441594,536.266849
206.139690,5403.503377,5329.482782,2374.896044
206.140010,5255.462188,7328.038826,3677.258390
206.140331,4959.379811,9548.656652,1378.971896
206.140652,4145.153275,11177.109724,-536.266849
206.140972,3997.112087,9104.533087,-612.876398
206.141293,5921.647536,6143.709319,-995.924147
206.141613,7254.018232,6809.894666,229.828649
206.141934,3775.050304,8808.450710,-766.095498
206.142254,4293.194464,11177.109724,-2911.162892
206.142575,7031.956449,11991.336260,-3753.867940
206.142896,8290.306550,12509.480420,0.000000
206.143216,5625.565159,13545.768739,2145.067394
206.143537,3701.029710,11473.192101,-689.485948
206.143857,3775.050304,7698.141797,-3524.039291
206.144178,4663.297435,4885.359217,-459.657299
206.144498,5477.523971,6217.729913,2757.943793
206.144819,5403.503377,7920.203579,2145.067394
206.145140,3552.988522,10362.883188,-459.657299
206.145460,4219.173869,11325.150913,-1149.143247
206.145781,5921.647536,9770.718434,-1149.143247
206.146101,6365.771101,6957.935855,612.876398
206.146422,7550.100608,6735.874072,459.657299
206.146743,7031.956449,7772.162391,-2834.553343
206.147063,4293.194464,9474.636058,-3753.867940
206.147384,6735.874072,9770.718434,-2451.505594
206.147704,7476.080014,9918.759623,-1378.971896
206.148025,7698.141797,10066.800811,-842.705048
206.148345,6513.812290,8808.450710,-1225.752797
206.148666,4663.297435,7179.997637,-2451.505594
206.148987,5255.462188,6217.729913,-1685.410096
206.149307,6439.791695,4145.153275,1762.019645
206.149628,5329.482782,3627.009116,1685.410096
206.149948,4737.318029,5699.585753,-919.314598
206.150269,3330.926739,9548.656652,-1838.629195
206.150589,4145.153275,11029.068536,-536.266849
206.150910,7031.956449,9104.533087,1149.143247
206.151231,7105.977043,7328.038826,612.876398
206.151551,4737.318029,6217.729913,-383.047749
206.151872,2294.638420,6143.709319,-1302.362347
206.152192,1554.432478,6735.874072,-1915.238745
206.152513,4293.194464,8660.409521,-459.657299
206.152834,5551.544565,8808.450710,-383.047749
206.153154,5847.626942,9992.780217,-1915.238745
206.153475,4737.318029,11103.089130,-689.485948
206.153795,3034.844362,9252.574275,1838.629195
206.154116,3775.050304,4737.318029,2987.772442
206.154436,4293.194464,2368.659014,2528.115143
206.154757,3627.009116,4811.338623,1149.143247
206.155078,2368.659014,8512.368333,0.000000
206.155398,4293.194464,10807.006753,-1149.143247
206.155719,3923.091493,9696.697840,-1149.143247
206.156039,5699.585753,7698.141797,1685.410096
206.156360,6809.894666,7105.977043,2451.505594
206.156680,3182.885551,8586.388927,153.219100
206.157001,222.061783,8438.347739,0.000000
206.157322,4293.194464,10066.800811,-153.219100
206.157642,6957.935855,9252.574275,-536.266849
206.157963,5551.544565,7920.203579,-536.266849
206.158283,6365.771101,9178.553681,-919.314598
206.158604,5403.503377,9474.636058,-1225.752797
206.158925,4293.194464,7772.162391,0.000000
206.159245,5477.523971,4515.256246,1838.629195
206.159566,7402.059420,5033.400406,2451.505594
206.159886,6883.915261,6661.853478,3370.820191
206.160207,5699.585753,9844.739029,2374.896044
206.160527,4589.276840,8808.450710,-1072.533697
206.160848,5699.585753,6587.832884,-2604.724693
206.161169,7624.121203,5329.482782,842.705048
206.161489,7105.977043,5181.441594,1532.190996
206.161810,5847.626942,7550.100608,-1915.238745
206.162130,4367.215058,10881.027347,-3217.601092
206.162451,5773.606348,11325.150913,-1915.238745
206.162771,9474.636058,12065.356855,306.438199
206.163092,7550.100608,11399.171507,2221.676944
206.163413,3404.947333,8142.265362,153.219100
206.163733,3182.885551,5551.544565,-1302.362347
206.164054,3552.988522,5773.606348,1149.143247
206.164374,2812.782580,4293.194464,3447.429741
206.164695,4589.276840,6291.750507,2068.457845
206.165016,5403.503377,9178.553681,-1302.362347
206.165336,1406.391290,8956.491898,-2451.505594
206.165657,2664.741391,8512.368333,1455.581446
206.165977,7328.038826,7772.162391,2374.896044
206.166298,6217.729913,7476.080014,76.609550
