#time,accel_x,accel_y,accel_z
139.698730,5107.421000,7994.224174,-76.609550
139.699050,5181.441594,8142.265362,0.000000
139.699371,5181.441594,7994.224174,-76.609550
139.699691,5033.400406,7994.224174,-306.438199
139.700012,5107.421000,7994.224174,-153.219100
139.700332,5255.462188,7920.203579,0.000000
139.700653,4885.359217,8364.327145,-383.047749
139.700973,5181.441594,8068.244768,-306.438199
139.701294,4737.318029,7920.203579,0.000000
139.701615,5033.400406,7994.224174,-306.438199
139.701935,4959.379811,7994.224174,-306.438199
139.702256,5107.421000,7920.203579,0.000000
139.702576,4959.379811,7920.203579,-153.219100
139.702897,4959.379811,7772.162391,0.000000
139.703217,4959.379811,8142.265362,0.000000
139.703538,5107.421000,7920.203579,0.000000
139.703859,4811.338623,8142.265362,-306.438199
139.704179,4885.359217,7994.224174,-459.657299
139.704500,4959.379811,7994.224174,-306.438199
139.704820,4959.379811,7920.203579,-153.219100
139.705141,5033.400406,7994.224174,153.219100
139.705461,4737.318029,8068.244768,-229.828649
139.705782,4737.318029,8142.265362,-229.828649
139.706102,4959.379811,7920.203579,-229.828649
139.706423,4959.379811,7994.224174,0.000000
139.706744,4737.318029,8068.244768,-306.438199
139.707064,4959.379811,7920.203579,-306.438199
139.707385,4959.379811,7846.182985,-383.047749
139.707705,4885.359217,8142.265362,-229.828649
139.708026,4885.359217,8216.285956,0.000000
139.708346,5107.421000,7920.203579,76.609550
139.708667,4959.379811,7846.182985,0.000000
139.708987,4811.338623,8068.244768,-76.609550
139.709308,4589.276840,7624.121203,-229.828649
139.709629,4071.132681,7402.059420,-383.047749
139.709949,4219.173869,7920.203579,0.000000
139.710270,4367.215058,9252.574275,-383.047749
139.710590,4737.318029,9918.759623,-1072.533697
139.710911,4737.318029,9918.759623,-1302.362347
139.711231,4515.256246,9548.656652,-919.314598
139.711552,4071.132681,9104.533087,-459.657299
139.711873,3108.864956,8808.450710,612.876398
139.712193,2886.803174,9474.636058,995.924147
139.712514,2590.720797,9474.636058,612.876398
139.712834,2442.679609,8882.471304,-153.219100
139.713155,2664.741391,8216.285956,-459.657299
139.713475,2960.823768,8438.347739,0.000000
139.713796,3330.926739,9400.615463,153.219100
139.714116,2886.803174,9622.677246,612.876398
139.714437,2516.700203,9178.553681,229.828649
139.714758,2812.782580,9548.656652,0.000000
139.715078,2442.679609,10288.862594,-153.219100
139.715399,1850.514855,11473.192101,-1072.533697
139.715719,1702.473667,11991.336260,-1608.800546
139.716040,1850.514855,11991.336260,-1991.848295
139.716360,962.267725,11251.130318,-1302.362347
139.716681,222.061783,10955.047942,-1608.800546
139.717002,-518.144159,11621.233289,-766.095498
139.717322,-1480.411884,12731.542202,306.438199
139.717643,-1702.473667,12509.480420,689.485948
139.717963,-1554.432478,11991.336260,995.924147
139.718284,-666.185348,11473.192101,1608.800546
139.718604,-1332.370696,12139.377449,1915.238745
139.718925,-2368.659014,11917.315666,919.314598
139.719245,-2294.638420,10955.047942,-612.876398
139.719566,-1924.535449,10214.842000,-536.266849
139.719887,-1110.308913,9918.759623,76.609550
139.720207,-740.205942,10066.800811,919.314598
139.720528,-296.082377,10658.965565,459.657299
139.720848,-148.041188,11695.253884,-842.705048
139.721169,962.267725,11695.253884,-1685.410096
139.721489,1924.535449,10732.986159,-995.924147
139.721810,2442.679609,10436.903782,0.000000
139.722130,2812.782580,10584.944971,459.657299
139.722451,2368.659014,9992.780217,-842.705048
139.722772,1776.494261,9178.553681,-2604.724693
139.723092,1850.514855,9252.574275,-2298.286494
139.723413,1554.432478,10066.800811,-919.314598
139.723733,1998.556043,10140.821405,0.000000
139.724054,1850.514855,9770.718434,-612.876398
139.724374,1110.308913,11177.109724,-536.266849
139.724695,148.041188,11325.150913,-153.219100
139.725016,-296.082377,11103.089130,0.000000
139.725336,0.000000,10140.821405,383.047749
139.725657,296.082377,9474.636058,842.705048
139.725977,222.061783,10510.924376,1302.362347
139.726298,-666.185348,10436.903782,1455.581446
139.726618,-814.226536,11177.109724,842.705048
139.726939,444.123565,11695.253884,1378.971896
139.727259,1406.391290,11547.212695,1455.581446
139.727580,1628.453072,10955.047942,306.438199
139.727901,1924.535449,10584.944971,-919.314598
139.728221,1554.432478,10140.821405,-1225.752797
139.728542,1554.432478,9696.697840,0.000000
139.728862,1332.370696,9104.533087,306.438199
139.729183,1776.494261,8512.368333,612.876398
139.729503,2072.576638,8882.471304,612.876398
139.729824,2590.720797,10362.883188,0.000000
139.730144,2516.700203,11177.109724,76.609550
139.730465,2960.823768,10658.965565,-842.705048
139.730786,3478.967927,9474.636058,-1532.190996
139.731106,3182.885551,9178.553681,-1532.190996
139.731427,2886.803174,9474.636058,-1149.143247
139.731747,2368.659014,10732.986159,-1072.533697
139.732068,1776.494261,11399.171507,-612.876398
139.732388,1850.514855,11917.315666,-766.095498
139.732709,1480.411884,11473.192101,-459.657299
139.733030,444.123565,10584.944971,-1072.533697
139.733350,-814.226536,9696.697840,-919.314598
139.733671,-1850.514855,8586.388927,-1149.143247
139.733991,-2368.659014,8364.327145,-229.828649
139.734312,-1850.514855,9548.656652,1762.019645
139.734632,-814.226536,11769.274478,2298.286494
139.734953,-148.041188,13915.871710,2145.067394
139.735273,148.041188,14508.036463,842.705048
139.735594,0.000000,13915.871710,383.047749
139.735915,1184.329507,11843.295072,0.000000
139.736235,1554.432478,10658.965565,153.219100
139.736556,1480.411884,9918.759623,-612.876398
139.736876,1036.288319,9030.512492,-1455.581446
139.737197,-296.082377,8808.450710,-1915.238745
139.737517,-962.267725,9474.636058,-1532.190996
139.737838,-888.247130,10807.006753,-766.095498
139.738158,0.000000,11991.336260,536.266849
139.738479,1776.494261,12805.562797,383.047749
139.738800,1702.473667,13397.727550,-306.438199
139.739120,0.000000,13101.645173,-1455.581446
139.739441,0.000000,12879.583391,-1532.190996
139.739761,888.247130,12213.398043,-612.876398
139.740082,888.247130,9992.780217,0.000000
139.740402,1110.308913,7920.203579,-612.876398
139.740723,1406.391290,7920.203579,0.000000
139.741044,518.144159,10066.800811,1149.143247
139.741364,-1110.308913,11399.171507,1838.629195
139.741685,-222.061783,11029.068536,842.705048
139.742005,814.226536,9400.615463,-459.657299
139.742326,814.226536,8882.471304,229.828649
139.742646,814.226536,9400.615463,153.219100
139.742967,888.247130,11177.109724,-536.266849
139.743287,222.061783,13471.748144,-1455.581446
139.743608,222.061783,13323.706956,-2221.676944
139.743929,1406.391290,12509.480420,-2145.067394
139.744249,1702.473667,12657.521608,-995.924147
139.744570,0.000000,12731.542202,306.438199
139.744890,-518.144159,11843.295072,689.485948
139.745211,0.000000,10510.924376,1149.143247
139.745531,-1036.288319,9326.594869,1378.971896
139.745852,-888.247130,8512.368333,1838.629195
139.746172,-1258.350101,8438.347739,1532.190996
139.746493,-1258.350101,8882.471304,1072.533697
139.746814,-296.082377,9918.759623,76.609550
139.747134,1554.432478,10362.883188,0.000000
139.747455,2368.659014,11103.089130,-153.219100
139.747775,3256.906145,12583.501014,0.000000
139.748096,2220.617826,11843.295072,-1302.362347
139.748416,1406.391290,9178.553681,-3140.991542
139.748737,2368.659014,7179.997637,-3140.991542
139.749058,4071.132681,8364.327145,229.828649
139.749378,3701.029710,11547.212695,2451.505594
139.749699,1628.453072,13693.809927,-306.438199
139.750019,1850.514855,13989.892304,-2604.724693
139.750340,1924.535449,11325.150913,-2834.553343
139.750660,814.226536,7772.162391,-1225.752797
139.750981,592.164754,5477.523971,459.657299
139.751301,1776.494261,7031.956449,842.705048
139.751622,1480.411884,11473.192101,1225.752797
139.751943,666.185348,13175.665768,1608.800546
139.752263,1332.370696,11251.130318,1225.752797
139.752584,2812.782580,9474.636058,1685.410096
139.752904,2368.659014,9770.718434,2451.505594
139.753225,2442.679609,9252.574275,1378.971896
139.753545,2960.823768,7328.038826,-1838.629195
139.753866,4145.153275,6809.894666,-1838.629195
139.754186,4959.379811,7772.162391,-689.485948
139.754507,4811.338623,7179.997637,229.828649
139.754828,4737.318029,7846.182985,229.828649
139.755148,6291.750507,9252.574275,536.266849
139.755469,5921.647536,9548.656652,383.047749
139.755789,6291.750507,8586.388927,-1915.238745
139.756110,7920.203579,8512.368333,-2374.896044
139.756430,6661.853478,9326.594869,-1685.410096
139.756751,4663.297435,8660.409521,-1225.752797
139.757072,5255.462188,8216.285956,-1149.143247
139.757392,2664.741391,7402.059420,-2068.457845
139.757713,2368.659014,7920.203579,-306.438199
139.758033,5625.565159,10066.800811,3294.210641
139.758354,4367.215058,10436.903782,3370.820191
139.758674,2960.823768,9030.512492,1532.190996
139.758995,3330.926739,6587.832884,383.047749
139.759315,2220.617826,5477.523971,-383.047749
139.759635,1332.370696,5107.421000,1149.143247
139.759956,4737.318029,5847.626942,1072.533697
139.760277,7846.182985,7920.203579,-1532.190996
139.760597,7772.162391,9770.718434,-1762.019645
139.760918,5995.668130,11251.130318,-536.266849
139.761239,5403.503377,10140.821405,-153.219100
139.761560,5255.462188,7994.224174,-383.047749
139.761880,6587.832884,6809.894666,689.485948
139.762201,7772.162391,5995.668130,-1072.533697
139.762522,7402.059420,6291.750507,-1532.190996
139.762843,5625.565159,6809.894666,-919.314598
139.763163,4663.297435,6883.915261,-459.657299
139.763484,4885.359217,6439.791695,76.609550
139.763805,5329.482782,7031.956449,306.438199
139.764126,6143.709319,8512.368333,-1149.143247
139.764446,6143.709319,10436.903782,-1072.533697
139.764767,5847.626942,10362.883188,-612.876398
139.765088,4589.276840,9622.677246,612.876398
139.765409,2294.638420,8142.265362,919.314598
139.765729,2368.659014,7846.182985,383.047749
139.766050,2072.576638,7328.038826,-842.705048
139.766371,2516.700203,7772.162391,-995.924147
139.766692,3182.885551,9030.512492,-689.485948
139.767012,3330.926739,9548.656652,229.828649
139.767333,2368.659014,9622.677246,536.266849
139.767654,4293.194464,9178.553681,1225.752797
139.767975,4737.318029,8808.450710,1991.848295
139.768295,4145.153275,9770.718434,1302.362347
139.768616,5107.421000,9770.718434,766.095498
139.768937,5477.523971,9992.780217,-229.828649
139.769258,4589.276840,7994.224174,0.000000
139.769578,5847.626942,6513.812290,229.828649
139.769899,6143.709319,6069.688724,-459.657299
139.770220,4885.359217,6809.894666,-2068.457845
139.770541,5625.565159,8512.368333,-1991.848295
139.770861,6143.709319,7846.182985,-1149.143247
139.771182,6735.874072,6439.791695,153.219100
139.771503,7328.038826,5921.647536,2145.067394
139.771824,7105.977043,6957.935855,76.609550
139.772144,5477.523971,7920.203579,-2068.457845
139.772465,5847.626942,9326.594869,-2987.772442
139.772786,6513.812290,9770.718434,-2451.505594
139.773107,6735.874072,7179.997637,-1149.143247
139.773427,6291.750507,6069.688724,153.219100
139.773748,5625.565159,6513.812290,-689.485948
139.774069,4737.318029,7476.080014,-842.705048
139.774389,4071.132681,7402.059420,-689.485948
139.774710,4737.318029,7105.977043,-153.219100
139.775031,5107.421000,7550.100608,1685.410096
139.775352,4589.276840,8512.368333,3217.601092
139.775672,2960.823768,8808.450710,1455.581446
139.775993,3923.091493,9326.594869,-1455.581446
139.776314,4071.132681,9548.656652,-1991.848295
139.776635,3404.947333,8660.409521,-1225.752797
139.776955,3108.864956,8216.285956,0.000000
139.777276,2146.597232,8734.430116,766.095498
139.777597,1702.473667,9844.739029,1072.533697
139.777918,2368.659014,10881.027347,612.876398
139.778238,3404.947333,11547.212695,-689.485948
139.778559,3182.885551,11547.212695,-1302.362347
139.778880,2960.823768,9992.780217,0.000000
139.779201,2294.638420,7994.224174,1149.143247
139.779521,1776.494261,7179.997637,1378.971896
139.779842,2738.761985,7550.100608,689.485948
139.780163,4515.256246,9178.553681,-1072.533697
139.780484,5773.606348,10510.924376,-1455.581446
139.780804,6069.688724,9992.780217,0.000000
139.781125,5477.523971,8290.306550,1302.362347
139.781446,5033.400406,7031.956449,2451.505594
139.781767,5477.523971,7179.997637,1838.629195
139.782087,5477.523971,7624.121203,-842.705048
139.782408,6291.750507,6513.812290,-2451.505594
139.782729,7031.956449,5995.668130,-2374.896044
139.783050,7402.059420,5847.626942,-536.266849
139.783370,6587.832884,5033.400406,1149.143247
139.783691,6735.874072,5921.647536,1225.752797
139.784012,7994.224174,7402.059420,153.219100
139.784333,8290.306550,8660.409521,-919.314598
139.784653,7994.224174,7624.121203,-1532.190996
139.784974,7698.141797,6291.750507,-536.266849
139.785295,6809.894666,5921.647536,1685.410096
139.785616,5995.668130,5107.421000,2374.896044
139.785936,5995.668130,5107.421000,229.828649
139.786257,6217.729913,5995.668130,-2374.896044
139.786578,6735.874072,7772.162391,-2145.067394
139.786899,5551.544565,7772.162391,76.609550
139.787219,5477.523971,7179.997637,919.314598
139.787540,5995.668130,6291.750507,2145.067394
139.787861,6513.812290,7328.038826,2528.115143
139.788182,5477.523971,9104.533087,536.266849
139.788502,4737.318029,10066.800811,-2604.724693
139.788823,5181.441594,9696.697840,-2145.067394
139.789144,5551.544565,7254.018232,842.705048
139.789465,5551.544565,4441.235652,3370.820191
139.789785,5847.626942,4885.359217,2451.505594
139.790106,4737.318029,6809.894666,-229.828649
139.790427,4293.194464,8882.471304,-3677.258390
139.790748,5551.544565,8808.450710,-3140.991542
139.791068,6883.915261,7624.121203,-766.095498
139.791389,6957.935855,6809.894666,1915.238745
139.791710,6365.771101,7254.018232,1991.848295
139.792031,5773.606348,8660.409521,-306.438199
139.792351,4737.318029,10214.842000,-3064.381992
139.792672,5033.400406,9770.718434,-3064.381992
139.792993,5255.462188,8068.244768,-2374.896044
139.793314,5773.606348,7402.059420,0.000000
139.793634,4885.359217,7624.121203,1302.362347
139.793955,4885.359217,8882.471304,383.047749
139.794276,3997.112087,8956.491898,-1838.629195
139.794596,3404.947333,8216.285956,-2451.505594
139.794917,3552.988522,7624.121203,-1532.190996
139.795238,3849.070898,7179.997637,459.657299
139.795559,4441.235652,8068.244768,2068.457845
139.795879,4811.338623,9474.636058,1149.143247
139.796200,5033.400406,10584.944971,-1302.362347
139.796521,4589.276840,10881.027347,-2757.943793
139.796842,4885.359217,9252.574275,-1991.848295
139.797162,4737.318029,7698.141797,689.485948
139.797483,4737.318029,6513.812290,2604.724693
139.797804,5255.462188,7254.018232,1991.848295
139.798125,5107.421000,8808.450710,-612.876398
139.798445,4145.153275,9178.553681,-2068.457845
139.798766,5107.421000,8734.430116,-2374.896044
139.799087,5995.668130,7994.224174,-229.828649
139.799408,5625.565159,6661.853478,995.924147
139.799728,5699.585753,6809.894666,383.047749
139.800049,5773.606348,8142.265362,-919.314598
139.800370,5033.400406,9696.697840,-1838.629195
139.800691,5699.585753,9696.697840,-1378.971896
139.801011,5995.668130,8660.409521,-919.314598
139.801332,5921.647536,7476.080014,0.000000
139.801653,5255.462188,7179.997637,1072.533697
139.801974,5551.544565,7846.182985,919.314598
139.802294,4589.276840,7179.997637,-766.095498
139.802615,4959.379811,7402.059420,-1302.362347
139.802936,4959.379811,6957.935855,-76.609550
139.803257,4293.194464,6735.874072,842.705048
139.803577,4367.215058,6513.812290,2145.067394
139.803898,6365.771101,7328.038826,1532.190996
139.804219,6217.729913,8364.327145,-383.047749
139.804540,5107.421000,7920.203579,-1455.581446
139.804860,6143.709319,8068.244768,-766.095498
139.805181,5847.626942,7476.080014,766.095498
139.805502,4663.297435,6143.709319,1378.971896
139.805823,6587.832884,5625.565159,766.095498
139.806143,6735.874072,6365.771101,-689.485948
139.806464,5921.647536,7105.977043,-1838.629195
139.806785,6957.935855,7105.977043,-1455.581446
139.807106,6513.812290,6365.771101,-919.314598
139.807426,6217.729913,5773.606348,153.219100
139.807747,6957.935855,7031.956449,1991.848295
139.808068,6661.853478,7920.203579,-766.095498
139.808389,5625.565159,8882.471304,-2987.772442
139.808709,5773.606348,9252.574275,-1685.410096
139.809030,5847.626942,8586.388927,-612.876398
139.809351,4885.359217,7846.182985,842.705048
139.809672,4737.318029,7772.162391,1072.533697
139.809992,4367.215058,9252.574275,-536.266849
139.810313,3478.967927,9178.553681,-612.876398
139.810634,3849.070898,8882.471304,-229.828649
139.810955,3923.091493,8068.244768,229.828649
139.811275,3404.947333,8290.306550,612.876398
139.811596,3108.864956,8882.471304,1762.019645
139.811917,3404.947333,9696.697840,459.657299
139.812238,3478.967927,9030.512492,-383.047749
139.812558,4589.276840,9474.636058,0.000000
139.812879,4811.338623,9326.594869,0.000000
139.813200,3849.070898,8216.285956,383.047749
139.813521,3997.112087,7550.100608,766.095498
139.813841,4885.359217,8068.244768,-459.657299
139.814162,5477.523971,8216.285956,-1838.629195
139.814483,5847.626942,8882.471304,-1608.800546
139.814803,5773.606348,8660.409521,-1455.581446
139.815124,5551.544565,7920.203579,-383.047749
139.815445,5255.462188,7031.956449,153.219100
139.815766,5403.503377,6661.853478,153.219100
139.816086,6217.729913,8216.285956,-1225.752797
139.816407,6661.853478,9548.656652,-2221.676944
139.816728,6069.688724,9252.574275,-2221.676944
139.817049,5847.626942,7550.100608,-1149.143247
139.817369,5847.626942,7328.038826,689.485948
139.817690,4589.276840,7920.203579,919.314598
139.818011,4145.153275,8216.285956,-306.438199
139.818332,4441.235652,7476.080014,-2145.067394
139.818652,5033.400406,7328.038826,-1608.800546
139.818973,4959.379811,7550.100608,153.219100
139.819294,4293.194464,7550.100608,1378.971896
139.819615,3775.050304,8068.244768,1378.971896
139.819935,4441.235652,8586.388927,383.047749
139.820256,5255.462188,8956.491898,-842.705048
139.820577,5181.441594,9030.512492,-689.485948
139.820898,4663.297435,8882.471304,229.828649
139.821218,4737.318029,8882.471304,1378.971896
139.821539,3552.988522,7772.162391,1455.581446
139.821860,4367.215058,8290.306550,536.266849
139.822181,4885.359217,8142.265362,-919.314598
139.822501,5033.400406,8586.388927,-1685.410096
139.822822,4959.379811,8216.285956,-612.876398
139.823143,4663.297435,7402.059420,383.047749
139.823464,4441.235652,6069.688724,689.485948
139.823784,5033.400406,6809.894666,536.266849
139.824105,5773.606348,8290.306550,0.000000
139.824426,5255.462188,9326.594869,-1991.848295
139.824747,5699.585753,9400.615463,-2145.067394
139.825067,5699.585753,8660.409521,0.000000
139.825388,5033.400406,7105.977043,689.485948
139.825709,5107.421000,7105.977043,995.924147
139.826030,4811.338623,7772.162391,-612.876398
139.826350,4219.173869,7994.224174,-2068.457845
139.826671,4811.338623,7402.059420,-1915.238745
139.826992,5255.462188,7550.100608,-919.314598
139.827313,4367.215058,7402.059420,612.876398
139.827633,3627.009116,6809.894666,1302.362347
139.827954,4737.318029,7402.059420,536.266849
139.828275,4959.379811,9474.636058,-612.876398
139.828596,3849.070898,9992.780217,-1532.190996
139.828916,4663.297435,9474.636058,-1072.533697
139.829237,5255.462188,8290.306550,76.609550
139.829558,4441.235652,7772.162391,1225.752797
139.829879,4293.194464,7550.100608,995.924147
139.830199,4589.276840,8734.430116,-1685.410096
139.830520,4145.153275,9252.574275,-2145.067394
139.830841,4663.297435,9326.594869,-459.657299
139.831162,4737.318029,7772.162391,306.438199
139.831482,3552.988522,6883.915261,1149.143247
139.831803,4145.153275,7772.162391,1072.533697
139.832124,5477.523971,9474.636058,0.000000
139.832445,4737.318029,10288.862594,-1915.238745
139.832765,4663.297435,9844.739029,-2681.334243
139.833086,5551.544565,9474.636058,-995.924147
139.833407,4441.235652,8586.388927,995.924147
139.833728,3701.029710,7994.224174,1532.190996
139.834048,4737.318029,8364.327145,-229.828649
139.834369,4589.276840,9474.636058,-1915.238745
139.834690,3775.050304,9844.739029,-1991.848295
139.835010,4589.276840,8882.471304,-536.266849
139.835331,3552.988522,7772.162391,842.705048
139.835652,4219.173869,6809.894666,2451.505594
139.835973,4885.359217,7031.956449,2068.457845
139.836293,4145.153275,8660.409521,-1225.752797
139.836614,4589.276840,10140.821405,-1838.629195
139.836935,5551.544565,10140.821405,-536.266849
139.837256,5181.441594,8882.471304,153.219100
139.837576,4959.379811,7476.080014,1072.533697
139.837897,5773.606348,7772.162391,995.924147
139.838218,5329.482782,8808.450710,229.828649
139.838539,3997.112087,9178.553681,-1225.752797
139.838859,4441.235652,7994.224174,-1608.800546
139.839180,5033.400406,6809.894666,0.000000
139.839501,5107.421000,6291.750507,2298.286494
139.839822,5477.523971,7105.977043,2604.724693
139.840142,6069.688724,7920.203579,-229.828649
139.840463,4959.379811,8734.430116,-1762.019645
139.840784,5107.421000,7624.121203,-995.924147
139.841105,4737.318029,6291.750507,536.266849
139.841425,5255.462188,5625.565159,1225.752797
139.841746,4885.359217,6661.853478,1072.533697
139.842067,5255.462188,7920.203579,-995.924147
139.842388,5255.462188,8586.388927,-2298.286494
139.842708,4811.338623,8216.285956,-1378.971896
139.843029,5403.503377,7772.162391,-229.828649
139.843350,5107.421000,6883.915261,919.314598
139.843671,4737.318029,7328.038826,842.705048
139.843991,5625.565159,8734.430116,-383.047749
139.844312,5477.523971,9400.615463,-1685.410096
139.844633,4589.276840,9400.615463,-2604.724693
139.844954,5107.421000,8734.430116,0.000000
139.845274,3923.091493,8586.388927,919.314598
139.845595,3701.029710,8068.244768,842.705048
139.845916,3923.091493,8808.450710,0.000000
139.846237,4367.215058,9326.594869,-995.924147
139.846557,4293.194464,9178.553681,-612.876398
139.846878,4367.215058,8586.388927,919.314598
139.847199,3849.070898,8142.265362,1149.143247
139.847520,3627.009116,7846.182985,1225.752797
139.847840,3849.070898,8734.430116,919.314598
139.848161,4737.318029,9474.636058,-536.266849
139.848482,4441.235652,9770.718434,-1532.190996
139.848803,4959.379811,9696.697840,-1378.971896
139.849123,5107.421000,9326.594869,-612.876398
139.849444,3997.112087,8586.388927,995.924147
139.849765,3849.070898,8512.368333,459.657299
139.850086,5255.462188,9548.656652,0.000000
139.850406,4515.256246,10066.800811,-1378.971896
139.850727,3182.885551,9030.512492,-1532.190996
139.851048,4663.297435,8586.388927,76.609550
139.851369,4367.215058,7920.203579,1455.581446
139.851689,2812.782580,7476.080014,1149.143247
139.852010,4293.194464,7624.121203,-153.219100
139.852331,4589.276840,8660.409521,-1225.752797
139.852652,4145.153275,8808.450710,-612.876398
139.852972,4885.359217,8364.327145,459.657299
139.853293,4885.359217,7772.162391,842.705048
139.853614,4589.276840,7550.100608,1149.143247
139.853935,5847.626942,7994.224174,1608.800546
139.854255,5107.421000,7994.224174,-1378.971896
139.854576,4589.276840,7254.018232,-2528.115143
139.854897,6143.709319,7476.080014,-229.828649
139.855217,5477.523971,7105.977043,689.485948
139.855538,5403.503377,6069.688724,1149.143247
139.855859,6883.915261,6735.874072,306.438199
139.856180,6439.791695,8068.244768,-2145.067394
139.856500,5255.462188,8216.285956,-1378.971896
139.856821,6291.750507,7254.018232,0.000000
139.857142,6291.750507,7105.977043,0.000000
139.857463,5551.544565,6513.812290,766.095498
139.857783,5995.668130,7402.059420,459.657299
139.858104,6439.791695,8068.244768,-1072.533697
139.858425,4885.359217,7920.203579,-1685.410096
139.858746,5477.523971,8512.368333,0.000000
139.859066,5255.462188,7105.977043,0.000000
139.859387,4145.153275,6735.874072,689.485948
139.859707,4663.297435,7179.997637,2298.286494
139.860028,5033.400406,8142.265362,995.924147
139.860349,4885.359217,7698.141797,-536.266849
139.860669,5551.544565,8290.306550,-229.828649
139.860990,5625.565159,7920.203579,536.266849
139.861310,5033.400406,7772.162391,842.705048
139.861631,4737.318029,7402.059420,766.095498
139.861952,5773.606348,8290.306550,-842.705048
139.862272,6217.729913,8512.368333,-1225.752797
139.862593,5995.668130,8512.368333,-689.485948
139.862913,5477.523971,7846.182985,-306.438199
139.863234,5403.503377,6957.935855,-306.438199
139.863555,5403.503377,6291.750507,306.438199
139.863875,6069.688724,7105.977043,153.219100
139.864196,6587.832884,7846.182985,-612.876398
139.864516,6217.729913,8290.306550,-1225.752797
139.864837,5847.626942,7550.100608,-689.485948
139.865158,6217.729913,7254.018232,0.000000
139.865478,4737.318029,6661.853478,459.657299
139.865799,5033.400406,6365.771101,0.000000
139.866119,6365.771101,7846.182985,-1532.190996
139.866440,6365.771101,9548.656652,-2298.286494
139.866761,4885.359217,8956.491898,-1378.971896
139.867081,5773.606348,8364.327145,-842.705048
139.867402,4515.256246,7550.100608,689.485948
139.867722,4145.153275,8068.244768,919.314598
139.868043,5181.441594,9400.615463,-229.828649
139.868363,4515.256246,10288.862594,-1225.752797
139.868684,4293.194464,10140.821405,-842.705048
139.869005,4737.318029,9622.677246,153.219100
139.869325,2960.823768,7994.224174,229.828649
139.869646,2442.679609,6883.915261,1149.143247
139.869966,4145.153275,8290.306550,1455.581446
139.870287,3478.967927,9622.677246,153.219100
139.870608,3182.885551,9622.677246,-76.609550
139.870928,3478.967927,9178.553681,153.219100
139.871249,3997.112087,8364.327145,689.485948
139.871569,3701.029710,7476.080014,2298.286494
139.871890,4663.297435,7698.141797,536.266849
139.872211,5403.503377,9326.594869,-2221.676944
139.872531,5033.400406,9326.594869,-1915.238745
139.872852,5477.523971,8956.491898,-459.657299
139.873172,5921.647536,7994.224174,76.609550
139.873493,4959.379811,6883.915261,306.438199
139.873814,5477.523971,7179.997637,0.000000
139.874134,6291.750507,8290.306550,-1302.362347
139.874455,5477.523971,8438.347739,-1608.800546
139.874775,5551.544565,7994.224174,-842.705048
139.875096,5699.585753,6809.894666,0.000000
139.875417,5477.523971,6661.853478,1455.581446
139.875737,5255.462188,6957.935855,1532.190996
139.876058,5551.544565,7328.038826,-383.047749
139.876378,6809.894666,7994.224174,-1685.410096
139.876699,5773.606348,8364.327145,-842.705048
139.877019,6069.688724,7402.059420,766.095498
139.877340,5773.606348,6143.709319,1685.410096
139.877661,5255.462188,5921.647536,1378.971896
139.877981,5551.544565,6883.915261,76.609550
139.878302,5255.462188,8586.388927,-919.314598
139.878622,4737.318029,9104.533087,-1225.752797
139.878943,5921.647536,8734.430116,-153.219100
139.879264,5181.441594,7179.997637,1302.362347
139.879584,5551.544565,6365.771101,1685.410096
139.879905,5995.668130,6883.915261,766.095498
139.880225,5329.482782,7624.121203,-995.924147
139.880546,4663.297435,8512.368333,-1378.971896
139.880867,5847.626942,8364.327145,-383.047749
139.881187,5699.585753,6809.894666,229.828649
139.881508,5847.626942,5255.462188,1225.752797
139.881828,6883.915261,6661.853478,612.876398
139.882149,5995.668130,8216.285956,-1685.410096
139.882470,5921.647536,8216.285956,-2221.676944
139.882790,6143.709319,7772.162391,-612.876398
139.883111,6513.812290,6365.771101,0.000000
139.883431,6513.812290,7105.977043,1149.143247
139.883752,6365.771101,7920.203579,842.705048
139.884073,5255.462188,9326.594869,-2298.286494
139.884393,5107.421000,9548.656652,-2834.553343
139.884714,5773.606348,9474.636058,-1455.581446
139.885034,5107.421000,7328.038826,229.828649
139.885355,4071.132681,5625.565159,1378.971896
139.885675,4589.276840,7402.059420,766.095498
139.885996,3997.112087,9326.594869,-689.485948
139.886317,3701.029710,9474.636058,-1532.190996
139.886637,4811.338623,9252.574275,-612.876398
139.886958,5847.626942,9178.553681,459.657299
139.887278,3997.112087,8142.265362,1762.019645
139.887599,3775.050304,7920.203579,842.705048
139.887920,4219.173869,8290.306550,-995.924147
139.888240,4219.173869,9178.553681,-1685.410096
139.888561,4959.379811,9104.533087,-842.705048
139.888881,5255.462188,8734.430116,-689.485948
139.889202,5181.441594,9548.656652,0.000000
139.889523,4663.297435,9918.759623,919.314598
139.889843,4145.153275,8882.471304,-459.657299
139.890164,5255.462188,8364.327145,-766.095498
139.890484,5403.503377,7550.100608,0.000000
139.890805,5847.626942,7105.977043,536.266849
139.891126,4737.318029,7031.956449,536.266849
139.891446,3849.070898,7846.182985,-459.657299
139.891767,5255.462188,8512.368333,-842.705048
139.892087,6809.894666,9030.512492,-459.657299
139.892408,6513.812290,9252.574275,-459.657299
139.892729,5921.647536,7920.203579,-383.047749
139.893049,4663.297435,6957.935855,-459.657299
139.893370,3701.029710,5995.668130,153.219100
139.893690,4071.132681,6809.894666,1302.362347
139.894011,5477.523971,7994.224174,0.000000
139.894332,6143.709319,8586.388927,-1608.800546
139.894652,6439.791695,8290.306550,-1915.238745
139.894973,5477.523971,7550.100608,-842.705048
139.895293,4219.173869,6439.791695,536.266849
139.895614,4367.215058,5921.647536,1685.410096
139.895934,5107.421000,7328.038826,76.609550
139.896255,5033.400406,8216.285956,-766.095498
139.896576,5033.400406,9178.553681,-1302.362347
139.896896,4811.338623,9104.533087,-919.314598
139.897217,4589.276840,7772.162391,306.438199
139.897537,4663.297435,6883.915261,1072.533697
139.897858,5107.421000,6661.853478,536.266849
139.898179,5107.421000,7402.059420,-1149.143247
139.898499,5551.544565,8142.265362,-306.438199
139.898820,5255.462188,7920.203579,-383.047749
139.899140,4811.338623,7698.141797,459.657299
139.899461,5773.606348,7105.977043,1072.533697
139.899782,6069.688724,7846.182985,459.657299
139.900102,6513.812290,8512.368333,-919.314598
139.900423,5773.606348,8734.430116,-1762.019645
139.900743,5403.503377,7994.224174,-1302.362347
139.901064,5329.482782,7624.121203,229.828649
139.901385,4219.173869,7105.977043,995.924147
139.901705,4145.153275,8068.244768,459.657299
139.902026,5255.462188,9178.553681,-76.609550
139.902346,4737.318029,9178.553681,-919.314598
139.902667,4737.318029,8808.450710,-919.314598
139.902988,4959.379811,7920.203579,76.609550
139.903308,3775.050304,6809.894666,153.219100
139.903629,4071.132681,6735.874072,612.876398
139.903949,5255.462188,8734.430116,76.609550
139.904270,4811.338623,10584.944971,-1072.533697
139.904590,3478.967927,9696.697840,-1838.629195
139.904911,5181.441594,8512.368333,-919.314598
139.905232,4293.194464,7846.182985,536.266849
139.905552,3478.967927,7254.018232,1302.362347
139.905873,3997.112087,7476.080014,0.000000
139.906193,4589.276840,8660.409521,-2221.676944
139.906514,4441.235652,9992.780217,-1149.143247
139.906835,4959.379811,10732.986159,459.657299
139.907155,4441.235652,9252.574275,-153.219100
139.907476,3849.070898,8364.327145,0.000000
139.907796,4663.297435,9104.533087,689.485948
139.908117,4663.297435,9104.533087,-459.657299
139.908438,4145.153275,8512.368333,-766.095498
139.908758,4737.318029,8660.409521,-689.485948
139.909079,4219.173869,8216.285956,0.000000
139.909399,2738.761985,7698.141797,1225.752797
139.909720,4145.153275,7624.121203,919.314598
139.910041,4811.338623,8586.388927,-612.876398
139.910361,4811.338623,9178.553681,-1072.533697
139.910682,5255.462188,8956.491898,0.000000
139.911002,5699.585753,7624.121203,0.000000
139.911323,4811.338623,6809.894666,766.095498
139.911644,4737.318029,5551.544565,1072.533697
139.911964,5847.626942,6957.935855,-383.047749
139.912285,5921.647536,8808.450710,-1915.238745
139.912605,5551.544565,9178.553681,-1991.848295
139.912926,6069.688724,8142.265362,-1608.800546
139.913246,5699.585753,6439.791695,-306.438199
139.913567,5033.400406,5995.668130,1225.752797
139.913888,5551.544565,7254.018232,612.876398
139.914208,5773.606348,8882.471304,-1072.533697
139.914529,5181.441594,9178.553681,-1915.238745
139.914849,5477.523971,8734.430116,-383.047749
139.915170,5255.462188,7402.059420,919.314598
139.915491,4811.338623,6661.853478,2068.457845
139.915811,5107.421000,7105.977043,612.876398
139.916132,4219.173869,7772.162391,-919.314598
139.916452,3701.029710,8882.471304,-1762.019645
139.916773,4589.276840,8660.409521,-153.219100
139.917094,4293.194464,8290.306550,842.705048
139.917414,3775.050304,8068.244768,1149.143247
139.917735,4145.153275,8660.409521,536.266849
139.918055,3997.112087,9178.553681,-766.095498
139.918376,4367.215058,9770.718434,-689.485948
139.918697,4737.318029,9400.615463,0.000000
139.919017,4737.318029,8882.471304,153.219100
139.919338,4293.194464,8364.327145,842.705048
139.919658,4737.318029,8512.368333,383.047749
139.919979,5107.421000,9326.594869,-383.047749
139.920300,5107.421000,9622.677246,-1608.800546
139.920620,4737.318029,9030.512492,-919.314598
139.920941,4367.215058,8142.265362,-383.047749
139.921261,4441.235652,7105.977043,1149.143247
139.921582,4811.338623,7328.038826,1608.800546
139.921902,5107.421000,8142.265362,306.438199
139.922223,4959.379811,8216.285956,-1378.971896
139.922544,6069.688724,8438.347739,-1072.533697
139.922864,6365.771101,8216.285956,0.000000
139.923185,5847.626942,7476.080014,76.609550
139.923505,5329.482782,6809.894666,0.000000
139.923826,6069.688724,7624.121203,-383.047749
139.924147,5921.647536,8734.430116,-766.095498
139.924467,5181.441594,8586.388927,-1685.410096
139.924788,5699.585753,8438.347739,-919.314598
139.925108,5033.400406,7920.203579,0.000000
139.925429,3701.029710,7476.080014,995.924147
139.925750,4071.132681,6957.935855,536.266849
139.926070,5329.482782,7476.080014,-153.219100
139.926391,4219.173869,7550.100608,-1225.752797
139.926711,3775.050304,8364.327145,-306.438199
139.927032,3997.112087,8438.347739,383.047749
139.927353,3997.112087,8290.306550,1072.533697
139.927673,4737.318029,8882.471304,995.924147
139.927994,5773.606348,8882.471304,-536.266849
139.928314,5477.523971,8956.491898,-2221.676944
139.928635,3997.112087,8882.471304,-1378.971896
139.928956,4589.276840,8438.347739,-306.438199
139.929276,4589.276840,7772.162391,1302.362347
139.929597,4959.379811,7550.100608,1608.800546
139.929917,5477.523971,8734.430116,0.000000
139.930238,5255.462188,9548.656652,-1915.238745
139.930558,3552.988522,8882.471304,-2221.676944
139.930879,5181.441594,8438.347739,383.047749
139.931200,5403.503377,7476.080014,2298.286494
139.931520,4219.173869,7105.977043,2145.067394
139.931841,5033.400406,7994.224174,383.047749
139.932161,4737.318029,10140.821405,-2145.067394
139.932482,4219.173869,9696.697840,-1532.190996
139.932803,4959.379811,8512.368333,76.609550
139.933123,5995.668130,6661.853478,766.095498
139.933444,4589.276840,6143.709319,995.924147
139.933764,4441.235652,7105.977043,919.314598
139.934085,4663.297435,8216.285956,-1072.533697
139.934406,4367.215058,8660.409521,-1378.971896
139.934726,4959.379811,8290.306550,-306.438199
139.935047,5847.626942,7105.977043,459.657299
139.935367,5329.482782,6661.853478,919.314598
139.935688,5181.441594,7994.224174,1455.581446
139.936009,5181.441594,9252.574275,-689.485948
139.936329,5107.421000,8512.368333,-2528.115143
139.936650,5255.462188,7698.141797,-1685.410096
139.936970,5847.626942,7476.080014,536.266849
139.937291,5181.441594,7031.956449,1378.971896
139.937612,5255.462188,7031.956449,842.705048
139.937932,5033.400406,7920.203579,-1149.143247
139.938253,5181.441594,8142.265362,-1838.629195
139.938573,5255.462188,8364.327145,-689.485948
139.938894,4959.379811,8364.327145,306.438199
139.939214,4811.338623,7328.038826,1302.362347
139.939535,4737.318029,7105.977043,1455.581446
139.939856,5255.462188,7624.121203,-306.438199
139.940176,5107.421000,8808.450710,-1608.800546
139.940497,4885.359217,9770.718434,-1149.143247
139.940817,5329.482782,8882.471304,0.000000
139.941138,5551.544565,8438.347739,842.705048
139.941459,4589.276840,7550.100608,1072.533697
139.941779,4737.318029,7476.080014,0.000000
139.942100,5551.544565,8142.265362,-919.314598
139.942420,4811.338623,8808.450710,-689.485948
139.942741,4885.359217,8734.430116,0.000000
139.943062,5329.482782,8216.285956,-229.828649
139.943382,3923.091493,7402.059420,306.438199
139.943703,4589.276840,7402.059420,1225.752797
139.944023,5995.668130,8734.430116,689.485948
139.944344,5847.626942,9030.512492,-1072.533697
139.944665,5551.544565,7994.224174,-1608.800546
139.944985,5995.668130,7328.038826,-766.095498
139.945306,4737.318029,7105.977043,612.876398
139.945626,4441.235652,6809.894666,995.924147
139.945947,5625.565159,8364.327145,229.828649
139.946268,5625.565159,9104.533087,-1532.190996
139.946588,5181.441594,9030.512492,-1072.533697
139.946909,5181.441594,8142.265362,0.000000
139.947229,4811.338623,6957.935855,536.266849
139.947550,4589.276840,7179.997637,842.705048
139.947871,5181.441594,7846.182985,0.000000
139.948191,4885.359217,9400.615463,-2298.286494
139.948512,4737.318029,8660.409521,-1149.143247
139.948832,5033.400406,7772.162391,383.047749
139.949153,5033.400406,7772.162391,1608.800546
139.949473,4589.276840,7105.977043,1915.238745
139.949794,4737.318029,7105.977043,459.657299
139.950115,4737.318029,7254.018232,-1378.971896
139.950435,5625.565159,8216.285956,-689.485948
139.950756,5773.606348,7994.224174,0.000000
139.951076,5551.544565,7031.956449,383.047749
139.951397,5995.668130,6883.915261,306.438199
139.951718,5477.523971,7105.977043,306.438199
139.952038,5625.565159,7550.100608,-1149.143247
139.952359,6735.874072,8290.306550,-1302.362347
139.952679,5995.668130,7920.203579,-1225.752797
139.953000,6069.688724,7624.121203,-306.438199
139.953321,5921.647536,7328.038826,689.485948
139.953641,4959.379811,6735.874072,-306.438199
139.953962,5773.606348,7179.997637,-383.047749
139.954282,5773.606348,8068.244768,-153.219100
139.954603,5033.400406,8438.347739,-306.438199
139.954924,4737.318029,7920.203579,153.219100
139.955244,4885.359217,7698.141797,459.657299
139.955565,4589.276840,8438.347739,689.485948
139.955885,4219.173869,8068.244768,229.828649
139.956206,4367.215058,8216.285956,-1225.752797
139.956527,4663.297435,8512.368333,-1378.971896
139.956847,4367.215058,8364.327145,612.876398
139.957168,3775.050304,8512.368333,1225.752797
139.957488,4441.235652,7698.141797,536.266849
139.957809,4663.297435,7624.121203,0.000000
139.958129,4737.318029,8882.471304,-919.314598
139.958450,5255.462188,9178.553681,-766.095498
139.958771,5477.523971,8882.471304,536.266849
139.959091,5477.523971,7920.203579,919.314598
139.959412,4885.359217,6809.894666,383.047749
139.959732,4663.297435,7179.997637,-536.266849
139.960053,5699.585753,9548.656652,-995.924147
139.960374,5625.565159,10066.800811,-919.314598
139.960694,5921.647536,8956.491898,-842.705048
139.961015,5625.565159,6957.935855,0.000000
139.961335,4737.318029,7179.997637,919.314598
139.961656,4071.132681,7550.100608,766.095498
139.961977,4367.215058,8142.265362,-306.438199
139.962298,5033.400406,8438.347739,-1532.190996
139.962619,5107.421000,7994.224174,-842.705048
139.962939,5181.441594,7179.997637,76.609550
139.963260,5181.441594,6883.915261,842.705048
139.963581,4071.132681,7846.182985,76.609550
139.963902,5181.441594,8660.409521,-995.924147
139.964223,6143.709319,9400.615463,-1991.848295
139.964543,5181.441594,8956.491898,-1225.752797
139.964864,5403.503377,8364.327145,689.485948
139.965185,5181.441594,8290.306550,1072.533697
139.965506,3404.947333,6587.832884,76.609550
139.965826,4071.132681,6661.853478,-383.047749
139.966147,5107.421000,8068.244768,-1455.581446
139.966468,4441.235652,9030.512492,-1225.752797
139.966789,4959.379811,8512.368333,0.000000
139.967110,4737.318029,7624.121203,842.705048
139.967430,4589.276840,7550.100608,995.924147
139.967751,4959.379811,8142.265362,1149.143247
139.968072,5625.565159,8956.491898,-842.705048
139.968393,5625.565159,8882.471304,-1225.752797
139.968714,5255.462188,8734.430116,-459.657299
139.969034,5033.400406,8142.265362,919.314598
139.969355,4145.153275,6809.894666,1225.752797
139.969676,4367.215058,6069.688724,995.924147
139.969997,5773.606348,6735.874072,-459.657299
139.970318,5773.606348,7846.182985,-1991.848295
139.970638,5625.565159,8364.327145,-1532.190996
139.970959,6291.750507,8734.430116,-689.485948
139.971280,5921.647536,8512.368333,0.000000
139.971601,5625.565159,7550.100608,766.095498
139.971922,6217.729913,7920.203579,689.485948
139.972242,5847.626942,8438.347739,-766.095498
139.972563,5551.544565,8438.347739,-766.095498
139.972884,5107.421000,7105.977043,-153.219100
139.973205,5255.462188,5699.585753,0.000000
139.973525,5773.606348,5625.565159,1072.533697
139.973846,5921.647536,7105.977043,536.266849
139.974167,5107.421000,7846.182985,-1378.971896
139.974488,5403.503377,7994.224174,-1838.629195
139.974809,5551.544565,7550.100608,-383.047749
139.975129,6291.750507,6513.812290,1072.533697
139.975450,6143.709319,6661.853478,1685.410096
139.975771,5477.523971,8290.306550,0.000000
139.976092,5773.606348,9104.533087,-2451.505594
139.976413,5403.503377,9696.697840,-2451.505594
139.976733,5181.441594,8882.471304,-1302.362347
139.977054,4367.215058,7624.121203,0.000000
139.977375,3478.967927,7328.038826,842.705048
139.977696,3701.029710,8290.306550,689.485948
139.978017,3849.070898,9474.636058,-229.828649
139.978337,3256.906145,9326.594869,-689.485948
139.978658,4589.276840,9030.512492,-612.876398
139.978979,3701.029710,8438.347739,459.657299
139.979300,3034.844362,7550.100608,1302.362347
139.979620,4441.235652,7624.121203,1302.362347
139.979941,4145.153275,8438.347739,0.000000
139.980262,3552.988522,9844.739029,-1149.143247
139.980583,4219.173869,10362.883188,-1149.143247
139.980904,4515.256246,9992.780217,-306.438199
139.981224,4293.194464,8956.491898,995.924147
139.981545,4515.256246,7920.203579,995.924147
139.981866,4737.318029,7550.100608,-306.438199
139.982187,4071.132681,8660.409521,-1532.190996
139.982508,3997.112087,9474.636058,-766.095498
139.982828,4959.379811,9474.636058,-306.438199
139.983149,5477.523971,7698.141797,0.000000
139.983470,5329.482782,6957.935855,995.924147
139.983791,6069.688724,7550.100608,306.438199
139.984112,5773.606348,8364.327145,-689.485948
139.984432,5773.606348,8956.491898,-919.314598
139.984753,5551.544565,7698.141797,-995.924147
139.985074,5921.647536,6809.894666,76.609550
139.985395,5477.523971,6957.935855,1149.143247
139.985716,4589.276840,7105.977043,229.828649
139.986036,5181.441594,8216.285956,-842.705048
139.986357,5403.503377,8364.327145,-1378.971896
139.986678,5477.523971,7550.100608,-612.876398
139.986999,5699.585753,7031.956449,612.876398
139.987319,4811.338623,6809.894666,919.314598
139.987640,3997.112087,7698.141797,383.047749
139.987961,4589.276840,8882.471304,0.000000
139.988282,5625.565159,9178.553681,-612.876398
139.988603,5773.606348,8512.368333,-536.266849
139.988923,5107.421000,7550.100608,-153.219100
139.989244,4885.359217,6735.874072,459.657299
139.989565,4219.173869,6587.832884,536.266849
139.989886,5107.421000,6661.853478,0.000000
139.990207,5255.462188,7179.997637,-1149.143247
139.990527,5995.668130,8142.265362,-1225.752797
139.990848,5773.606348,8808.450710,0.000000
139.991169,5255.462188,8068.244768,229.828649
139.991490,5847.626942,7476.080014,229.828649
139.991811,5625.565159,7994.224174,-842.705048
139.992131,5181.441594,8290.306550,-1685.410096
139.992452,5033.400406,8512.368333,-1225.752797
139.992773,5773.606348,8216.285956,-383.047749
139.993094,5699.585753,8216.285956,-229.828649
139.993415,4811.338623,7846.182985,229.828649
139.993735,4589.276840,7105.977043,-536.266849
139.994056,5329.482782,8364.327145,-995.924147
139.994377,5033.400406,8808.450710,-995.924147
139.994698,4145.153275,8438.347739,-766.095498
139.995018,4441.235652,7772.162391,0.000000
139.995339,4071.132681,7476.080014,536.266849
139.995660,3849.070898,8438.347739,1072.533697
139.995981,4885.359217,9696.697840,0.000000
139.996302,4293.194464,10362.883188,-1378.971896
139.996622,3923.091493,9992.780217,-1072.533697
139.996943,4293.194464,9474.636058,842.705048
139.997264,4145.153275,8586.388927,919.314598
139.997585,3404.947333,7772.162391,153.219100
139.997906,4737.318029,8216.285956,-459.657299
139.998226,3997.112087,8734.430116,-1225.752797
139.998547,3701.029710,9178.553681,-766.095498
139.998868,5107.421000,8734.430116,842.705048
139.999189,5107.421000,8142.265362,1302.362347
139.999510,5181.441594,7476.080014,919.314598
139.999830,5477.523971,8734.430116,0.000000
140.000151,4367.215058,9030.512492,-2068.457845
140.000472,4737.318029,8882.471304,-1685.410096
140.000793,5625.565159,8586.388927,0.000000
140.001113,4959.379811,7994.224174,536.266849
140.001434,4663.297435,7402.059420,919.314598
140.001755,4663.297435,8364.327145,-612.876398
140.002076,4071.132681,8068.244768,-1762.019645
140.002397,3701.029710,7994.224174,-1149.143247
140.002717,5921.647536,7624.121203,612.876398
140.003038,5773.606348,7105.977043,612.876398
140.003359,4441.235652,6957.935855,842.705048
140.003680,5255.462188,7550.100608,0.000000
140.004001,4959.379811,8512.368333,-1378.971896
140.004321,4737.318029,9252.574275,-1149.143247
140.004642,4663.297435,7772.162391,306.438199
140.004963,5107.421000,7179.997637,459.657299
140.005284,4811.338623,7328.038826,1532.190996
140.005605,3108.864956,7328.038826,1072.533697
140.005925,4145.153275,7772.162391,-842.705048
140.006246,4811.338623,8216.285956,-1991.848295
140.006567,5477.523971,8142.265362,-459.657299
140.006888,6587.832884,7254.018232,919.314598
140.007209,5699.585753,5995.668130,1302.362347
140.007529,3997.112087,5551.544565,919.314598
140.007850,5181.441594,8290.306550,536.266849
140.008171,5033.400406,9548.656652,-612.876398
140.008492,5403.503377,9918.759623,-2298.286494
140.008812,7031.956449,8956.491898,-612.876398
140.009133,5329.482782,8216.285956,842.705048
140.009454,4885.359217,7328.038826,1225.752797
140.009775,4515.256246,6661.853478,1072.533697
140.010096,4071.132681,7624.121203,-1455.581446
140.010416,4589.276840,8068.244768,-1532.190996
140.010737,5033.400406,9252.574275,-383.047749
140.011058,4515.256246,8438.347739,536.266849
140.011379,4737.318029,7994.224174,1532.190996
140.011700,4367.215058,7772.162391,612.876398
140.012020,4293.194464,8586.388927,-995.924147
140.012341,4219.173869,8808.450710,-536.266849
140.012662,4293.194464,8734.430116,-1302.362347
140.012983,4737.318029,9178.553681,-689.485948
140.013304,4219.173869,8512.368333,536.266849
140.013624,4441.235652,8438.347739,383.047749
140.013945,5033.400406,8586.388927,-383.047749
140.014266,4589.276840,8290.306550,-766.095498
140.014587,4589.276840,8216.285956,-689.485948
140.014908,4441.235652,7105.977043,-689.485948
140.015228,4737.318029,6957.935855,-536.266849
140.015549,4959.379811,7031.956449,229.828649
140.015870,5921.647536,8068.244768,0.000000
140.016191,6217.729913,9474.636058,-1302.362347
140.016511,5477.523971,9104.533087,-1915.238745
140.016832,6143.709319,9178.553681,-919.314598
140.017153,5773.606348,8882.471304,0.000000
140.017474,4589.276840,7772.162391,0.000000
140.017795,4885.359217,7476.080014,0.000000
140.018115,6291.750507,7328.038826,-153.219100
140.018436,5107.421000,7994.224174,-689.485948
140.018757,4145.153275,7994.224174,-383.047749
140.019078,4589.276840,7994.224174,-383.047749
140.019399,4737.318029,7476.080014,153.219100
140.019719,5255.462188,8216.285956,919.314598
140.020040,5847.626942,8216.285956,153.219100
140.020361,5255.462188,8660.409521,-459.657299
140.020682,4441.235652,8660.409521,-1149.143247
140.021003,5033.400406,8586.388927,0.000000
140.021323,4589.276840,7994.224174,842.705048
140.021644,5033.400406,7179.997637,153.219100
140.021965,5551.544565,7550.100608,-612.876398
140.022286,5181.441594,9104.533087,-1225.752797
140.022606,4589.276840,8808.450710,0.000000
140.022927,5403.503377,7254.018232,229.828649
140.023248,6143.709319,5847.626942,536.266849
140.023569,4737.318029,5403.503377,536.266849
140.023890,5181.441594,6735.874072,383.047749
140.024210,5773.606348,8512.368333,-383.047749
140.024531,5773.606348,9326.594869,-995.924147
140.024852,7105.977043,8438.347739,-459.657299
140.025173,6809.894666,7772.162391,-459.657299
140.025494,4737.318029,6439.791695,-1302.362347
140.025814,5107.421000,7105.977043,-459.657299
140.026135,5181.441594,8068.244768,-536.266849
140.026456,4811.338623,7920.203579,-459.657299
140.026777,5255.462188,7254.018232,0.000000
140.027098,5699.585753,7994.224174,153.219100
140.027418,3775.050304,8808.450710,306.438199
140.027739,2886.803174,7994.224174,229.828649
140.028060,4367.215058,8142.265362,-995.924147
140.028381,5329.482782,8290.306550,-229.828649
140.028702,5181.441594,7994.224174,1302.362347
140.029022,4737.318029,8660.409521,1149.143247
140.029343,3775.050304,9178.553681,-306.438199
140.029664,3701.029710,9252.574275,-229.828649
140.029985,5255.462188,8956.491898,0.000000
140.030305,4959.379811,7698.141797,-229.828649
140.030626,4737.318029,8956.491898,766.095498
140.030947,4219.173869,9030.512492,1302.362347
140.031268,3108.864956,7328.038826,612.876398
140.031589,3552.988522,7031.956449,-536.266849
140.031909,5329.482782,8512.368333,-76.609550
140.032230,5255.462188,9622.677246,-689.485948
140.032551,5255.462188,9474.636058,-536.266849
140.032872,6217.729913,8660.409521,383.047749
140.033193,5329.482782,7402.059420,536.266849
140.033513,4293.194464,6587.832884,76.609550
140.033834,5403.503377,6883.915261,-1225.752797
140.034155,5255.462188,7920.203579,-1685.410096
140.034476,5403.503377,8512.368333,-1225.752797
140.034797,6365.771101,7846.182985,-536.266849
140.035117,5847.626942,7624.121203,-306.438199
140.035438,4515.256246,6883.915261,153.219100
140.035759,5033.400406,7920.203579,229.828649
140.036080,5847.626942,8512.368333,-1378.971896
140.036401,5551.544565,9252.574275,-1838.629195
140.036721,5921.647536,8438.347739,-536.266849
140.037042,5477.523971,7698.141797,0.000000
140.037363,4737.318029,7476.080014,1149.143247
140.037684,4959.379811,7624.121203,1225.752797
140.038004,5403.503377,8290.306550,-689.485948
140.038325,4515.256246,8882.471304,-1455.581446
140.038646,3849.070898,8290.306550,0.000000
140.038967,4737.318029,7254.018232,1838.629195
140.039288,5625.565159,7031.956449,2451.505594
140.039608,5107.421000,7698.141797,1838.629195
140.039929,5477.523971,8216.285956,-1225.752797
140.040250,5699.585753,9030.512492,-2451.505594
140.040571,4885.359217,8734.430116,-383.047749
140.040892,5995.668130,7624.121203,1225.752797
140.041212,6957.935855,6513.812290,2145.067394
140.041533,5551.544565,6587.832884,229.828649
140.041854,5107.421000,7698.141797,-1915.238745
140.042175,5551.544565,8216.285956,-2451.505594
140.042496,5699.585753,8364.327145,-1838.629195
140.042816,6291.750507,8142.265362,383.047749
140.043137,6735.874072,7031.956449,995.924147
140.043458,5699.585753,6217.729913,1072.533697
140.043779,5107.421000,6957.935855,0.000000
140.044099,5033.400406,7550.100608,-1455.581446
140.044420,6217.729913,8290.306550,-1608.800546
140.044741,6291.750507,7328.038826,-1072.533697
140.045062,5477.523971,7105.977043,-76.609550
140.045383,5699.585753,6809.894666,689.485948
140.045703,5699.585753,7476.080014,153.219100
140.046024,4071.132681,8438.347739,-1072.533697
140.046345,4663.297435,8290.306550,-1915.238745
140.046666,5033.400406,8512.368333,-1378.971896
140.046987,5107.421000,7920.203579,0.000000
140.047307,4885.359217,7698.141797,1072.533697
140.047628,3849.070898,7920.203579,919.314598
140.047949,3997.112087,8808.450710,-153.219100
140.048270,4145.153275,9918.759623,-1225.752797
140.048591,4589.276840,9252.574275,-1149.143247
140.048911,4737.318029,7994.224174,-536.266849
140.049232,4737.318029,8216.285956,1378.971896
140.049553,3404.947333,8882.471304,1149.143247
140.049874,3552.988522,9400.615463,0.000000
140.050195,4071.132681,9474.636058,-1532.190996
140.050515,4219.173869,9474.636058,-919.314598
140.050836,3478.967927,8512.368333,612.876398
140.051157,3256.906145,7476.080014,1072.533697
140.051478,2960.823768,7624.121203,766.095498
140.051798,4441.235652,8512.368333,689.485948
140.052119,5181.441594,9400.615463,-383.047749
140.052440,5625.565159,9918.759623,-1838.629195
140.052761,5033.400406,9400.615463,-1455.581446
140.053082,5329.482782,8586.388927,-306.438199
140.053402,4737.318029,7105.977043,842.705048
140.053723,5551.544565,7031.956449,612.876398
140.054044,5625.565159,7550.100608,-383.047749
140.054365,4737.318029,8216.285956,-1915.238745
140.054686,4737.318029,8586.388927,-1532.190996
140.055006,5551.544565,8068.244768,306.438199
140.055327,4737.318029,7105.977043,1225.752797
140.055648,5699.585753,6587.832884,689.485948
140.055969,6513.812290,7254.018232,-306.438199
140.056290,5107.421000,8290.306550,-842.705048
140.056610,4959.379811,7698.141797,-842.705048
140.056931,6217.729913,7402.059420,-229.828649
140.057252,5625.565159,7105.977043,612.876398
140.057573,5477.523971,6513.812290,1072.533697
140.057894,6661.853478,7402.059420,76.609550
140.058214,5921.647536,8216.285956,-1378.971896
140.058535,5329.482782,8068.244768,-1072.533697
140.058856,5329.482782,7105.977043,-306.438199
140.059177,5773.606348,6143.709319,-536.266849
140.059497,5255.462188,6587.832884,1072.533697
140.059818,6069.688724,8068.244768,1149.143247
140.060139,7105.977043,9178.553681,-919.314598
140.060460,5329.482782,8882.471304,-2451.505594
140.060781,5107.421000,7772.162391,-689.485948
140.061101,6143.709319,7994.224174,689.485948
140.061422,4663.297435,7772.162391,1455.581446
140.061743,3923.091493,7402.059420,689.485948
140.062063,5773.606348,7994.224174,-612.876398
140.062384,4441.235652,8364.327145,-1302.362347
140.062704,5033.400406,9326.594869,-689.485948
140.063025,5699.585753,8808.450710,842.705048
140.063346,4367.215058,7476.080014,229.828649
140.063666,3923.091493,7031.956449,1302.362347
140.063987,4811.338623,8142.265362,1072.533697
140.064308,4367.215058,8660.409521,-1302.362347
140.064628,4441.235652,9918.759623,-1302.362347
140.064949,5181.441594,9474.636058,0.000000
140.065270,5773.606348,8660.409521,536.266849
140.065590,5403.503377,7994.224174,1225.752797
140.065911,4737.318029,8216.285956,-383.047749
140.066232,4811.338623,8512.368333,-1685.410096
140.066552,4293.194464,8512.368333,-842.705048
140.066873,4737.318029,7994.224174,-229.828649
140.067193,4663.297435,7328.038826,306.438199
140.067514,4811.338623,7698.141797,842.705048
140.067835,5107.421000,8956.491898,0.000000
140.068155,4219.173869,9918.759623,-995.924147
140.068476,4441.235652,9400.615463,-995.924147
140.068797,5255.462188,8734.430116,-459.657299
140.069117,4811.338623,7179.997637,-306.438199
140.069438,3997.112087,7994.224174,1915.238745
140.069759,4367.215058,8364.327145,995.924147
140.070079,3627.009116,9104.533087,-1072.533697
140.070400,3627.009116,8808.450710,-1455.581446
140.070721,4589.276840,7994.224174,-306.438199
140.071041,5033.400406,8290.306550,306.438199
140.071362,4293.194464,7698.141797,766.095498
140.071682,4071.132681,7402.059420,0.000000
140.072003,4737.318029,7846.182985,-536.266849
140.072324,4293.194464,8512.368333,-1149.143247
140.072644,3923.091493,8660.409521,0.000000
140.072965,4885.359217,8660.409521,689.485948
140.073286,5181.441594,7846.182985,766.095498
140.073606,5107.421000,7179.997637,0.000000
140.073927,5551.544565,6809.894666,-919.314598
140.074248,5773.606348,7624.121203,-1762.019645
140.074568,6661.853478,8216.285956,-536.266849
140.074889,6143.709319,7105.977043,-306.438199
140.075210,5329.482782,6587.832884,0.000000
140.075530,6513.812290,7624.121203,229.828649
140.075851,6291.750507,9030.512492,-842.705048
140.076171,5033.400406,8808.450710,-1991.848295
140.076492,6217.729913,7698.141797,-1608.800546
140.076813,6957.935855,7031.956449,229.828649
140.077133,5625.565159,6883.915261,536.266849
140.077454,4811.338623,7328.038826,536.266849
140.077775,4811.338623,8364.327145,-766.095498
140.078095,5255.462188,9178.553681,-1455.581446
140.078416,5551.544565,8882.471304,-306.438199
140.078737,5699.585753,7624.121203,76.609550
140.079057,5181.441594,7624.121203,0.000000
140.079378,3701.029710,8364.327145,229.828649
140.079699,2960.823768,8364.327145,153.219100
140.080019,4589.276840,8882.471304,-383.047749
140.080340,4737.318029,9104.533087,-612.876398
140.080660,4515.256246,9696.697840,-153.219100
140.080981,3997.112087,8956.491898,536.266849
140.081302,3552.988522,7846.182985,536.266849
140.081622,3923.091493,6957.935855,536.266849
140.081943,4367.215058,6883.915261,-689.485948
140.082264,5255.462188,8660.409521,-1149.143247
140.082584,5255.462188,9178.553681,-919.314598
140.082905,4885.359217,9178.553681,-76.609550
140.083226,5403.503377,8438.347739,0.000000
140.083546,5033.400406,7402.059420,0.000000
140.083867,5181.441594,7994.224174,-919.314598
140.084188,4737.318029,9622.677246,-1991.848295
140.084508,4737.318029,9622.677246,-1608.800546
140.084829,6217.729913,8216.285956,-612.876398
140.085149,5995.668130,6735.874072,995.924147
140.085470,4515.256246,6735.874072,1302.362347
140.085791,4737.318029,8142.265362,-153.219100
140.086111,4219.173869,8586.388927,-1378.971896
140.086432,3627.009116,8068.244768,-1991.848295
140.086753,6069.688724,7550.100608,0.000000
140.087073,5477.523971,7328.038826,1072.533697
140.087394,3997.112087,7550.100608,919.314598
140.087715,4737.318029,8216.285956,306.438199
140.088035,5329.482782,9548.656652,-689.485948
140.088356,5403.503377,9474.636058,-689.485948
140.088677,4959.379811,9548.656652,383.047749
140.088997,4959.379811,8882.471304,153.219100
140.089318,4441.235652,8438.347739,383.047749
140.089638,3997.112087,7994.224174,1455.581446
140.089959,5255.462188,8142.265362,459.657299
140.090280,4737.318029,8438.347739,-766.095498
140.090600,3552.988522,7994.224174,-306.438199
140.090921,4367.215058,8216.285956,383.047749
140.091242,4737.318029,7624.121203,1685.410096
140.091562,4515.256246,7402.059420,1915.238745
140.091883,5033.400406,7698.141797,383.047749
140.092204,4737.318029,8068.244768,-919.314598
140.092524,4441.235652,8882.471304,-383.047749
140.092845,5551.544565,8364.327145,919.314598
140.093166,5625.565159,6809.894666,536.266849
140.093486,5921.647536,5773.606348,0.000000
140.093807,5403.503377,5995.668130,-689.485948
140.094127,6365.771101,7402.059420,-1455.581446
140.094448,5921.647536,7698.141797,-1302.362347
140.094769,6365.771101,7550.100608,-459.657299
140.095089,6587.832884,7624.121203,-153.219100
140.095410,6143.709319,6365.771101,0.000000
140.095731,5773.606348,7105.977043,229.828649
140.096051,6439.791695,8808.450710,-612.876398
140.096372,5403.503377,8808.450710,-1455.581446
140.096693,4959.379811,7624.121203,-1302.362347
140.097013,5255.462188,6957.935855,-383.047749
140.097334,3923.091493,6513.812290,1149.143247
140.097654,3775.050304,7179.997637,1455.581446
140.097975,4071.132681,8438.347739,0.000000
140.098296,4367.215058,8660.409521,-1762.019645
140.098616,4293.194464,8882.471304,-459.657299
140.098937,4737.318029,8068.244768,76.609550
140.099258,4441.235652,7994.224174,306.438199
140.099578,4885.359217,8290.306550,995.924147
140.099899,4737.318029,8660.409521,-383.047749
140.100220,4885.359217,9326.594869,-1302.362347
140.100540,5329.482782,10288.862594,-919.314598
140.100861,4589.276840,9178.553681,0.000000
140.101182,5255.462188,7105.977043,612.876398
140.101502,6365.771101,7179.997637,1149.143247
140.101823,5255.462188,7476.080014,-919.314598
140.102143,5477.523971,8512.368333,-2221.676944
140.102464,5921.647536,8882.471304,-1378.971896
140.102785,6291.750507,8956.491898,76.609550
140.103105,6661.853478,8068.244768,1532.190996
140.103426,5773.606348,7550.100608,612.876398
140.103747,5255.462188,7772.162391,-1608.800546
140.104067,5181.441594,9400.615463,-1225.752797
140.104388,4737.318029,9548.656652,-383.047749
140.104709,5181.441594,8586.388927,0.000000
140.105029,5033.400406,7698.141797,536.266849
140.105350,3849.070898,8512.368333,229.828649
140.105671,2590.720797,8882.471304,153.219100
140.105991,2960.823768,9178.553681,-766.095498
140.106312,4071.132681,9030.512492,-766.095498
140.106632,4219.173869,8290.306550,459.657299
140.106953,4663.297435,8586.388927,1072.533697
140.107274,4293.194464,8808.450710,842.705048
140.107594,2812.782580,9326.594869,459.657299
140.107915,4219.173869,9178.553681,76.609550
140.108236,4737.318029,7698.141797,-459.657299
140.108556,4737.318029,7328.038826,0.000000
140.108877,4959.379811,7772.162391,1149.143247
140.109198,4367.215058,7105.977043,612.876398
140.109518,4219.173869,6513.812290,-459.657299
140.109839,5403.503377,7328.038826,-536.266849
140.110160,6143.709319,8290.306550,-612.876398
140.110480,5847.626942,7698.141797,153.219100
140.110801,6069.688724,6365.771101,766.095498
140.111121,6587.832884,5699.585753,536.266849
140.111442,6143.709319,5329.482782,229.828649
140.111763,5995.668130,5921.647536,-536.266849
140.112083,6957.935855,7994.224174,-1838.629195
140.112404,6957.935855,8512.368333,-1991.848295
140.112725,7179.997637,7550.100608,-459.657299
140.113045,7105.977043,6291.750507,459.657299
140.113366,5403.503377,5773.606348,459.657299
140.113687,5033.400406,6587.832884,306.438199
140.114007,5255.462188,7105.977043,-1455.581446
140.114328,5477.523971,8068.244768,-1762.019645
140.114649,5847.626942,8586.388927,0.000000
140.114969,5477.523971,8216.285956,1225.752797
140.115290,4071.132681,7624.121203,153.219100
140.115610,3997.112087,7772.162391,76.609550
140.115931,4293.194464,8068.244768,0.000000
140.116252,4219.173869,8216.285956,-689.485948
140.116572,4515.256246,8586.388927,-536.266849
140.116893,4515.256246,8808.450710,383.047749
140.117214,4145.153275,8364.327145,383.047749
140.117534,4441.235652,8808.450710,766.095498
140.117855,5329.482782,8734.430116,-383.047749
140.118176,5181.441594,8882.471304,-1532.190996
140.118496,4737.318029,8364.327145,-1225.752797
140.118817,5625.565159,8512.368333,229.828649
140.119138,5477.523971,8808.450710,1149.143247
140.119458,5033.400406,8586.388927,689.485948
140.119779,5255.462188,9104.533087,-995.924147
140.120099,5847.626942,9992.780217,-2145.067394
140.120420,5329.482782,9326.594869,-1225.752797
140.120741,5107.421000,8068.244768,0.000000
140.121061,5551.544565,6957.935855,229.828649
140.121382,4589.276840,7105.977043,0.000000
140.121703,4293.194464,7698.141797,-306.438199
140.122023,5551.544565,8512.368333,-1455.581446
140.122344,5625.565159,10066.800811,-1685.410096
140.122665,5921.647536,9178.553681,-229.828649
140.122985,5403.503377,7550.100608,536.266849
140.123306,5107.421000,6143.709319,1072.533697
140.123627,4367.215058,7402.059420,842.705048
140.123947,4663.297435,8956.491898,-306.438199
140.124268,4663.297435,9030.512492,-2451.505594
140.124588,5255.462188,8660.409521,-1762.019645
140.124909,4959.379811,7920.203579,153.219100
140.125230,4885.359217,7179.997637,1532.190996
140.125550,4219.173869,6735.874072,995.924147
140.125871,5329.482782,7624.121203,-229.828649
140.126192,5847.626942,8290.306550,-1608.800546
140.126512,4885.359217,8586.388927,-1302.362347
140.126833,5181.441594,8290.306550,-689.485948
140.127154,5181.441594,7846.182985,1225.752797
140.127474,5181.441594,7179.997637,1915.238745
140.127795,6217.729913,7994.224174,766.095498
140.128116,5181.441594,8290.306550,-1302.362347
140.128436,3997.112087,8290.306550,-2221.676944
140.128757,4515.256246,8438.347739,-459.657299
140.129077,4589.276840,7328.038826,1302.362347
140.129398,4737.318029,6809.894666,1991.848295
140.129719,5847.626942,7031.956449,383.047749
140.130039,4737.318029,8364.327145,-1838.629195
140.130360,3701.029710,9474.636058,-1685.410096
140.130681,4293.194464,9326.594869,0.000000
140.131001,5625.565159,8290.306550,1378.971896
140.131322,5921.647536,7105.977043,1838.629195
140.131643,4811.338623,6439.791695,842.705048
140.131963,5403.503377,7994.224174,-229.828649
140.132284,4515.256246,9178.553681,-536.266849
140.132605,4145.153275,8364.327145,-459.657299
140.132925,5403.503377,7105.977043,-306.438199
140.133246,5921.647536,6661.853478,842.705048
140.133566,5033.400406,7328.038826,1532.190996
140.133887,5181.441594,7624.121203,383.047749
140.134208,5033.400406,7328.038826,-1149.143247
140.134528,5181.441594,7402.059420,-1455.581446
140.134849,5847.626942,7105.977043,0.000000
140.135170,5847.626942,7402.059420,459.657299
140.135490,5551.544565,8068.244768,0.000000
140.135811,5773.606348,9178.553681,-1149.143247
140.136132,5847.626942,9474.636058,-1915.238745
140.136452,5329.482782,8216.285956,-1149.143247
140.136773,4737.318029,8290.306550,-459.657299
140.137094,4663.297435,7846.182985,536.266849
140.137414,3627.009116,7550.100608,383.047749
140.137735,3997.112087,8142.265362,-229.828649
140.138055,4737.318029,9104.533087,-842.705048
140.138376,4293.194464,9252.574275,-766.095498
140.138697,4663.297435,8808.450710,306.438199
140.139017,4515.256246,8512.368333,995.924147
140.139338,3701.029710,7624.121203,919.314598
140.139659,3849.070898,7994.224174,536.266849
140.139979,4515.256246,9474.636058,-919.314598
140.140300,5033.400406,9548.656652,-1455.581446
140.140621,5995.668130,9474.636058,0.000000
140.140941,5847.626942,8586.388927,306.438199
140.141262,4737.318029,7402.059420,0.000000
140.141583,4515.256246,6513.812290,0.000000
140.141903,5033.400406,7624.121203,-1378.971896
140.142224,5773.606348,8882.471304,-995.924147
140.142544,6069.688724,9400.615463,0.000000
140.142865,6661.853478,8808.450710,0.000000
140.143186,5995.668130,7772.162391,0.000000
140.143506,5033.400406,7402.059420,0.000000
140.143827,5107.421000,7624.121203,0.000000
140.144148,5773.606348,8068.244768,-689.485948
140.144468,5181.441594,7624.121203,-842.705048
140.144789,5255.462188,7698.141797,76.609550
140.145110,4737.318029,7179.997637,459.657299
140.145430,4071.132681,7328.038826,229.828649
140.145751,4885.359217,7624.121203,-383.047749
140.146071,4737.318029,8216.285956,-1762.019645
140.146392,4515.256246,8290.306550,-1838.629195
140.146713,4811.338623,8216.285956,306.438199
140.147033,4441.235652,8142.265362,1608.800546
140.147354,3552.988522,7698.141797,919.314598
140.147675,4589.276840,7624.121203,-536.266849
140.147995,4737.318029,8660.409521,-1915.238745
140.148316,4293.194464,9400.615463,-1302.362347
140.148637,4959.379811,8364.327145,459.657299
140.148957,5255.462188,7031.956449,1455.581446
140.149278,4663.297435,6735.874072,1302.362347
140.149599,4589.276840,7179.997637,689.485948
140.149919,4219.173869,8068.244768,-1532.190996
140.150240,4071.132681,8586.388927,-1915.238745
140.150560,5255.462188,8586.388927,0.000000
140.150881,6587.832884,7920.203579,919.314598
140.151202,5033.400406,7402.059420,1225.752797
140.151522,3849.070898,6883.915261,0.000000
140.151843,4589.276840,8586.388927,-1608.800546
140.152164,4589.276840,9548.656652,-1149.143247
140.152484,4959.379811,9252.574275,229.828649
140.152805,6143.709319,7179.997637,612.876398
140.153126,5403.503377,6883.915261,76.609550
140.153446,4441.235652,7846.182985,229.828649
140.153767,3997.112087,8512.368333,-229.828649
140.154088,4737.318029,8956.491898,-1455.581446
140.154408,5181.441594,8956.491898,-689.485948
140.154729,4959.379811,7698.141797,842.705048
140.155049,5329.482782,7698.141797,1302.362347
140.155370,4663.297435,8216.285956,1072.533697
140.155691,3552.988522,8660.409521,0.000000
140.156011,4737.318029,9548.656652,-1608.800546
140.156332,5551.544565,9474.636058,-1532.190996
140.156653,5625.565159,9400.615463,612.876398
140.156973,4737.318029,7920.203579,2068.457845
140.157294,3701.029710,6217.729913,1455.581446
140.157615,4441.235652,7105.977043,0.000000
140.157935,4663.297435,8068.244768,-1149.143247
140.158256,4885.359217,8364.327145,-1608.800546
140.158577,7031.956449,8882.471304,-536.266849
140.158897,5773.606348,8216.285956,229.828649
140.159218,5181.441594,7254.018232,1225.752797
140.159538,5403.503377,6439.791695,689.485948
140.159859,6365.771101,7550.100608,-766.095498
140.160180,5773.606348,9030.512492,-1991.848295
140.160501,5329.482782,9104.533087,-1455.581446
140.160821,5625.565159,8142.265362,-995.924147
140.161142,5033.400406,7624.121203,536.266849
140.161463,4367.215058,6957.935855,1378.971896
140.161784,4515.256246,7179.997637,-689.485948
140.162104,4959.379811,8216.285956,-1915.238745
140.162425,3923.091493,8364.327145,-1532.190996
140.162746,4885.359217,7772.162391,0.000000
140.163067,5329.482782,7402.059420,919.314598
140.163387,5033.400406,7550.100608,1149.143247
140.163708,4737.318029,7550.100608,306.438199
140.164029,5921.647536,8808.450710,-1225.752797
140.164350,5551.544565,9030.512492,-1608.800546
140.164671,4959.379811,8438.347739,-766.095498
140.164991,5699.585753,7179.997637,0.000000
140.165312,5107.421000,7254.018232,306.438199
140.165633,4441.235652,7328.038826,76.609550
140.165954,5255.462188,8956.491898,-919.314598
140.166274,4737.318029,9474.636058,-1608.800546
140.166595,4589.276840,8364.327145,-919.314598
140.166916,5181.441594,8364.327145,1685.410096
140.167237,4663.297435,7624.121203,1608.800546
140.167558,4589.276840,7772.162391,689.485948
140.167878,5181.441594,9400.615463,-459.657299
140.168199,4811.338623,9474.636058,-1991.848295
140.168520,4515.256246,9696.697840,-1455.581446
140.168841,4885.359217,8956.491898,459.657299
140.169161,3997.112087,8438.347739,1072.533697
140.169482,3182.885551,7698.141797,459.657299
140.169803,3775.050304,7624.121203,0.000000
140.170124,4293.194464,8512.368333,-306.438199
140.170445,3775.050304,9178.553681,0.000000
140.170765,3849.070898,8882.471304,383.047749
140.171086,4515.256246,8734.430116,153.219100
140.171407,5329.482782,7846.182985,995.924147
140.171728,5033.400406,7772.162391,842.705048
140.172048,5181.441594,8216.285956,-306.438199
140.172369,5403.503377,9696.697840,-1225.752797
140.172690,4589.276840,8808.450710,-842.705048
140.173011,4737.318029,7402.059420,76.609550
140.173331,6069.688724,6883.915261,1302.362347
140.173652,5329.482782,6661.853478,229.828649
140.173973,4811.338623,6957.935855,-1225.752797
140.174294,5033.400406,7772.162391,-1838.629195
140.174615,5107.421000,7920.203579,-536.266849
140.174935,5773.606348,7624.121203,766.095498
140.175256,5551.544565,6291.750507,919.314598
140.175577,5181.441594,6957.935855,-459.657299
140.175898,4737.318029,9104.533087,-1149.143247
140.176218,4515.256246,9844.739029,-1302.362347
140.176539,4737.318029,8882.471304,-1455.581446
140.176860,4885.359217,8142.265362,0.000000
140.177181,4515.256246,7402.059420,1378.971896
140.177502,3627.009116,8142.265362,919.314598
140.177822,3775.050304,7846.182985,76.609550
140.178143,3775.050304,7772.162391,-1149.143247
140.178464,4515.256246,8068.244768,-383.047749
140.178785,5107.421000,7402.059420,1072.533697
140.179105,4885.359217,8290.306550,1302.362347
140.179426,4737.318029,9178.553681,76.609550
140.179747,4737.318029,9400.615463,-842.705048
140.180068,5181.441594,8586.388927,-766.095498
140.180389,5403.503377,7550.100608,459.657299
140.180709,6217.729913,7772.162391,1532.190996
140.181030,5329.482782,8068.244768,1225.752797
140.181351,4885.359217,8512.368333,-153.219100
140.181672,5329.482782,7920.203579,-1072.533697
140.181992,6143.709319,7846.182985,-1302.362347
140.182313,6587.832884,7105.977043,-689.485948
140.182634,6735.874072,6587.832884,0.000000
140.182955,5921.647536,6809.894666,153.219100
140.183275,4959.379811,7550.100608,0.000000
140.183596,4663.297435,7254.018232,-919.314598
140.183917,5477.523971,7328.038826,-1762.019645
140.184238,6217.729913,8660.409521,-1225.752797
140.184559,5921.647536,8364.327145,-459.657299
140.184879,5699.585753,8438.347739,0.000000
140.185200,5551.544565,8290.306550,-306.438199
140.185521,4145.153275,7624.121203,-536.266849
140.185842,5033.400406,7105.977043,-459.657299
140.186162,5255.462188,7920.203579,-842.705048
140.186483,4663.297435,8364.327145,-842.705048
140.186804,4737.318029,7772.162391,-229.828649
140.187125,5551.544565,7698.141797,383.047749
140.187446,4811.338623,7402.059420,536.266849
140.187766,4737.318029,7846.182985,0.000000
140.188087,5033.400406,8512.368333,-1149.143247
140.188408,4589.276840,8882.471304,-1455.581446
140.188729,4885.359217,9770.718434,536.266849
140.189049,4959.379811,9474.636058,1762.019645
140.189370,4737.318029,8438.347739,536.266849
140.189691,5477.523971,7846.182985,-229.828649
140.190012,5329.482782,8438.347739,-919.314598
140.190333,3997.112087,7994.224174,-1838.629195
140.190653,4589.276840,7105.977043,0.000000
140.190974,5329.482782,7550.100608,1225.752797
140.191295,4811.338623,7624.121203,1225.752797
140.191616,4663.297435,8364.327145,-383.047749
140.191936,5625.565159,10288.862594,-2145.067394
140.192257,4737.318029,10362.883188,-2374.896044
140.192578,4441.235652,8956.491898,-383.047749
140.192899,5181.441594,7476.080014,1225.752797
140.193219,4737.318029,7328.038826,1532.190996
140.193540,3701.029710,7846.182985,1455.581446
140.193861,3404.947333,8438.347739,-842.705048
140.194182,3330.926739,8364.327145,-2221.676944
140.194503,4885.359217,8290.306550,-459.657299
140.194823,5995.668130,7624.121203,1915.238745
140.195144,4885.359217,6217.729913,1378.971896
140.195465,4885.359217,5995.668130,766.095498
140.195786,4885.359217,8216.285956,-383.047749
140.196106,4293.194464,8956.491898,-1455.581446
140.196427,5625.565159,9178.553681,-1149.143247
140.196748,7105.977043,8882.471304,-536.266849
140.197069,6365.771101,8364.327145,612.876398
140.197390,5699.585753,7698.141797,766.095498
140.197710,4441.235652,7179.997637,766.095498
140.198031,4071.132681,6883.915261,-1378.971896
140.198352,4293.194464,7402.059420,-995.924147
140.198673,4737.318029,7179.997637,153.219100
140.198993,5107.421000,6809.894666,536.266849
140.199314,4959.379811,7476.080014,1532.190996
140.199635,4589.276840,7698.141797,306.438199
140.199956,4515.256246,8512.368333,-1302.362347
140.200277,4589.276840,8734.430116,-1378.971896
140.200597,5033.400406,9326.594869,-766.095498
140.200918,5329.482782,9030.512492,229.828649
140.201239,4515.256246,7624.121203,842.705048
140.201560,4589.276840,7772.162391,306.438199
140.201880,4737.318029,7920.203579,-766.095498
140.202201,4737.318029,8734.430116,-1378.971896
140.202522,5477.523971,8068.244768,-383.047749
140.202843,4885.359217,7328.038826,-229.828649
140.203163,4737.318029,6587.832884,536.266849
140.203484,4663.297435,6365.771101,1149.143247
140.203805,5699.585753,7402.059420,383.047749
140.204126,6365.771101,8290.306550,-842.705048
140.204447,6217.729913,8734.430116,-1149.143247
140.204767,6365.771101,8956.491898,-919.314598
140.205088,6217.729913,8734.430116,229.828649
140.205409,5847.626942,7846.182985,612.876398
140.205730,6735.874072,7328.038826,-536.266849
140.206050,7105.977043,7179.997637,-1455.581446
140.206371,5625.565159,7624.121203,-1915.238745
140.206692,4811.338623,7179.997637,-1608.800546
140.207013,4885.359217,6735.874072,0.000000
140.207334,5107.421000,7254.018232,1225.752797
140.207654,5477.523971,7920.203579,919.314598
140.207975,5921.647536,9178.553681,-919.314598
140.208296,5181.441594,9696.697840,-2145.067394
140.208617,4737.318029,9548.656652,-995.924147
140.208937,5181.441594,9178.553681,919.314598
140.209258,4885.359217,7920.203579,1149.143247
140.209579,4071.132681,7624.121203,459.657299
140.209900,4367.215058,8586.388927,-536.266849
140.210220,3849.070898,9400.615463,-1378.971896
140.210541,4071.132681,9326.594869,-536.266849
140.210862,4441.235652,8142.265362,1149.143247
140.211183,4885.359217,6735.874072,995.924147
140.211504,4293.194464,6365.771101,689.485948
140.211824,4219.173869,8438.347739,0.000000
140.212145,3997.112087,9326.594869,-919.314598
140.212466,4959.379811,9696.697840,-1225.752797
140.212787,5773.606348,9400.615463,-536.266849
140.213107,5847.626942,8586.388927,153.219100
140.213428,5329.482782,7698.141797,0.000000
140.213749,4663.297435,7328.038826,-306.438199
140.214070,4589.276840,7254.018232,-1378.971896
140.214391,4663.297435,7772.162391,-1149.143247
140.214711,5255.462188,7846.182985,-229.828649
140.215032,6143.709319,7476.080014,306.438199
140.215353,5625.565159,7402.059420,766.095498
140.215674,4885.359217,7550.100608,0.000000
140.215994,4663.297435,7772.162391,-995.924147
140.216315,4145.153275,7772.162391,-1455.581446
140.216636,5033.400406,8216.285956,-306.438199
140.216957,4959.379811,7772.162391,459.657299
140.217278,4145.153275,7624.121203,459.657299
140.217598,4811.338623,8438.347739,76.609550
140.217919,5033.400406,9178.553681,-612.876398
140.218240,4737.318029,8216.285956,-536.266849
140.218561,5329.482782,7105.977043,536.266849
140.218881,6439.791695,7920.203579,1455.581446
140.219202,4145.153275,7846.182985,1378.971896
140.219523,3478.967927,7105.977043,919.314598
140.219844,5773.606348,8216.285956,-459.657299
140.220164,5477.523971,9326.594869,-1149.143247
140.220485,5477.523971,9252.574275,153.219100
140.220806,5847.626942,8290.306550,536.266849
140.221127,4737.318029,8142.265362,306.438199
140.221448,3775.050304,7402.059420,229.828649
140.221768,4515.256246,7698.141797,76.609550
140.222089,4811.338623,7846.182985,-1608.800546
140.222410,4589.276840,9030.512492,-1149.143247
140.222731,4663.297435,8512.368333,306.438199
140.223051,4589.276840,7920.203579,536.266849
140.223372,4663.297435,7328.038826,1072.533697
140.223693,4515.256246,7402.059420,0.000000
140.224014,4811.338623,8734.430116,-1838.629195
140.224335,4811.338623,9178.553681,-1685.410096
140.224655,5625.565159,8438.347739,-689.485948
140.224976,6217.729913,7624.121203,612.876398
140.225297,5329.482782,8068.244768,229.828649
140.225618,5107.421000,9104.533087,-383.047749
140.225938,5181.441594,9030.512492,-1685.410096
140.226259,4515.256246,9104.533087,-1915.238745
140.226580,4663.297435,6735.874072,459.657299
140.226901,5403.503377,5477.523971,2374.896044
140.227222,5181.441594,7031.956449,1762.019645
140.227542,3775.050304,7994.224174,153.219100
140.227863,4293.194464,9178.553681,-1915.238745
140.228184,6069.688724,9400.615463,-2374.896044
140.228505,5699.585753,9030.512492,-612.876398
140.228825,6143.709319,8142.265362,842.705048
140.229146,6069.688724,8216.285956,1225.752797
140.229467,3478.967927,8586.388927,-383.047749
140.229788,3108.864956,8364.327145,-995.924147
140.230108,3701.029710,7772.162391,-1149.143247
140.230429,4589.276840,8660.409521,-306.438199
140.230750,4737.318029,9104.533087,1225.752797
140.231071,4219.173869,8438.347739,995.924147
140.231392,4219.173869,7550.100608,-306.438199
140.231712,4441.235652,7105.977043,-229.828649
140.232033,5033.400406,7254.018232,-306.438199
140.232354,5921.647536,8438.347739,-306.438199
140.232675,5403.503377,8734.430116,0.000000
140.232995,5551.544565,8734.430116,153.219100
140.233316,5699.585753,7402.059420,306.438199
140.233637,6069.688724,7105.977043,76.609550
140.233958,5477.523971,7402.059420,-1302.362347
140.234279,4885.359217,7402.059420,-1991.848295
140.234599,5625.565159,7772.162391,-1149.143247
140.234920,5699.585753,7402.059420,459.657299
140.235241,5847.626942,6587.832884,1225.752797
140.235562,5625.565159,6957.935855,536.266849
140.235882,4959.379811,7920.203579,-842.705048
140.236203,4959.379811,8586.388927,-1378.971896
140.236524,5773.606348,8142.265362,-919.314598
140.236845,6069.688724,7476.080014,0.000000
140.237166,5255.462188,7328.038826,842.705048
140.237486,4145.153275,7402.059420,383.047749
140.237807,4293.194464,8512.368333,-919.314598
140.238128,4663.297435,9400.615463,-1455.581446
140.238449,4589.276840,9474.636058,-689.485948
140.238769,4737.318029,9178.553681,306.438199
140.239090,3997.112087,8068.244768,1532.190996
140.239411,3256.906145,7328.038826,1455.581446
140.239732,3404.947333,7698.141797,689.485948
140.240052,4219.173869,8364.327145,-153.219100
140.240373,4367.215058,8586.388927,-612.876398
140.240694,5699.585753,8956.491898,842.705048
140.241015,5181.441594,7920.203579,995.924147
140.241336,4367.215058,7179.997637,153.219100
140.241656,4367.215058,7550.100608,0.000000
140.241977,5625.565159,8734.430116,-995.924147
140.242298,5033.400406,8660.409521,-1455.581446
140.242619,6439.791695,8142.265362,-536.266849
140.242939,7328.038826,8068.244768,153.219100
140.243260,4737.318029,7846.182985,0.000000
140.243581,4737.318029,6809.894666,0.000000
140.243902,6883.915261,7920.203579,-536.266849
140.244223,5255.462188,8290.306550,-1225.752797
140.244543,5329.482782,8364.327145,-689.485948
140.244864,5995.668130,8364.327145,-459.657299
140.245185,4071.132681,8216.285956,-842.705048
140.245506,3923.091493,8290.306550,0.000000
140.245826,5477.523971,8142.265362,0.000000
140.246147,4737.318029,8068.244768,-1532.190996
140.246468,3552.988522,8512.368333,-383.047749
140.246789,3256.906145,9326.594869,766.095498
140.247110,3256.906145,8734.430116,536.266849
140.247430,3701.029710,8068.244768,919.314598
140.247751,4515.256246,8734.430116,0.000000
140.248072,4737.318029,8734.430116,-1302.362347
140.248393,3997.112087,9622.677246,-842.705048
140.248713,3997.112087,9770.718434,536.266849
140.249034,3923.091493,9252.574275,306.438199
140.249355,4367.215058,7920.203579,1302.362347
140.249676,3775.050304,7402.059420,536.266849
140.249996,4071.132681,8512.368333,-306.438199
140.250317,4515.256246,9770.718434,-153.219100
140.250638,4441.235652,9104.533087,0.000000
140.250959,4811.338623,7476.080014,0.000000
140.251280,5477.523971,6661.853478,842.705048
140.251600,5551.544565,7254.018232,689.485948
140.251921,5847.626942,8068.244768,-536.266849
140.252242,5403.503377,8142.265362,-1685.410096
140.252563,5551.544565,8290.306550,-1762.019645
140.252883,6439.791695,7624.121203,-229.828649
140.253204,6069.688724,7328.038826,383.047749
140.253525,6069.688724,6217.729913,0.000000
140.253846,5995.668130,6809.894666,-1149.143247
140.254167,5625.565159,7772.162391,-1608.800546
140.254487,4959.379811,8068.244768,-766.095498
140.254808,5773.606348,7550.100608,0.000000
140.255129,6217.729913,7179.997637,536.266849
140.255450,4959.379811,7031.956449,0.000000
140.255770,4737.318029,7105.977043,-153.219100
140.256091,5033.400406,8068.244768,-1378.971896
140.256412,4959.379811,8364.327145,-1302.362347
140.256733,5625.565159,8068.244768,612.876398
140.257053,5625.565159,7846.182985,1685.410096
140.257374,4737.318029,7328.038826,536.266849
140.257695,3997.112087,7994.224174,0.000000
140.258016,4441.235652,8734.430116,-995.924147
140.258337,4885.359217,9104.533087,-842.705048
140.258657,4811.338623,8586.388927,459.657299
140.258978,5107.421000,7550.100608,689.485948
140.259299,5329.482782,7328.038826,536.266849
140.259620,4515.256246,7624.121203,-306.438199
140.259940,4737.318029,9252.574275,-689.485948
140.260261,4959.379811,9770.718434,-383.047749
140.260582,5773.606348,9326.594869,153.219100
140.260902,6143.709319,8660.409521,995.924147
140.261223,4959.379811,8142.265362,1302.362347
140.261544,4145.153275,7698.141797,229.828649
140.261864,4737.318029,7179.997637,-153.219100
140.262185,5255.462188,7994.224174,-842.705048
140.262506,5033.400406,8586.388927,-459.657299
140.262826,5033.400406,8068.244768,306.438199
140.263147,5181.441594,7105.977043,842.705048
140.263468,4367.215058,7550.100608,459.657299
140.263789,5329.482782,7846.182985,-536.266849
140.264109,5551.544565,8290.306550,-1915.238745
140.264430,5181.441594,7698.141797,-1072.533697
140.264751,5625.565159,8290.306550,919.314598
140.265071,5403.503377,8068.244768,919.314598
140.265392,5107.421000,7105.977043,-383.047749
140.265713,6143.709319,7846.182985,-1608.800546
140.266033,5255.462188,8142.265362,-1991.848295
140.266354,3997.112087,7550.100608,-1455.581446
140.266675,5477.523971,7402.059420,919.314598
140.266995,5699.585753,7550.100608,1762.019645
140.267316,3923.091493,7550.100608,919.314598
140.267637,4219.173869,8512.368333,-842.705048
140.267957,5033.400406,9474.636058,-1838.629195
140.268278,4293.194464,9104.533087,-1455.581446
140.268599,4145.153275,8808.450710,689.485948
140.268919,5255.462188,7772.162391,1225.752797
140.269240,3997.112087,7550.100608,1072.533697
140.269561,2738.761985,7254.018232,229.828649
140.269881,4441.235652,8216.285956,-1378.971896
140.270202,4663.297435,8586.388927,-1608.800546
140.270523,4737.318029,8512.368333,-689.485948
140.270843,6217.729913,8586.388927,536.266849
140.271164,6143.709319,7624.121203,153.219100
140.271485,5033.400406,7031.956449,229.828649
140.271806,5773.606348,7254.018232,-536.266849
140.272126,5403.503377,8512.368333,-1915.238745
140.272447,5329.482782,9400.615463,-995.924147
140.272768,6143.709319,8290.306550,536.266849
140.273088,6735.874072,7550.100608,383.047749
140.273409,5255.462188,7402.059420,153.219100
140.273730,3849.070898,7254.018232,-536.266849
140.274050,4367.215058,7920.203579,-2145.067394
140.274371,5033.400406,8142.265362,-1608.800546
140.274692,5625.565159,9104.533087,383.047749
140.275012,5625.565159,8512.368333,1072.533697
140.275333,4811.338623,8364.327145,612.876398
140.275654,3923.091493,8808.450710,0.000000
140.275974,4219.173869,9178.553681,-919.314598
140.276295,4145.153275,9474.636058,-1225.752797
140.276616,4145.153275,8586.388927,76.609550
140.276936,4663.297435,7624.121203,1149.143247
140.277257,4367.215058,7846.182985,1378.971896
140.277578,3775.050304,8290.306550,459.657299
140.277898,4515.256246,8068.244768,-1072.533697
140.278219,5107.421000,8734.430116,-1838.629195
140.278540,5551.544565,8734.430116,-459.657299
140.278860,5625.565159,7624.121203,1149.143247
140.279181,6143.709319,7031.956449,1302.362347
140.279502,5329.482782,6957.935855,306.438199
140.279822,5329.482782,8364.327145,-1302.362347
140.280143,5403.503377,9548.656652,-1915.238745
140.280464,5995.668130,8586.388927,-1072.533697
140.280785,6587.832884,7846.182985,536.266849
140.281105,5551.544565,7402.059420,1302.362347
140.281426,5107.421000,6513.812290,0.000000
140.281747,5403.503377,6883.915261,-459.657299
140.282067,5329.482782,7254.018232,-1302.362347
140.282388,6143.709319,7402.059420,-689.485948
140.282709,6069.688724,7328.038826,689.485948
140.283029,5551.544565,7105.977043,536.266849
140.283350,5403.503377,6957.935855,229.828649
140.283671,5477.523971,7105.977043,-459.657299
140.283991,5403.503377,8364.327145,-1838.629195
140.284312,5107.421000,8808.450710,-1532.190996
140.284633,5033.400406,8364.327145,-766.095498
140.284953,5033.400406,8364.327145,459.657299
140.285274,4589.276840,7994.224174,1532.190996
140.285595,4589.276840,7772.162391,766.095498
140.285915,4145.153275,8512.368333,-536.266849
140.286236,3404.947333,8290.306550,-995.924147
140.286557,4293.194464,7994.224174,0.000000
140.286877,5625.565159,8290.306550,2068.457845
140.287198,4515.256246,7402.059420,1378.971896
140.287519,3552.988522,6587.832884,383.047749
140.287839,5403.503377,8512.368333,-919.314598
140.288160,5033.400406,10362.883188,-1455.581446
140.288481,3775.050304,9992.780217,-612.876398
140.288802,5921.647536,8438.347739,-76.609550
140.289122,5921.647536,8290.306550,229.828649
140.289443,4219.173869,7698.141797,306.438199
140.289764,4441.235652,7550.100608,0.000000
140.290084,5107.421000,8364.327145,-1838.629195
140.290405,4737.318029,8956.491898,-1225.752797
140.290726,5995.668130,9474.636058,612.876398
140.291046,5847.626942,7994.224174,383.047749
140.291367,5329.482782,7179.997637,-153.219100
140.291688,4959.379811,7624.121203,306.438199
140.292008,5403.503377,7994.224174,-459.657299
140.292329,5107.421000,8068.244768,-766.095498
140.292650,5033.400406,7402.059420,0.000000
140.292970,5773.606348,7105.977043,0.000000
140.293291,5329.482782,7105.977043,919.314598
140.293612,3997.112087,7328.038826,-153.219100
140.293932,4737.318029,8142.265362,-995.924147
140.294253,5847.626942,8142.265362,-1302.362347
140.294574,5403.503377,8142.265362,-612.876398
140.294894,5403.503377,7994.224174,229.828649
140.295215,4811.338623,7698.141797,536.266849
140.295536,4293.194464,7698.141797,153.219100
140.295856,4441.235652,8068.244768,-229.828649
140.296177,4737.318029,8512.368333,-1072.533697
140.296498,5181.441594,9474.636058,-153.219100
140.296819,4367.215058,9030.512492,1225.752797
140.297139,3404.947333,7698.141797,0.000000
140.297460,4367.215058,7254.018232,0.000000
140.297781,4811.338623,7698.141797,0.000000
140.298101,4663.297435,8068.244768,-766.095498
140.298422,5403.503377,9548.656652,-995.924147
140.298743,5033.400406,9326.594869,-383.047749
140.299063,4515.256246,8290.306550,306.438199
140.299384,5181.441594,8068.244768,612.876398
140.299705,5477.523971,8438.347739,-306.438199
140.300025,4367.215058,8364.327145,-919.314598
140.300346,4219.173869,7624.121203,-995.924147
140.300667,5477.523971,8512.368333,0.000000
140.300987,5477.523971,7624.121203,1378.971896
140.301308,5773.606348,7254.018232,919.314598
140.301629,6439.791695,7550.100608,-76.609550
140.301949,6143.709319,7772.162391,-2068.457845
140.302270,6661.853478,7994.224174,-919.314598
140.302591,7105.977043,6735.874072,689.485948
140.302911,7698.141797,5625.565159,842.705048
140.303232,6661.853478,6661.853478,153.219100
140.303553,5625.565159,6957.935855,-612.876398
140.303873,5699.585753,8586.388927,-1915.238745
140.304194,5921.647536,9252.574275,-1455.581446
140.304515,5551.544565,8882.471304,-229.828649
140.304835,5847.626942,7920.203579,459.657299
140.305156,4219.173869,7031.956449,0.000000
140.305477,3108.864956,6587.832884,-536.266849
140.305798,3552.988522,8142.265362,-842.705048
140.306118,4441.235652,9178.553681,-766.095498
140.306439,4219.173869,9770.718434,0.000000
140.306760,4145.153275,8808.450710,536.266849
140.307080,4145.153275,8290.306550,1149.143247
140.307401,3478.967927,7772.162391,995.924147
140.307722,3404.947333,7772.162391,383.047749
140.308042,4293.194464,8512.368333,-1072.533697
140.308363,4441.235652,9400.615463,-1608.800546
140.308684,4589.276840,9696.697840,0.000000
140.309004,4959.379811,9178.553681,1455.581446
140.309325,4737.318029,7994.224174,1455.581446
140.309646,4589.276840,7550.100608,919.314598
140.309966,5477.523971,7698.141797,-995.924147
140.310287,5477.523971,8142.265362,-1302.362347
140.310608,5773.606348,7402.059420,0.000000
140.310928,6365.771101,7105.977043,1149.143247
140.311249,6661.853478,7328.038826,1072.533697
140.311570,5995.668130,7772.162391,0.000000
140.311890,5625.565159,7550.100608,-1608.800546
140.312211,6809.894666,7698.141797,-2221.676944
140.312532,6069.688724,7550.100608,-1225.752797
140.312852,5477.523971,7105.977043,459.657299
140.313173,5551.544565,7105.977043,612.876398
140.313494,5033.400406,7920.203579,-229.828649
140.313815,5033.400406,8438.347739,-766.095498
140.314135,4885.359217,8882.471304,-1149.143247
140.314456,3997.112087,8512.368333,-1072.533697
140.314777,3552.988522,8512.368333,459.657299
140.315097,3256.906145,8068.244768,1915.238745
140.315418,3330.926739,7846.182985,1225.752797
140.315739,3552.988522,7550.100608,995.924147
140.316059,3701.029710,8734.430116,-383.047749
140.316380,2368.659014,9178.553681,-459.657299
140.316701,2590.720797,9326.594869,153.219100
140.317021,3849.070898,9326.594869,689.485948
140.317342,4219.173869,9104.533087,919.314598
140.317663,4145.153275,8290.306550,383.047749
140.317983,4367.215058,8216.285956,-919.314598
140.318304,4071.132681,8734.430116,-1608.800546
140.318625,3701.029710,8882.471304,-995.924147
140.318945,4737.318029,8586.388927,842.705048
140.319266,6143.709319,7328.038826,1149.143247
140.319587,6143.709319,7254.018232,612.876398
140.319907,5181.441594,8364.327145,-612.876398
140.320228,4515.256246,9104.533087,-1838.629195
140.320549,5033.400406,8512.368333,-1378.971896
140.320869,6217.729913,7328.038826,153.219100
140.321190,7254.018232,6587.832884,1072.533697
140.321511,6365.771101,6439.791695,229.828649
140.321832,5551.544565,7179.997637,-689.485948
140.322152,5255.462188,8216.285956,-1149.143247
140.322473,5403.503377,8142.265362,-842.705048
140.322794,7476.080014,7402.059420,153.219100
140.323114,6957.935855,6513.812290,536.266849
140.323435,5255.462188,6365.771101,-536.266849
140.323756,5181.441594,6957.935855,-1072.533697
140.324076,5625.565159,8068.244768,-1608.800546
140.324397,5329.482782,8438.347739,-919.314598
140.324718,5847.626942,7920.203579,0.000000
140.325038,6217.729913,7476.080014,306.438199
140.325359,5255.462188,7179.997637,766.095498
140.325680,4367.215058,7105.977043,1302.362347
140.326000,4959.379811,7179.997637,-1149.143247
140.326321,5255.462188,8068.244768,-1685.410096
140.326642,5477.523971,9104.533087,-1072.533697
140.326962,4441.235652,8882.471304,612.876398
140.327283,4737.318029,7994.224174,536.266849
140.327604,4811.338623,7846.182985,0.000000
140.327924,4367.215058,8882.471304,-383.047749
140.328245,3849.070898,9770.718434,-995.924147
140.328566,4737.318029,10066.800811,-153.219100
140.328886,4737.318029,9252.574275,1149.143247
140.329207,4219.173869,8216.285956,919.314598
140.329528,4071.132681,8068.244768,0.000000
140.329848,4293.194464,8142.265362,-919.314598
140.330169,4367.215058,8882.471304,-612.876398
140.330490,4959.379811,8586.388927,383.047749
140.330811,5329.482782,8068.244768,612.876398
140.331131,5403.503377,8216.285956,995.924147
140.331452,4811.338623,7328.038826,919.314598
140.331773,5477.523971,8290.306550,-1149.143247
140.332093,5625.565159,8956.491898,-1455.581446
140.332414,5329.482782,8512.368333,-306.438199
140.332735,5477.523971,7846.182985,536.266849
140.333055,5329.482782,7254.018232,612.876398
140.333376,4071.132681,7031.956449,459.657299
140.333697,3775.050304,7328.038826,-612.876398
140.334017,6069.688724,7994.224174,-1149.143247
140.334338,5329.482782,7698.141797,-842.705048
140.334659,4811.338623,7031.956449,0.000000
140.334979,4959.379811,7550.100608,306.438199
140.335300,4737.318029,7920.203579,153.219100
140.335621,3923.091493,7476.080014,0.000000
140.335941,5995.668130,7698.141797,-1072.533697
140.336262,4811.338623,8956.491898,-1532.190996
140.336583,3108.864956,8882.471304,-612.876398
140.336903,3552.988522,7994.224174,1225.752797
140.337224,4737.318029,7772.162391,1915.238745
140.337545,3775.050304,7698.141797,536.266849
140.337865,4071.132681,8364.327145,-459.657299
140.338186,3478.967927,8142.265362,-2451.505594
140.338507,3182.885551,8660.409521,-1685.410096
140.338828,5033.400406,9030.512492,2068.457845
140.339148,5921.647536,7920.203579,1838.629195
140.339469,5773.606348,7179.997637,0.000000
140.339790,5033.400406,7105.977043,-1072.533697
140.340110,5255.462188,8290.306550,-1762.019645
140.340431,5033.400406,8808.450710,0.000000
140.340752,6069.688724,8438.347739,1225.752797
140.341072,7105.977043,7476.080014,536.266849
140.341393,7031.956449,7105.977043,-995.924147
140.341714,5625.565159,7105.977043,-1532.190996
140.342034,5995.668130,7846.182985,-1838.629195
140.342355,6513.812290,7550.100608,-1455.581446
140.342676,5847.626942,8142.265362,0.000000
140.342996,6809.894666,7550.100608,919.314598
140.343317,6143.709319,7550.100608,0.000000
140.343638,5699.585753,8216.285956,383.047749
140.343958,4737.318029,8734.430116,-842.705048
140.344279,4145.153275,8808.450710,-1455.581446
140.344600,4959.379811,8512.368333,0.000000
140.344920,6513.812290,8290.306550,1762.019645
140.345241,5255.462188,7328.038826,1149.143247
140.345562,3775.050304,6883.915261,-995.924147
140.345882,3552.988522,8290.306550,-1685.410096
140.346203,4367.215058,9178.553681,-689.485948
140.346524,4367.215058,8734.430116,536.266849
140.346845,5625.565159,7846.182985,1072.533697
140.347165,4885.359217,7328.038826,459.657299
140.347486,3330.926739,7772.162391,229.828649
140.347807,3330.926739,8660.409521,-306.438199
140.348127,4737.318029,8882.471304,-1838.629195
140.348448,5625.565159,8660.409521,-1608.800546
140.348769,6365.771101,9104.533087,919.314598
140.349089,5181.441594,8438.347739,536.266849
140.349410,3701.029710,7328.038826,0.000000
140.349731,4663.297435,7254.018232,-536.266849
140.350051,5477.523971,7846.182985,-1532.190996
140.350372,4885.359217,8364.327145,-995.924147
140.350693,5255.462188,7920.203579,459.657299
140.351013,5181.441594,7846.182985,229.828649
140.351334,4515.256246,8216.285956,76.609550
140.351655,4441.235652,7624.121203,-995.924147
140.351975,4885.359217,8438.347739,-1532.190996
140.352296,4959.379811,8882.471304,-306.438199
140.352617,4885.359217,9030.512492,919.314598
140.352937,4885.359217,8586.388927,995.924147
140.353258,4219.173869,8290.306550,0.000000
140.353579,3775.050304,7920.203579,-153.219100
140.353899,4367.215058,8512.368333,-766.095498
140.354220,4737.318029,9030.512492,-1072.533697
140.354541,5477.523971,8364.327145,0.000000
140.354861,5329.482782,7772.162391,919.314598
140.355182,4515.256246,7772.162391,689.485948
140.355503,4071.132681,8364.327145,76.609550
140.355824,4663.297435,8956.491898,-689.485948
140.356144,4885.359217,9474.636058,-766.095498
140.356465,5107.421000,9326.594869,459.657299
140.356786,4441.235652,8216.285956,1532.190996
140.357106,4367.215058,7698.141797,1378.971896
140.357427,4071.132681,7105.977043,459.657299
140.357748,4589.276840,7105.977043,0.000000
140.358068,5403.503377,8364.327145,-1225.752797
140.358389,5625.565159,9104.533087,-459.657299
140.358710,5107.421000,8734.430116,0.000000
140.359030,5847.626942,7328.038826,842.705048
140.359351,6217.729913,6957.935855,919.314598
140.359672,6069.688724,7402.059420,536.266849
140.359992,5477.523971,7179.997637,-1455.581446
140.360313,4959.379811,7254.018232,-1608.800546
140.360634,5773.606348,7920.203579,0.000000
140.360954,6217.729913,8068.244768,1225.752797
140.361275,5995.668130,7105.977043,229.828649
140.361596,6587.832884,5921.647536,-1838.629195
140.361916,6069.688724,6809.894666,-1991.848295
140.362237,4737.318029,7550.100608,-995.924147
140.362558,5477.523971,7105.977043,766.095498
140.362879,6957.935855,6513.812290,995.924147
140.363199,6735.874072,6661.853478,689.485948
140.363520,5921.647536,7105.977043,-995.924147
140.363841,5551.544565,8216.285956,-2451.505594
140.364162,5107.421000,8808.450710,-2374.896044
140.364483,5477.523971,8512.368333,0.000000
140.364803,6143.709319,7550.100608,995.924147
140.365124,5329.482782,7105.977043,459.657299
140.365445,3627.009116,6883.915261,0.000000
140.365766,4145.153275,8586.388927,-1225.752797
140.366087,3997.112087,9548.656652,-995.924147
140.366407,4737.318029,8808.450710,-689.485948
140.366728,5847.626942,8512.368333,459.657299
140.367049,4959.379811,8216.285956,1072.533697
140.367370,3330.926739,8660.409521,995.924147
140.367690,3701.029710,9474.636058,0.000000
140.368011,4367.215058,10362.883188,-1762.019645
140.368332,4071.132681,10658.965565,-1608.800546
140.368653,4811.338623,9474.636058,76.609550
140.368974,4885.359217,8660.409521,1225.752797
140.369294,4293.194464,8808.450710,1225.752797
140.369615,2590.720797,8142.265362,0.000000
140.369936,3182.885551,8290.306550,-2145.067394
140.370257,4811.338623,8290.306550,-1225.752797
140.370577,5625.565159,9104.533087,1225.752797
140.370898,6365.771101,8216.285956,2145.067394
140.371219,6809.894666,7920.203579,919.314598
140.371540,5255.462188,8216.285956,-842.705048
140.371861,5329.482782,8734.430116,-2298.286494
140.372181,5921.647536,8586.388927,-2068.457845
140.372502,6143.709319,8216.285956,-842.705048
140.372823,6587.832884,8290.306550,766.095498
140.373144,5181.441594,8512.368333,919.314598
140.373464,2886.803174,8216.285956,-612.876398
140.373785,3923.091493,7698.141797,-1225.752797
140.374106,4959.379811,7698.141797,-536.266849
140.374427,3849.070898,7254.018232,0.000000
140.374748,3775.050304,6883.915261,1225.752797
140.375068,4663.297435,8068.244768,1608.800546
140.375389,3034.844362,7772.162391,1149.143247
140.375710,3923.091493,7254.018232,76.609550
140.376031,5995.668130,7846.182985,-995.924147
140.376352,4145.153275,8290.306550,-1378.971896
140.376672,3182.885551,7179.997637,76.609550
140.376993,5033.400406,7105.977043,1455.581446
140.377314,5773.606348,7254.018232,689.485948
140.377635,5033.400406,7920.203579,383.047749
140.377955,4959.379811,8808.450710,-1991.848295
140.378276,4515.256246,8142.265362,-3294.210641
140.378597,5255.462188,7846.182985,0.000000
140.378918,5847.626942,7254.018232,2604.724693
140.379239,6143.709319,7105.977043,1762.019645
140.379559,5033.400406,7179.997637,-306.438199
140.379880,5033.400406,7920.203579,-2451.505594
140.380201,4959.379811,8734.430116,-1838.629195
140.380522,4959.379811,7328.038826,459.657299
140.380842,5773.606348,7476.080014,2374.896044
140.381163,5625.565159,7550.100608,1991.848295
140.381484,4367.215058,7772.162391,306.438199
140.381805,4515.256246,8660.409521,-1225.752797
140.382126,4367.215058,8216.285956,-1302.362347
140.382446,4737.318029,7698.141797,-229.828649
140.382767,5477.523971,6957.935855,1532.190996
140.383088,5181.441594,7105.977043,1532.190996
140.383409,5255.462188,7698.141797,689.485948
140.383730,4959.379811,8586.388927,-1378.971896
140.384050,5847.626942,8808.450710,-2834.553343
140.384371,6143.709319,8660.409521,-2145.067394
140.384692,6809.894666,8216.285956,-459.657299
140.385013,6883.915261,8216.285956,536.266849
140.385333,5847.626942,7550.100608,76.609550
140.385654,4663.297435,7476.080014,-1225.752797
140.385975,4811.338623,7624.121203,-2604.724693
140.386296,4885.359217,7994.224174,-1608.800546
140.386617,5773.606348,7994.224174,0.000000
140.386937,5477.523971,7328.038826,842.705048
140.387258,5033.400406,7550.100608,612.876398
140.387579,4071.132681,8216.285956,153.219100
140.387900,4145.153275,8290.306550,-1608.800546
140.388220,4885.359217,8956.491898,-2221.676944
140.388541,6143.709319,9400.615463,-842.705048
140.388862,6143.709319,9104.533087,612.876398
140.389183,5551.544565,8216.285956,1225.752797
140.389504,4737.318029,7994.224174,0.000000
140.389824,4367.215058,8438.347739,-1532.190996
140.390145,3775.050304,7994.224174,-1608.800546
140.390466,4737.318029,8142.265362,-383.047749
140.390787,5625.565159,8364.327145,1608.800546
140.391108,4367.215058,7772.162391,1302.362347
140.391428,4219.173869,7402.059420,76.609550
140.391749,5033.400406,8364.327145,-1149.143247
140.392070,5033.400406,8956.491898,-1072.533697
140.392391,5033.400406,9252.574275,-689.485948
140.392711,5403.503377,7698.141797,0.000000
140.393032,5329.482782,7476.080014,689.485948
140.393353,4589.276840,8512.368333,1149.143247
140.393674,4071.132681,8956.491898,0.000000
140.393995,4441.235652,8882.471304,-1991.848295
140.394315,3997.112087,8216.285956,-1915.238745
140.394636,4219.173869,7772.162391,0.000000
140.394957,4071.132681,7179.997637,1608.800546
140.395278,3849.070898,6809.894666,1685.410096
140.395598,3997.112087,7550.100608,459.657299
140.395919,5255.462188,9104.533087,-1149.143247
140.396240,4441.235652,9474.636058,-1532.190996
140.396561,4737.318029,9400.615463,-766.095498
140.396882,5255.462188,8512.368333,1149.143247
140.397202,4293.194464,7698.141797,1532.190996
140.397523,3849.070898,7105.977043,766.095498
140.397844,4737.318029,7402.059420,-536.266849
140.398165,4589.276840,8364.327145,-995.924147
140.398486,4441.235652,8734.430116,0.000000
140.398806,4737.318029,9030.512492,1072.533697
140.399127,4737.318029,8660.409521,1455.581446
140.399448,3997.112087,7254.018232,1072.533697
140.399769,5181.441594,7031.956449,-229.828649
140.400089,5181.441594,7772.162391,-766.095498
140.400410,4071.132681,8808.450710,-842.705048
140.400731,4441.235652,9178.553681,153.219100
140.401052,5033.400406,7920.203579,1302.362347
140.401373,5625.565159,7476.080014,842.705048
140.401693,5107.421000,7550.100608,229.828649
140.402014,4663.297435,7624.121203,-1685.410096
140.402335,4071.132681,7328.038826,-1685.410096
140.402656,4885.359217,7328.038826,-306.438199
140.402976,6069.688724,7254.018232,1455.581446
140.403297,5625.565159,7328.038826,1149.143247
140.403618,5477.523971,7846.182985,76.609550
140.403939,6217.729913,8142.265362,-1685.410096
140.404260,5773.606348,8586.388927,-2451.505594
140.404580,6069.688724,8438.347739,-1378.971896
140.404901,6957.935855,7624.121203,306.438199
140.405222,6661.853478,7105.977043,689.485948
140.405543,5329.482782,6883.915261,612.876398
140.405863,5329.482782,7772.162391,-766.095498
140.406184,5255.462188,7105.977043,-1685.410096
140.406505,5107.421000,7105.977043,-995.924147
140.406826,5255.462188,7328.038826,306.438199
140.407147,5699.585753,7624.121203,0.000000
140.407467,5255.462188,7698.141797,-383.047749
140.407788,5551.544565,8290.306550,-842.705048
140.408109,5773.606348,9326.594869,-995.924147
140.408430,5625.565159,9844.739029,-306.438199
140.408751,5847.626942,9548.656652,306.438199
140.409071,5625.565159,8734.430116,153.219100
140.409392,5255.462188,7772.162391,0.000000
140.409713,4145.153275,7476.080014,-536.266849
140.410034,3923.091493,7624.121203,-1149.143247
140.410354,4441.235652,8438.347739,-689.485948
140.410675,4293.194464,8956.491898,459.657299
140.410996,4663.297435,8586.388927,1302.362347
140.411317,4737.318029,8142.265362,1225.752797
140.411638,4515.256246,7994.224174,0.000000
140.411958,4737.318029,8216.285956,-1455.581446
140.412279,5181.441594,8364.327145,-1532.190996
140.412600,5181.441594,8512.368333,-766.095498
140.412921,6513.812290,8808.450710,689.485948
140.413241,5477.523971,8364.327145,459.657299
140.413562,4663.297435,7772.162391,-689.485948
140.413883,4811.338623,8142.265362,-1225.752797
140.414204,4959.379811,8956.491898,-1762.019645
140.414525,4367.215058,7402.059420,-459.657299
140.414845,5625.565159,6735.874072,1378.971896
140.415166,5847.626942,7328.038826,1378.971896
140.415487,3627.009116,7846.182985,76.609550
140.415808,3552.988522,8216.285956,-1149.143247
140.416129,5477.523971,8586.388927,-1762.019645
140.416449,4737.318029,9030.512492,-1225.752797
140.416770,4811.338623,9178.553681,1302.362347
140.417091,4589.276840,8956.491898,1608.800546
140.417412,2664.741391,8142.265362,-536.266849
140.417732,2886.803174,8142.265362,-612.876398
140.418053,3997.112087,8438.347739,-766.095498
140.418374,3923.091493,8660.409521,-459.657299
140.418695,4293.194464,8438.347739,1532.190996
140.419016,5181.441594,7920.203579,1608.800546
140.419336,4071.132681,7698.141797,1149.143247
140.419657,2886.803174,7031.956449,153.219100
140.419978,5255.462188,8364.327145,-536.266849
140.420299,5477.523971,9178.553681,-919.314598
140.420619,4959.379811,8956.491898,0.000000
140.420940,5773.606348,8734.430116,689.485948
140.421261,5699.585753,7624.121203,229.828649
140.421582,4367.215058,7105.977043,0.000000
140.421903,5181.441594,7031.956449,383.047749
140.422223,5329.482782,7179.997637,-1455.581446
140.422544,5107.421000,7698.141797,-459.657299
140.422865,5403.503377,8142.265362,1149.143247
140.423186,5255.462188,7698.141797,1149.143247
140.423507,5625.565159,7550.100608,76.609550
140.423827,5773.606348,7994.224174,-1225.752797
140.424148,5477.523971,8438.347739,-2374.896044
140.424469,5403.503377,7772.162391,-1991.848295
140.424790,5625.565159,8142.265362,1149.143247
140.425110,5773.606348,8512.368333,1991.848295
140.425431,4811.338623,8142.265362,383.047749
140.425752,5033.400406,7846.182985,-1532.190996
140.426073,4219.173869,7550.100608,-2834.553343
140.426394,3701.029710,7402.059420,-1149.143247
140.426714,4737.318029,7624.121203,1072.533697
140.427035,4885.359217,7920.203579,1532.190996
140.427356,4589.276840,7624.121203,995.924147
140.427677,5329.482782,8512.368333,-459.657299
140.427997,5033.400406,9252.574275,-1532.190996
140.428318,4885.359217,9400.615463,-1225.752797
140.428639,6217.729913,8956.491898,383.047749
140.428960,6217.729913,8216.285956,995.924147
140.429281,5921.647536,8290.306550,459.657299
140.429601,4441.235652,8734.430116,0.000000
140.429922,3404.947333,7846.182985,-1991.848295
140.430243,4293.194464,7698.141797,-995.924147
140.430564,5329.482782,8216.285956,1455.581446
140.430884,5773.606348,7624.121203,1915.238745
140.431205,5403.503377,7328.038826,766.095498
140.431526,5255.462188,7920.203579,-995.924147
140.431847,5403.503377,8290.306550,-1225.752797
140.432168,5477.523971,8290.306550,-1302.362347
140.432488,6735.874072,8734.430116,-689.485948
140.432809,6957.935855,9326.594869,0.000000
140.433130,5699.585753,8364.327145,229.828649
140.433451,5107.421000,7846.182985,-536.266849
140.433772,5181.441594,7402.059420,-1302.362347
140.434092,5255.462188,7698.141797,-1225.752797
140.434413,5181.441594,8216.285956,-766.095498
140.434734,4737.318029,7698.141797,153.219100
140.435055,5699.585753,7179.997637,1608.800546
140.435375,4737.318029,6661.853478,2068.457845
140.435696,4515.256246,6587.832884,536.266849
140.436017,5181.441594,8068.244768,-1532.190996
140.436338,5107.421000,9104.533087,-1685.410096
140.436659,5403.503377,7994.224174,-229.828649
140.436979,6661.853478,7328.038826,1378.971896
140.437300,6217.729913,7105.977043,1608.800546
140.437621,3775.050304,7328.038826,-612.876398
140.437942,3701.029710,7179.997637,-2374.896044
140.438262,5625.565159,8438.347739,-1532.190996
140.438583,5329.482782,9178.553681,536.266849
140.438904,4959.379811,7994.224174,1532.190996
140.439225,5625.565159,7550.100608,459.657299
140.439546,4145.153275,7624.121203,-383.047749
140.439866,3923.091493,8586.388927,-689.485948
140.440187,5255.462188,9400.615463,-842.705048
140.440508,4515.256246,8290.306550,-919.314598
140.440829,3775.050304,7476.080014,689.485948
140.441150,5107.421000,8512.368333,1991.848295
140.441470,3923.091493,8438.347739,-229.828649
140.441791,3849.070898,8290.306550,-1225.752797
140.442112,5107.421000,8142.265362,-1762.019645
140.442433,5181.441594,8142.265362,-1225.752797
140.442753,4219.173869,8142.265362,1532.190996
140.443074,4663.297435,8290.306550,1378.971896
140.443395,4885.359217,9104.533087,-536.266849
140.443716,4959.379811,9622.677246,-1608.800546
140.444037,5403.503377,9696.697840,-1455.581446
140.444357,5477.523971,9326.594869,-1455.581446
140.444678,5181.441594,8956.491898,0.000000
140.444999,4737.318029,8438.347739,1685.410096
140.445320,4219.173869,7105.977043,1149.143247
140.445640,4145.153275,6957.935855,-612.876398
140.445961,3997.112087,7994.224174,-1072.533697
140.446282,4145.153275,8956.491898,-1302.362347
140.446603,5403.503377,9178.553681,0.000000
140.446924,6143.709319,8512.368333,1378.971896
140.447244,5329.482782,6883.915261,1378.971896
140.447565,4737.318029,6809.894666,0.000000
140.447886,5773.606348,8734.430116,-919.314598
140.448207,4441.235652,8956.491898,-1455.581446
140.448528,5773.606348,9252.574275,-536.266849
140.448848,7254.018232,8586.388927,383.047749
140.449169,5773.606348,7624.121203,76.609550
140.449490,4663.297435,6883.915261,-153.219100
140.449811,4737.318029,7105.977043,0.000000
140.450131,4737.318029,7328.038826,-995.924147
140.450452,4959.379811,7328.038826,-459.657299
140.450773,5625.565159,7402.059420,459.657299
140.451094,6069.688724,7105.977043,459.657299
140.451415,5107.421000,7920.203579,1225.752797
140.451735,4737.318029,8660.409521,229.828649
140.452056,5477.523971,8438.347739,-2145.067394
140.452377,5181.441594,7624.121203,-1685.410096
140.452698,5403.503377,7920.203579,383.047749
140.453018,5773.606348,8216.285956,1915.238745
140.453339,4737.318029,7105.977043,919.314598
140.453660,4367.215058,6587.832884,-766.095498
140.453981,4737.318029,7105.977043,-1378.971896
140.454302,4737.318029,8808.450710,-1149.143247
140.454622,5107.421000,8734.430116,0.000000
140.454943,5847.626942,7402.059420,306.438199
140.455264,5995.668130,6883.915261,-229.828649
140.455585,5403.503377,7105.977043,-153.219100
140.455905,5477.523971,8142.265362,-1149.143247
140.456226,5181.441594,9178.553681,-1532.190996
140.456547,5403.503377,9474.636058,-153.219100
140.456868,5773.606348,8586.388927,1225.752797
140.457189,5107.421000,7772.162391,766.095498
140.457509,4589.276840,7105.977043,-459.657299
140.457830,4293.194464,7920.203579,-1302.362347
140.458151,4219.173869,8290.306550,-1225.752797
140.458472,4811.338623,7994.224174,229.828649
140.458793,5255.462188,8142.265362,1762.019645
140.459113,5107.421000,8142.265362,919.314598
140.459434,4663.297435,8364.327145,-229.828649
140.459755,5181.441594,8808.450710,-766.095498
140.460076,6291.750507,9252.574275,-306.438199
140.460396,7105.977043,8438.347739,306.438199
140.460717,6365.771101,7328.038826,306.438199
140.461038,6661.853478,7254.018232,383.047749
140.461359,5773.606348,7328.038826,919.314598
140.461680,7105.977043,6587.832884,919.314598
140.462000,8216.285956,5403.503377,0.000000
140.462321,8956.491898,3997.112087,-689.485948
140.462642,8586.388927,4219.173869,306.438199
140.462963,8734.430116,5033.400406,919.314598
140.463283,9474.636058,4959.379811,612.876398
140.463604,10807.006753,5033.400406,-1225.752797
140.463925,12139.377449,5477.523971,-2681.334243
140.464246,10881.027347,5995.668130,-2834.553343
140.464566,9992.780217,6661.853478,-1225.752797
140.464887,9548.656652,6809.894666,0.000000
140.465208,8808.450710,5033.400406,-229.828649
140.465529,7698.141797,4737.318029,-1149.143247
140.465849,6513.812290,4145.153275,-1072.533697
140.466170,6365.771101,5329.482782,-1225.752797
140.466491,6439.791695,6735.874072,0.000000
140.466812,6661.853478,7105.977043,1072.533697
140.467132,7772.162391,7550.100608,1149.143247
140.467453,6587.832884,6217.729913,689.485948
140.467774,5921.647536,5625.565159,306.438199
140.468095,6809.894666,5773.606348,153.219100
140.468416,7476.080014,7031.956449,612.876398
140.468736,8438.347739,7550.100608,306.438199
140.469057,8956.491898,7105.977043,76.609550
140.469378,9252.574275,6883.915261,0.000000
140.469699,9400.615463,5773.606348,459.657299
140.470019,9474.636058,4145.153275,383.047749
140.470340,10214.842000,3478.967927,-995.924147
140.470661,11843.295072,3478.967927,-383.047749
140.470982,12361.439231,4737.318029,-153.219100
140.471302,12213.398043,5403.503377,459.657299
140.471623,12435.459826,4959.379811,612.876398
140.471944,11843.295072,4737.318029,0.000000
140.472265,10288.862594,3849.070898,-1072.533697
140.472585,9770.718434,3256.906145,-2298.286494
140.472906,10584.944971,4071.132681,-1762.019645
140.473227,11769.274478,6587.832884,0.000000
140.473548,10658.965565,8068.244768,229.828649
140.473868,9622.677246,8882.471304,-306.438199
140.474189,7846.182985,7105.977043,-842.705048
140.474510,6439.791695,4811.338623,306.438199
140.474831,5995.668130,3182.885551,2374.896044
140.475152,7105.977043,2812.782580,1225.752797
140.475472,7698.141797,3775.050304,-229.828649
140.475793,8586.388927,5773.606348,-1838.629195
140.476114,9030.512492,7179.997637,-1072.533697
140.476435,8956.491898,7254.018232,-76.609550
140.476755,9104.533087,6587.832884,1302.362347
140.477076,8882.471304,5181.441594,1225.752797
140.477397,8808.450710,4219.173869,0.000000
140.477718,9030.512492,3923.091493,-842.705048
140.478038,9844.739029,4145.153275,-1532.190996
140.478359,10807.006753,4959.379811,-1532.190996
140.478680,11177.109724,6291.750507,-1225.752797
140.479001,11103.089130,7105.977043,-1532.190996
140.479321,10510.924376,7254.018232,-1225.752797
140.479642,9992.780217,6513.812290,229.828649
140.479963,9474.636058,4885.359217,1149.143247
140.480284,8364.327145,4737.318029,1072.533697
140.480604,7179.997637,4885.359217,229.828649
140.480925,7105.977043,5847.626942,-612.876398
140.481246,7105.977043,6291.750507,-612.876398
140.481567,7846.182985,6587.832884,-459.657299
140.481887,8660.409521,6661.853478,0.000000
140.482208,8216.285956,6809.894666,536.266849
140.482529,8216.285956,6587.832884,766.095498
140.482850,7846.182985,5995.668130,1685.410096
140.483171,7846.182985,5181.441594,1685.410096
140.483491,7772.162391,5921.647536,1072.533697
140.483812,8364.327145,6587.832884,0.000000
140.484133,9326.594869,6883.915261,-1149.143247
140.484454,9326.594869,5699.585753,-1838.629195
140.484774,9770.718434,4589.276840,-766.095498
140.485095,9622.677246,4441.235652,612.876398
140.485416,9474.636058,4589.276840,1378.971896
140.485737,9178.553681,5995.668130,919.314598
140.486057,9696.697840,6143.709319,0.000000
140.486378,10584.944971,5625.565159,-383.047749
140.486699,10807.006753,4737.318029,-153.219100
140.487020,10288.862594,5107.421000,0.000000
140.487340,9696.697840,5921.647536,-919.314598
140.487661,8734.430116,5921.647536,-1149.143247
140.487982,8956.491898,5403.503377,-1532.190996
140.488303,9030.512492,4515.256246,-383.047749
140.488623,8734.430116,4071.132681,0.000000
140.488944,8956.491898,3404.947333,383.047749
140.489265,8808.450710,3182.885551,306.438199
140.489586,9696.697840,3256.906145,-536.266849
140.489906,10584.944971,4071.132681,-1149.143247
140.490227,10732.986159,4959.379811,-1149.143247
140.490548,10066.800811,6217.729913,-1608.800546
140.490869,11103.089130,7031.956449,-1532.190996
140.491190,11769.274478,7402.059420,-1532.190996
140.491510,11251.130318,6809.894666,-995.924147
140.491831,10140.821405,6217.729913,-306.438199
140.492152,9104.533087,5699.585753,459.657299
140.492473,8364.327145,4737.318029,1608.800546
140.492793,8142.265362,4811.338623,2374.896044
140.493114,8956.491898,5033.400406,2145.067394
140.493435,8290.306550,4959.379811,1378.971896
140.493756,8216.285956,4663.297435,306.438199
140.494076,8216.285956,4145.153275,-229.828649
140.494397,8956.491898,4441.235652,-306.438199
140.494718,9474.636058,5551.544565,-612.876398
140.495039,10510.924376,7179.997637,-1532.190996
140.495359,11325.150913,8364.327145,-1838.629195
140.495680,11399.171507,8734.430116,-842.705048
140.496001,10807.006753,7846.182985,229.828649
140.496322,10436.903782,6365.771101,995.924147
140.496642,9770.718434,5403.503377,689.485948
140.496963,8660.409521,3923.091493,612.876398
140.497284,8586.388927,2886.803174,689.485948
140.497605,8882.471304,2368.659014,766.095498
140.497925,9474.636058,3552.988522,459.657299
140.498246,9548.656652,4737.318029,0.000000
140.498567,9770.718434,6735.874072,0.000000
140.498888,9400.615463,7994.224174,0.000000
140.499209,8882.471304,8364.327145,842.705048
140.499529,8142.265362,7846.182985,842.705048
140.499850,7105.977043,7624.121203,995.924147
140.500171,5625.565159,7920.203579,0.000000
140.500492,4811.338623,7328.038826,-919.314598
140.500812,5107.421000,6217.729913,-689.485948
140.501133,5033.400406,5699.585753,-383.047749
140.501454,4737.318029,6143.709319,1149.143247
140.501775,4367.215058,7254.018232,1838.629195
140.502095,4737.318029,8956.491898,2374.896044
140.502416,6217.729913,10066.800811,3140.991542
140.502737,6809.894666,9696.697840,3753.867940
140.503058,7105.977043,8512.368333,3677.258390
140.503378,6143.709319,7328.038826,3217.601092
140.503699,5699.585753,7328.038826,2681.334243
140.504020,5921.647536,7920.203579,2528.115143
140.504341,6587.832884,8660.409521,2987.772442
140.504661,7624.121203,8956.491898,3217.601092
140.504982,7328.038826,8438.347739,4136.915689
140.505303,6661.853478,8142.265362,4826.401637
140.505624,6735.874072,7328.038826,5056.230287
140.505944,6291.750507,7105.977043,4596.572988
140.506265,7105.977043,7254.018232,4366.744339
140.506586,7476.080014,7846.182985,4826.401637
140.506907,7402.059420,8660.409521,5362.668486
140.507228,7328.038826,9326.594869,6052.154434
140.507548,6883.915261,9400.615463,7048.078582
140.507869,6291.750507,8512.368333,7277.907231
140.508190,6217.729913,7920.203579,6741.640382
140.508511,5921.647536,7254.018232,6435.202183
140.508831,5329.482782,5995.668130,6588.421283
140.509152,5551.544565,5477.523971,6971.469032
140.509473,5551.544565,5625.565159,7124.688131
140.509794,5773.606348,7254.018232,6665.030833
140.510114,5477.523971,8142.265362,6588.421283
140.510435,5477.523971,8364.327145,6511.811733
140.510756,5403.503377,8068.244768,6894.859482
140.511077,5107.421000,7179.997637,7660.954980
140.511397,4811.338623,6217.729913,7814.174080
140.511718,3923.091493,5847.626942,7584.345430
140.512039,3256.906145,5921.647536,6435.202183
140.512360,2960.823768,6217.729913,5669.106685
140.512680,3034.844362,5773.606348,5592.497135
140.513001,2812.782580,5995.668130,5822.325785
140.513322,2960.823768,5921.647536,6358.592633
140.513643,3552.988522,6735.874072,6128.763984
140.513963,3478.967927,7105.977043,6052.154434
140.514284,3182.885551,7550.100608,6128.763984
140.514605,4589.276840,7994.224174,6205.373534
140.514926,4367.215058,8290.306550,6128.763984
140.515247,4145.153275,7550.100608,5362.668486
140.515567,4515.256246,7105.977043,5132.839837
140.515888,4145.153275,5847.626942,5056.230287
140.516209,3775.050304,4737.318029,4903.011187
140.516530,3108.864956,4219.173869,4136.915689
140.516850,3330.926739,4515.256246,3217.601092
140.517171,4293.194464,5773.606348,2757.943793
140.517492,5403.503377,7476.080014,3140.991542
140.517813,6365.771101,9622.677246,3140.991542
140.518133,6957.935855,10732.986159,3294.210641
140.518454,7328.038826,11769.274478,3370.820191
140.518775,6883.915261,10732.986159,3524.039291
140.519096,6883.915261,9770.718434,4903.011187
140.519416,6069.688724,9400.615463,5439.278036
140.519737,5107.421000,9474.636058,5669.106685
140.520058,5107.421000,9252.574275,5362.668486
140.520379,4071.132681,7994.224174,4749.792088
140.520699,2590.720797,5329.482782,3217.601092
140.521020,2664.741391,2442.679609,1838.629195
140.521341,4219.173869,2516.700203,1378.971896
140.521662,5403.503377,5773.606348,766.095498
140.521982,7254.018232,10658.965565,-612.876398
