#time,accel_x,accel_y,accel_z
556.944206,4959.379811,7994.224174,-153.219100
556.944527,4811.338623,7994.224174,0.000000
556.944848,4737.318029,7994.224174,-383.047749
556.945169,4589.276840,8068.244768,0.000000
556.945490,4959.379811,7920.203579,-229.828649
556.945811,5033.400406,8216.285956,-383.047749
556.946132,5107.421000,8142.265362,0.000000
556.946453,4959.379811,8068.244768,0.000000
556.946774,4959.379811,7698.141797,-383.047749
556.947095,4885.359217,7994.224174,0.000000
556.947415,4959.379811,8068.244768,-76.609550
556.947736,5329.482782,7920.203579,0.000000
556.948057,5033.400406,8142.265362,-229.828649
556.948378,4959.379811,8290.306550,-459.657299
556.948699,5033.400406,8216.285956,0.000000
556.949020,4737.318029,8216.285956,-76.609550
556.949341,4885.359217,8068.244768,-153.219100
556.949662,4959.379811,8216.285956,0.000000
556.949983,4811.338623,8586.388927,-306.438199
556.950304,4959.379811,8142.265362,-383.047749
556.950625,5033.400406,8068.244768,-229.828649
556.950946,5033.400406,8142.265362,0.000000
556.951267,5033.400406,8290.306550,0.000000
556.951588,4959.379811,8364.327145,0.000000
556.951908,5181.441594,8068.244768,-306.438199
556.952229,4885.359217,8142.265362,76.609550
556.952550,4959.379811,8068.244768,0.000000
556.952871,5033.400406,7994.224174,76.609550
556.953192,5107.421000,8142.265362,-153.219100
556.953513,5181.441594,8068.244768,0.000000
556.953834,5107.421000,8142.265362,-306.438199
556.954155,4959.379811,8216.285956,0.000000
556.954476,4885.359217,7920.203579,-536.266849
556.954797,4589.276840,8142.265362,-459.657299
556.955118,4441.235652,7624.121203,-536.266849
556.955439,4145.153275,7402.059420,-153.219100
556.955760,4219.173869,8512.368333,-459.657299
556.956080,4737.318029,9474.636058,-612.876398
556.956401,4589.276840,9992.780217,-1149.143247
556.956722,4663.297435,9696.697840,-1302.362347
556.957043,4293.194464,9400.615463,-383.047749
556.957364,3478.967927,8956.491898,459.657299
556.957685,2886.803174,8734.430116,995.924147
556.958006,2442.679609,8882.471304,612.876398
556.958327,2368.659014,9104.533087,153.219100
556.958648,2664.741391,8586.388927,-383.047749
556.958969,3108.864956,8586.388927,-383.047749
556.959290,2886.803174,9474.636058,0.000000
556.959611,2886.803174,9622.677246,306.438199
556.959932,2442.679609,8808.450710,459.657299
556.960252,2368.659014,8364.327145,229.828649
556.960573,2516.700203,9252.574275,-153.219100
556.960894,1998.556043,10732.986159,-1149.143247
556.961215,1702.473667,11991.336260,-1762.019645
556.961536,888.247130,11843.295072,-1532.190996
556.961857,1258.350101,11473.192101,-919.314598
556.962178,962.267725,11029.068536,-689.485948
556.962499,0.000000,11991.336260,-1225.752797
556.962820,-1332.370696,12361.439231,-1072.533697
556.963141,-1702.473667,13027.624579,229.828649
556.963462,-1554.432478,11769.274478,1378.971896
556.963783,-1184.329507,11029.068536,1685.410096
556.964104,-888.247130,11029.068536,1838.629195
556.964425,-2294.638420,12657.521608,995.924147
556.964745,-3182.885551,11621.233289,229.828649
556.965066,-2072.576638,10066.800811,-383.047749
556.965387,-592.164754,9696.697840,229.828649
556.965708,0.000000,10066.800811,919.314598
556.966029,-222.061783,10881.027347,842.705048
556.966350,0.000000,10955.047942,-459.657299
556.966671,666.185348,11251.130318,-1378.971896
556.966992,1554.432478,11177.109724,-689.485948
556.967313,2072.576638,10214.842000,-919.314598
556.967634,2812.782580,9918.759623,-306.438199
556.967955,2664.741391,10584.944971,-842.705048
556.968276,2072.576638,9918.759623,-1991.848295
556.968597,2146.597232,9474.636058,-2145.067394
556.968917,2294.638420,9548.656652,-995.924147
556.969238,2294.638420,10288.862594,0.000000
556.969559,1702.473667,10510.924376,229.828649
556.969880,1332.370696,11029.068536,-612.876398
556.970201,888.247130,11177.109724,-459.657299
556.970522,148.041188,11103.089130,306.438199
556.970843,-518.144159,10362.883188,842.705048
556.971164,-518.144159,10362.883188,689.485948
556.971485,-370.102971,10362.883188,459.657299
556.971806,-444.123565,10955.047942,383.047749
556.972127,-1110.308913,10658.965565,842.705048
556.972448,-592.164754,10658.965565,1149.143247
556.972769,666.185348,11029.068536,1225.752797
556.973090,962.267725,11399.171507,1072.533697
556.973410,1110.308913,11251.130318,76.609550
556.973731,1332.370696,11177.109724,-1378.971896
556.974052,1702.473667,10214.842000,-766.095498
556.974373,2220.617826,9770.718434,76.609550
556.974694,2368.659014,8882.471304,229.828649
556.975015,2368.659014,8364.327145,0.000000
556.975336,2664.741391,9104.533087,0.000000
556.975657,2442.679609,10288.862594,-306.438199
556.975978,2664.741391,10288.862594,-612.876398
556.976299,3256.906145,10436.903782,-919.314598
556.976620,3627.009116,10732.986159,-995.924147
556.976941,3182.885551,10362.883188,-1302.362347
556.977262,2072.576638,9992.780217,-1072.533697
556.977582,1776.494261,9992.780217,76.609550
556.977903,814.226536,11029.068536,76.609550
556.978224,74.020594,11325.150913,0.000000
556.978545,370.102971,11325.150913,-1225.752797
556.978866,74.020594,11251.130318,-1838.629195
556.979187,-888.247130,10584.944971,-995.924147
556.979508,-2072.576638,9030.512492,0.000000
556.979829,-1628.453072,8290.306550,1149.143247
556.980150,-666.185348,10436.903782,2451.505594
556.980471,-444.123565,11843.295072,2221.676944
556.980792,-222.061783,12361.439231,536.266849
556.981113,1258.350101,13175.665768,-383.047749
556.981434,2072.576638,12435.459826,153.219100
556.981755,2072.576638,10732.986159,-306.438199
556.982075,1554.432478,8956.491898,-1072.533697
556.982396,1332.370696,9326.594869,-1685.410096
556.982717,0.000000,9844.739029,-1302.362347
556.983038,-1036.288319,9844.739029,-2068.457845
556.983359,-888.247130,9918.759623,-2221.676944
556.983680,-148.041188,11547.212695,-1302.362347
556.984001,888.247130,13249.686362,306.438199
556.984322,518.144159,13841.851115,306.438199
556.984643,0.000000,12953.603985,0.000000
556.984964,148.041188,13619.789333,383.047749
556.985285,74.020594,12805.562797,0.000000
556.985606,-444.123565,10066.800811,-536.266849
556.985927,962.267725,8068.244768,-536.266849
556.986247,2220.617826,9030.512492,612.876398
556.986568,518.144159,9696.697840,1532.190996
556.986889,0.000000,10807.006753,1302.362347
556.987210,888.247130,11251.130318,536.266849
556.987531,444.123565,11547.212695,-306.438199
556.987852,296.082377,9104.533087,76.609550
556.988173,1036.288319,8364.327145,0.000000
556.988494,1554.432478,10510.924376,-459.657299
556.988815,370.102971,12657.521608,-919.314598
556.989136,-148.041188,13101.645173,-1991.848295
556.989457,1110.308913,13323.706956,-2068.457845
556.989778,1480.411884,13471.748144,-383.047749
556.990099,1258.350101,13027.624579,0.000000
556.990420,74.020594,11547.212695,153.219100
556.990740,296.082377,10362.883188,919.314598
556.991061,-814.226536,9474.636058,1225.752797
556.991382,-740.205942,8216.285956,842.705048
556.991703,-666.185348,8142.265362,383.047749
556.992024,-1554.432478,8512.368333,459.657299
556.992345,-740.205942,9474.636058,689.485948
556.992666,814.226536,10288.862594,689.485948
556.992987,1406.391290,12139.377449,0.000000
556.993308,2072.576638,12879.583391,-383.047749
556.993629,1036.288319,11843.295072,-919.314598
556.993950,1036.288319,10214.842000,-1991.848295
556.994271,518.144159,7994.224174,-1302.362347
556.994592,2220.617826,8512.368333,383.047749
556.994912,3478.967927,10436.903782,1455.581446
556.995233,1924.535449,12509.480420,0.000000
556.995554,814.226536,11843.295072,-2834.553343
556.995875,1776.494261,10955.047942,-3600.648841
556.996196,962.267725,9326.594869,-1685.410096
556.996517,-370.102971,7031.956449,0.000000
556.996838,370.102971,7994.224174,153.219100
556.997159,370.102971,11547.212695,766.095498
556.997480,-1110.308913,14508.036463,459.657299
556.997801,-1554.432478,15100.201217,153.219100
556.998122,-1258.350101,14137.933492,0.000000
556.998443,-1110.308913,13175.665768,1072.533697
556.998764,-1184.329507,11917.315666,1532.190996
556.999084,-1702.473667,10881.027347,0.000000
556.999405,-740.205942,10436.903782,-383.047749
556.999726,74.020594,10066.800811,689.485948
557.000047,-222.061783,9030.512492,1072.533697
557.000368,666.185348,8364.327145,766.095498
557.000689,1850.514855,9400.615463,1685.410096
557.001010,2368.659014,11029.068536,2221.676944
557.001331,2812.782580,11547.212695,0.000000
557.001652,4367.215058,10807.006753,-1608.800546
557.001973,4515.256246,9548.656652,-2374.896044
557.002294,3849.070898,9918.759623,-2757.943793
557.002615,2664.741391,8586.388927,-2298.286494
557.002936,2072.576638,8512.368333,-2145.067394
557.003257,3182.885551,10658.965565,-383.047749
557.003577,2220.617826,12953.603985,0.000000
557.003898,962.267725,12805.562797,-919.314598
557.004219,666.185348,11769.274478,-1225.752797
557.004540,-962.267725,9992.780217,-1072.533697
557.004861,-2368.659014,8512.368333,153.219100
557.005181,-1554.432478,9178.553681,1302.362347
557.005502,-1702.473667,11473.192101,459.657299
557.005822,-2664.741391,13323.706956,-1149.143247
557.006143,-888.247130,14285.974681,-536.266849
557.006464,-2072.576638,13101.645173,0.000000
557.006784,-1406.391290,10658.965565,1685.410096
557.007105,-148.041188,10140.821405,3447.429741
557.007425,-1480.411884,10362.883188,2604.724693
557.007746,-370.102971,10955.047942,383.047749
557.008067,444.123565,10732.986159,0.000000
557.008387,666.185348,9844.739029,-229.828649
557.008708,3108.864956,7698.141797,612.876398
557.009029,2960.823768,7624.121203,842.705048
557.009349,3108.864956,8068.244768,-306.438199
557.009670,4071.132681,10732.986159,-1072.533697
557.009990,3330.926739,12065.356855,-1685.410096
557.010311,3627.009116,10955.047942,-2604.724693
557.010632,5477.523971,9474.636058,-1378.971896
557.010952,4145.153275,8882.471304,-995.924147
557.011273,2146.597232,8734.430116,-1455.581446
557.011594,1628.453072,9622.677246,-1455.581446
557.011914,0.000000,11473.192101,-1991.848295
557.012235,444.123565,11769.274478,-1302.362347
557.012555,518.144159,10732.986159,-766.095498
557.012876,-592.164754,10140.821405,-842.705048
557.013197,-1258.350101,11103.089130,0.000000
557.013517,-1554.432478,13249.686362,1838.629195
557.013838,-3552.988522,13989.892304,1378.971896
557.014158,-3182.885551,12583.501014,1455.581446
557.014479,-1776.494261,12361.439231,2451.505594
557.014800,-3404.947333,11621.233289,1991.848295
557.015120,-2220.617826,11843.295072,1455.581446
557.015441,-814.226536,12583.501014,1149.143247
557.015762,-1480.411884,10955.047942,229.828649
557.016082,370.102971,10510.924376,536.266849
557.016403,1776.494261,10955.047942,1149.143247
557.016723,-296.082377,11325.150913,383.047749
557.017044,1702.473667,10066.800811,306.438199
557.017365,2664.741391,7920.203579,0.000000
557.017685,3256.906145,7105.977043,-536.266849
557.018006,4811.338623,8438.347739,-229.828649
557.018327,4737.318029,10807.006753,-1378.971896
557.018647,3701.029710,10955.047942,-4060.306139
557.018968,4663.297435,9622.677246,-2528.115143
557.019288,3849.070898,8808.450710,-1915.238745
557.019609,4071.132681,8364.327145,-1685.410096
557.019930,4071.132681,10140.821405,-766.095498
557.020250,1036.288319,11251.130318,-2145.067394
557.020571,148.041188,10955.047942,-2145.067394
557.020891,148.041188,10066.800811,-1455.581446
557.021212,-1184.329507,10436.903782,-1762.019645
557.021533,-1998.556043,12065.356855,0.000000
557.021853,-1480.411884,13989.892304,2221.676944
557.022174,-4441.235652,13027.624579,1455.581446
557.022495,-4071.132681,11473.192101,689.485948
557.022815,-1110.308913,13249.686362,1608.800546
557.023136,-3330.926739,13767.830521,3064.381992
557.023456,-3849.070898,12953.603985,3830.477490
557.023777,-1258.350101,11991.336260,3447.429741
557.024098,-888.247130,10584.944971,1532.190996
557.024418,814.226536,8734.430116,1838.629195
557.024739,1924.535449,7328.038826,3140.991542
557.025060,1850.514855,7105.977043,1225.752797
557.025380,4219.173869,8364.327145,0.000000
557.025701,5477.523971,8512.368333,-766.095498
557.026021,7105.977043,7179.997637,-2528.115143
557.026342,9178.553681,6809.894666,-1225.752797
557.026663,9252.574275,7772.162391,-1149.143247
557.026983,9326.594869,7920.203579,-3600.648841
557.027304,9400.615463,7179.997637,-3753.867940
557.027624,8660.409521,6439.791695,-2145.067394
557.027945,8512.368333,7179.997637,-995.924147
557.028266,7550.100608,7254.018232,-689.485948
557.028586,6661.853478,8882.471304,-3447.429741
557.028907,5625.565159,9548.656652,-3830.477490
557.029228,4515.256246,8068.244768,-1915.238745
557.029548,3775.050304,7624.121203,689.485948
557.029869,1406.391290,5995.668130,2451.505594
557.030189,-666.185348,6957.935855,3064.381992
557.030510,666.185348,9178.553681,4136.915689
557.030831,370.102971,10584.944971,3064.381992
557.031151,1036.288319,10362.883188,1149.143247
557.031472,1628.453072,8068.244768,153.219100
557.031793,3034.844362,7254.018232,1225.752797
557.032113,4071.132681,8512.368333,3370.820191
557.032434,2960.823768,8290.306550,2221.676944
557.032754,4589.276840,6513.812290,-1302.362347
557.033075,6217.729913,5551.544565,-2451.505594
557.033396,6587.832884,6291.750507,-536.266849
557.033716,7994.224174,7920.203579,76.609550
557.034037,9622.677246,8512.368333,-1302.362347
557.034358,10140.821405,8808.450710,-3140.991542
557.034678,9326.594869,7846.182985,-3294.210641
557.034999,8216.285956,6957.935855,-3600.648841
557.035319,8586.388927,6513.812290,-2987.772442
557.035640,7846.182985,7994.224174,-1149.143247
557.035961,7254.018232,7476.080014,-2451.505594
557.036281,6957.935855,6365.771101,-3064.381992
557.036602,4663.297435,6365.771101,-1302.362347
557.036922,2960.823768,7994.224174,-1149.143247
557.037243,2812.782580,9474.636058,153.219100
557.037564,2368.659014,10436.903782,-459.657299
557.037884,4219.173869,12361.439231,-459.657299
557.038205,3330.926739,10881.027347,459.657299
557.038526,2368.659014,9548.656652,842.705048
557.038846,1776.494261,10658.965565,2451.505594
557.039167,2368.659014,12879.583391,2451.505594
557.039487,1258.350101,11917.315666,153.219100
557.039808,2960.823768,9400.615463,-536.266849
557.040129,3923.091493,8512.368333,536.266849
557.040449,4515.256246,8364.327145,2451.505594
557.040770,2664.741391,8512.368333,1225.752797
557.041091,2886.803174,7031.956449,306.438199
557.041411,5033.400406,6143.709319,1149.143247
557.041732,7179.997637,5699.585753,2221.676944
557.042052,7624.121203,5033.400406,689.485948
557.042373,7920.203579,6439.791695,-2298.286494
557.042694,7994.224174,10288.862594,-3524.039291
557.043014,9252.574275,12065.356855,-3524.039291
557.043335,9400.615463,7550.100608,-3217.601092
557.043655,10732.986159,6143.709319,-2298.286494
557.043976,10732.986159,7402.059420,-1378.971896
557.044297,4885.359217,8290.306550,-1915.238745
557.044617,4293.194464,6661.853478,-3753.867940
557.044938,5773.606348,6291.750507,-2987.772442
557.045259,5329.482782,6365.771101,1378.971896
557.045579,4515.256246,6883.915261,3983.696590
557.045900,2886.803174,8142.265362,4060.306139
557.046220,1702.473667,9326.594869,1072.533697
557.046541,1480.411884,7402.059420,0.000000
557.046862,2812.782580,4367.215058,0.000000
557.047182,4515.256246,4441.235652,2221.676944
557.047503,5995.668130,7624.121203,5286.058936
557.047824,4145.153275,9104.533087,3294.210641
557.048144,3034.844362,7772.162391,-1149.143247
557.048465,4589.276840,7772.162391,-2298.286494
557.048785,5847.626942,8290.306550,0.000000
557.049106,5329.482782,8808.450710,612.876398
557.049427,6883.915261,7698.141797,-1225.752797
557.049747,5773.606348,7179.997637,-3524.039291
557.050068,5477.523971,8216.285956,-2528.115143
557.050388,6069.688724,7402.059420,76.609550
557.050709,3701.029710,6217.729913,689.485948
557.051030,6883.915261,6957.935855,1302.362347
557.051350,7328.038826,8512.368333,2757.943793
557.051671,4367.215058,6217.729913,306.438199
557.051992,7624.121203,6143.709319,-1455.581446
557.052312,7920.203579,7846.182985,-689.485948
557.052633,4515.256246,8290.306550,-1608.800546
557.052953,5773.606348,7772.162391,-1378.971896
557.053274,5477.523971,7476.080014,-1608.800546
557.053595,4219.173869,8734.430116,-1378.971896
557.053915,3997.112087,9030.512492,1072.533697
557.054236,3775.050304,9696.697840,-383.047749
557.054557,2516.700203,10881.027347,-1915.238745
557.054877,2368.659014,10288.862594,-153.219100
557.055198,3701.029710,9548.656652,0.000000
557.055518,5329.482782,9326.594869,919.314598
557.055839,3775.050304,8512.368333,919.314598
557.056160,3108.864956,8734.430116,153.219100
557.056480,3775.050304,8586.388927,383.047749
557.056801,4737.318029,8808.450710,1838.629195
557.057121,4663.297435,7846.182985,1455.581446
557.057442,6365.771101,7402.059420,383.047749
557.057763,6143.709319,9326.594869,0.000000
557.058083,4145.153275,9548.656652,-2298.286494
557.058404,4811.338623,8660.409521,-3447.429741
557.058725,6957.935855,6957.935855,-1225.752797
557.059045,7105.977043,5995.668130,995.924147
557.059366,7105.977043,7624.121203,2145.067394
557.059686,5477.523971,8808.450710,-766.095498
557.060007,3034.844362,7624.121203,-4903.011187
557.060328,5773.606348,7031.956449,-2911.162892
557.060648,8068.244768,6809.894666,229.828649
557.060969,8364.327145,6587.832884,1762.019645
557.061290,7994.224174,7698.141797,766.095498
557.061610,5625.565159,8290.306550,-1072.533697
557.061931,3478.967927,7920.203579,-2221.676944
557.062251,5773.606348,7105.977043,0.000000
557.062572,5477.523971,7328.038826,689.485948
557.062893,5181.441594,7031.956449,-612.876398
557.063213,5995.668130,9030.512492,-995.924147
557.063534,4663.297435,10807.006753,-1455.581446
557.063854,888.247130,8364.327145,-1532.190996
557.064175,74.020594,5921.647536,229.828649
557.064496,3034.844362,7105.977043,2911.162892
557.064816,4219.173869,9548.656652,3907.087040
557.065137,3627.009116,10066.800811,2298.286494
557.065458,3923.091493,9918.759623,-1532.190996
557.065778,6809.894666,8808.450710,-2145.067394
557.066099,6217.729913,8512.368333,1685.410096
557.066419,5773.606348,6587.832884,2221.676944
557.066740,6957.935855,5699.585753,689.485948
557.067061,7994.224174,7179.997637,383.047749
557.067381,6143.709319,8142.265362,229.828649
557.067702,5181.441594,6143.709319,-2221.676944
557.068023,5847.626942,4885.359217,-2911.162892
557.068343,7476.080014,5625.565159,-919.314598
557.068664,7550.100608,7179.997637,919.314598
557.068984,7105.977043,7994.224174,383.047749
557.069305,6217.729913,6143.709319,-689.485948
557.069626,6587.832884,6957.935855,0.000000
557.069946,7698.141797,7328.038826,1302.362347
557.070267,6439.791695,5551.544565,-459.657299
557.070587,6513.812290,4441.235652,-2374.896044
557.070908,7550.100608,6883.915261,0.000000
557.071229,5625.565159,8142.265362,536.266849
557.071549,4219.173869,7031.956449,-1072.533697
557.071870,6439.791695,6069.688724,-2298.286494
557.072191,6365.771101,7105.977043,-2374.896044
557.072511,3775.050304,9030.512492,-459.657299
557.072832,3849.070898,10066.800811,-153.219100
557.073152,3034.844362,10584.944971,0.000000
557.073473,3034.844362,10732.986159,1455.581446
557.073794,4071.132681,11251.130318,2068.457845
557.074114,2368.659014,10066.800811,0.000000
557.074435,1628.453072,8882.471304,-1915.238745
557.074756,1850.514855,7846.182985,0.000000
557.075076,3775.050304,7031.956449,2604.724693
557.075397,3849.070898,6883.915261,3217.601092
557.075717,2738.761985,6957.935855,2145.067394
557.076038,3256.906145,7698.141797,-306.438199
557.076359,3256.906145,9326.594869,-153.219100
557.076679,5329.482782,11251.130318,-536.266849
557.077000,7476.080014,10288.862594,-1838.629195
557.077320,6883.915261,8660.409521,-3217.601092
557.077641,6439.791695,8068.244768,-3524.039291
557.077962,6291.750507,10510.924376,-1608.800546
557.078282,4663.297435,11103.089130,-842.705048
557.078603,4663.297435,10436.903782,-842.705048
557.078924,5551.544565,9474.636058,-1378.971896
557.079244,4885.359217,9400.615463,-1608.800546
557.079565,3775.050304,9030.512492,612.876398
557.079885,3849.070898,7550.100608,536.266849
557.080206,4737.318029,5921.647536,1302.362347
557.080527,3701.029710,4441.235652,2221.676944
557.080847,4219.173869,5625.565159,2145.067394
557.081168,3108.864956,6217.729913,536.266849
557.081489,3997.112087,9030.512492,0.000000
557.081809,5847.626942,10288.862594,0.000000
557.082130,5847.626942,8586.388927,-842.705048
557.082450,7254.018232,7254.018232,-1149.143247
557.082771,7698.141797,7105.977043,-612.876398
557.083092,3997.112087,9252.574275,-1302.362347
557.083412,3775.050304,9696.697840,-1072.533697
557.083733,5107.421000,8438.347739,-1225.752797
557.084053,5847.626942,7105.977043,-459.657299
557.084374,7402.059420,7846.182985,1149.143247
557.084695,5921.647536,7994.224174,2068.457845
557.085015,3404.947333,6365.771101,689.485948
557.085336,2368.659014,4737.318029,689.485948
557.085657,4145.153275,4811.338623,1915.238745
557.085977,4737.318029,5329.482782,995.924147
557.086298,5181.441594,6809.894666,0.000000
557.086618,6957.935855,7624.121203,-536.266849
557.086939,6661.853478,8882.471304,-2298.286494
557.087260,6217.729913,9474.636058,-2145.067394
557.087580,6291.750507,8586.388927,-1455.581446
557.087901,6513.812290,7846.182985,0.000000
557.088222,6217.729913,7920.203579,1455.581446
557.088542,6069.688724,9030.512492,536.266849
557.088863,5403.503377,8068.244768,-2528.115143
557.089183,5033.400406,9252.574275,-2987.772442
557.089504,5847.626942,10140.821405,0.000000
557.089825,5403.503377,7698.141797,1838.629195
557.090145,3404.947333,4293.194464,3294.210641
557.090466,3108.864956,4071.132681,2528.115143
557.090786,2368.659014,7031.956449,1838.629195
557.091107,2072.576638,9548.656652,612.876398
557.091428,4071.132681,9770.718434,-919.314598
557.091748,5107.421000,8808.450710,-1532.190996
557.092069,7179.997637,9474.636058,0.000000
557.092390,5847.626942,10510.924376,383.047749
557.092710,2812.782580,11103.089130,-1608.800546
557.093031,3552.988522,9770.718434,-2681.334243
557.093351,6217.729913,9252.574275,-1838.629195
557.093672,6143.709319,9104.533087,-919.314598
557.093993,6217.729913,10288.862594,306.438199
557.094313,4589.276840,10955.047942,995.924147
557.094634,1850.514855,8882.471304,766.095498
557.094955,2664.741391,6217.729913,1455.581446
557.095275,3701.029710,3404.947333,1072.533697
557.095596,4515.256246,5255.462188,-153.219100
557.095916,3997.112087,8290.306550,306.438199
557.096237,4589.276840,9770.718434,-919.314598
557.096558,5773.606348,9030.512492,-459.657299
557.096878,7105.977043,8438.347739,1762.019645
557.097199,5921.647536,9696.697840,1072.533697
557.097519,4071.132681,8956.491898,-1149.143247
557.097840,3478.967927,8512.368333,-3217.601092
557.098161,6217.729913,9178.553681,-2374.896044
557.098481,6883.915261,8216.285956,-1685.410096
557.098802,4071.132681,6661.853478,-1378.971896
557.099123,4145.153275,9474.636058,-306.438199
557.099443,2368.659014,10288.862594,76.609550
557.099764,1554.432478,8290.306550,459.657299
557.100084,4885.359217,5847.626942,612.876398
557.100405,5847.626942,7476.080014,536.266849
557.100726,4145.153275,9400.615463,306.438199
557.101046,3552.988522,7179.997637,459.657299
557.101367,4737.318029,6217.729913,153.219100
557.101688,5847.626942,6143.709319,76.609550
557.102008,5699.585753,8068.244768,383.047749
557.102329,6069.688724,8142.265362,-1455.581446
557.102649,5847.626942,9622.677246,-2221.676944
557.102970,6365.771101,9474.636058,766.095498
557.103291,8586.388927,7476.080014,919.314598
557.103611,6143.709319,7105.977043,459.657299
557.103932,3997.112087,7994.224174,-383.047749
557.104252,4441.235652,9844.739029,-1302.362347
557.104573,4515.256246,8438.347739,-689.485948
557.104894,4811.338623,7624.121203,-612.876398
557.105214,4219.173869,6883.915261,-306.438199
557.105535,2812.782580,7846.182985,-153.219100
557.105856,2664.741391,9178.553681,1378.971896
557.106176,4219.173869,9474.636058,1991.848295
557.106497,3552.988522,7254.018232,766.095498
557.106817,5181.441594,7179.997637,-536.266849
557.107137,4441.235652,6587.832884,153.219100
557.107458,5773.606348,8364.327145,229.828649
557.107778,7105.977043,8216.285956,995.924147
557.108099,7994.224174,7105.977043,-995.924147
557.108420,8068.244768,7920.203579,-1838.629195
557.108741,5181.441594,7624.121203,-1302.362347
557.109061,3997.112087,9252.574275,-842.705048
557.109382,5625.565159,10214.842000,-76.609550
557.109703,6291.750507,10066.800811,-459.657299
557.110023,5403.503377,8364.327145,-766.095498
557.110344,3997.112087,7179.997637,-1225.752797
557.110665,2220.617826,7254.018232,76.609550
557.110986,2072.576638,9030.512492,1762.019645
557.111306,2368.659014,8956.491898,2221.676944
557.111627,3478.967927,7846.182985,229.828649
557.111948,3923.091493,7179.997637,0.000000
557.112269,5699.585753,6957.935855,766.095498
557.112589,5255.462188,7624.121203,1072.533697
557.112910,4589.276840,6883.915261,76.609550
557.113231,3552.988522,6513.812290,153.219100
557.113552,5403.503377,7994.224174,-459.657299
557.113872,6735.874072,9696.697840,0.000000
557.114193,5551.544565,9844.739029,-2068.457845
557.114514,7772.162391,10140.821405,-4060.306139
557.114835,5329.482782,9400.615463,-4213.525239
557.115155,4219.173869,8808.450710,-2604.724693
557.115476,5773.606348,9326.594869,2221.676944
557.115797,4737.318029,8290.306550,3217.601092
557.116117,4071.132681,7920.203579,1915.238745
557.116438,3627.009116,8068.244768,383.047749
557.116759,3034.844362,7624.121203,-1762.019645
557.117080,4515.256246,7105.977043,-919.314598
557.117400,7476.080014,6957.935855,2604.724693
557.117721,7402.059420,6809.894666,2911.162892
557.118042,5107.421000,6513.812290,1915.238745
557.118363,3552.988522,6513.812290,-536.266849
557.118683,4441.235652,7846.182985,-1225.752797
557.119004,4737.318029,9474.636058,-459.657299
557.119325,6513.812290,9474.636058,-306.438199
557.119646,7031.956449,9104.533087,-2451.505594
557.119966,5847.626942,7920.203579,-2604.724693
557.120287,3775.050304,10066.800811,-1762.019645
557.120608,2294.638420,9992.780217,-842.705048
557.120929,4959.379811,8808.450710,76.609550
557.121249,4885.359217,7624.121203,919.314598
557.121570,4515.256246,6587.832884,1378.971896
557.121891,5847.626942,7179.997637,2528.115143
557.122211,5107.421000,7994.224174,1685.410096
557.122532,4219.173869,7105.977043,459.657299
557.122853,6291.750507,5477.523971,0.000000
557.123174,6735.874072,5921.647536,-842.705048
557.123494,6439.791695,6587.832884,-919.314598
557.123815,6439.791695,8142.265362,229.828649
557.124136,5255.462188,8734.430116,-842.705048
557.124457,5847.626942,8290.306550,-1762.019645
557.124777,6513.812290,7476.080014,-689.485948
557.125098,5625.565159,9326.594869,-995.924147
557.125419,3775.050304,10214.842000,-1072.533697
557.125740,3034.844362,9844.739029,-306.438199
557.126060,4367.215058,7920.203579,0.000000
557.126381,5107.421000,5921.647536,459.657299
557.126702,4293.194464,5107.421000,842.705048
557.127023,4441.235652,7920.203579,1532.190996
557.127343,3552.988522,10510.924376,766.095498
557.127664,2812.782580,9474.636058,0.000000
557.127985,6217.729913,6143.709319,0.000000
557.128305,6883.915261,6143.709319,383.047749
557.128626,6809.894666,7994.224174,0.000000
557.128947,3849.070898,9030.512492,-1685.410096
557.129268,4145.153275,9030.512492,-2145.067394
557.129588,4367.215058,6957.935855,-842.705048
557.129909,5255.462188,6809.894666,842.705048
557.130230,6069.688724,8586.388927,612.876398
557.130551,4515.256246,10955.047942,-1915.238745
557.130871,3701.029710,11399.171507,-3447.429741
557.131192,6439.791695,10288.862594,-1608.800546
557.131513,7105.977043,8290.306550,766.095498
557.131834,5033.400406,6587.832884,3064.381992
557.132154,4293.194464,8808.450710,3524.039291
557.132475,2886.803174,10732.986159,2451.505594
557.132796,2516.700203,9474.636058,-612.876398
557.133117,3404.947333,6735.874072,-2451.505594
557.133437,5033.400406,5847.626942,-1762.019645
557.133758,4367.215058,6439.791695,766.095498
557.134079,3997.112087,7031.956449,1225.752797
557.134399,3552.988522,8216.285956,0.000000
557.134720,4071.132681,8808.450710,-306.438199
557.135041,4663.297435,9104.533087,689.485948
557.135362,5033.400406,8512.368333,612.876398
557.135682,6217.729913,8956.491898,-383.047749
557.136003,6069.688724,7476.080014,-2145.067394
557.136324,7476.080014,6661.853478,-2757.943793
557.136645,7031.956449,6439.791695,-1915.238745
557.136965,6883.915261,6957.935855,459.657299
557.137286,7254.018232,8216.285956,1532.190996
557.137607,6809.894666,7846.182985,536.266849
557.137928,7920.203579,8660.409521,-536.266849
557.138248,6957.935855,6661.853478,-689.485948
557.138569,6365.771101,6809.894666,-1915.238745
557.138890,5847.626942,5107.421000,-1455.581446
557.139211,3849.070898,5329.482782,0.000000
557.139531,5477.523971,7105.977043,919.314598
557.139852,5699.585753,7994.224174,689.485948
557.140173,3330.926739,7846.182985,0.000000
557.140493,4663.297435,8956.491898,-689.485948
557.140814,5107.421000,10066.800811,919.314598
557.141135,3627.009116,8586.388927,995.924147
557.141456,5181.441594,8512.368333,689.485948
557.141776,5699.585753,8068.244768,612.876398
557.142097,3256.906145,9548.656652,-689.485948
557.142418,2960.823768,9770.718434,-153.219100
557.142739,4589.276840,9844.739029,0.000000
557.143059,4959.379811,8512.368333,-76.609550
557.143380,5625.565159,7402.059420,536.266849
557.143701,5847.626942,8660.409521,306.438199
557.144022,3034.844362,9844.739029,-383.047749
557.144342,1036.288319,8438.347739,536.266849
557.144663,3997.112087,7476.080014,1225.752797
557.144984,5921.647536,6143.709319,1072.533697
557.145305,4737.318029,5477.523971,612.876398
557.145625,5107.421000,9104.533087,-1762.019645
557.145946,5107.421000,10807.006753,-1762.019645
557.146267,5033.400406,10436.903782,-689.485948
557.146587,6365.771101,8734.430116,842.705048
557.146908,7402.059420,6957.935855,-76.609550
557.147229,6735.874072,8734.430116,-306.438199
557.147550,4959.379811,9178.553681,-842.705048
557.147870,3849.070898,7772.162391,-2681.334243
557.148191,6217.729913,6439.791695,-2834.553343
557.148512,7031.956449,5477.523971,-306.438199
557.148833,5699.585753,6143.709319,383.047749
557.149153,4441.235652,8216.285956,-306.438199
557.149474,3330.926739,9326.594869,-1149.143247
557.149795,4071.132681,7920.203579,-1225.752797
557.150116,3997.112087,5699.585753,995.924147
557.150436,6587.832884,6513.812290,1532.190996
557.150757,4885.359217,7846.182985,229.828649
557.151078,3849.070898,9474.636058,-383.047749
557.151399,4515.256246,10807.006753,-1532.190996
557.151719,4145.153275,8734.430116,-1532.190996
557.152040,5033.400406,7994.224174,-612.876398
557.152361,6439.791695,7772.162391,-306.438199
557.152681,4811.338623,8068.244768,-919.314598
557.153002,5181.441594,8364.327145,-1225.752797
557.153323,6365.771101,7698.141797,-766.095498
557.153644,4663.297435,6217.729913,0.000000
557.153964,4441.235652,7105.977043,459.657299
557.154285,5477.523971,8512.368333,1149.143247
557.154606,5181.441594,9030.512492,0.000000
557.154927,5477.523971,9104.533087,-919.314598
557.155247,7254.018232,7105.977043,-919.314598
557.155568,7105.977043,7624.121203,153.219100
557.155889,5625.565159,8364.327145,689.485948
557.156210,4071.132681,9474.636058,306.438199
557.156530,4663.297435,10658.965565,-536.266849
557.156851,5625.565159,10436.903782,-1378.971896
557.157172,4589.276840,8438.347739,-1072.533697
557.157493,4959.379811,6291.750507,-1685.410096
557.157813,4367.215058,7179.997637,-1762.019645
557.158134,2442.679609,8290.306550,0.000000
557.158455,1628.453072,8512.368333,689.485948
557.158775,4441.235652,8438.347739,919.314598
557.159096,4515.256246,8142.265362,842.705048
557.159417,4515.256246,8068.244768,1072.533697
557.159738,4293.194464,9104.533087,153.219100
557.160058,5477.523971,8882.471304,0.000000
557.160379,4885.359217,8216.285956,919.314598
557.160700,5625.565159,7550.100608,1072.533697
557.161021,5699.585753,7772.162391,-229.828649
557.161341,3478.967927,9474.636058,-1915.238745
557.161662,4145.153275,10584.944971,-2451.505594
557.161983,3701.029710,8364.327145,-2528.115143
557.162304,4959.379811,6883.915261,-1149.143247
557.162624,6513.812290,7994.224174,1685.410096
557.162945,3256.906145,8956.491898,1378.971896
557.163266,1776.494261,8734.430116,-536.266849
557.163587,3404.947333,7254.018232,-612.876398
557.163907,4959.379811,5773.606348,306.438199
557.164228,5847.626942,5181.441594,1685.410096
557.164549,6957.935855,5699.585753,919.314598
557.164869,7476.080014,8068.244768,-536.266849
557.165190,7105.977043,8734.430116,-919.314598
557.165511,6365.771101,7698.141797,-919.314598
557.165832,7254.018232,5995.668130,-1149.143247
557.166152,8068.244768,6809.894666,-766.095498
557.166473,7624.121203,8068.244768,-689.485948
557.166794,6143.709319,8808.450710,-2451.505594
557.167115,7476.080014,7476.080014,-3447.429741
557.167435,6439.791695,7698.141797,-2451.505594
557.167756,3256.906145,7920.203579,-383.047749
557.168077,3256.906145,9104.533087,842.705048
557.168398,4663.297435,10140.821405,1608.800546
557.168718,3404.947333,9326.594869,919.314598
557.169039,4663.297435,7550.100608,1072.533697
557.169360,4811.338623,6513.812290,1225.752797
557.169681,3182.885551,7772.162391,919.314598
557.170001,2886.803174,9622.677246,2374.896044
557.170322,3330.926739,9992.780217,919.314598
557.170643,4515.256246,9104.533087,-612.876398
557.170963,4737.318029,9030.512492,-612.876398
557.171284,3108.864956,8438.347739,-1149.143247
557.171605,3478.967927,8808.450710,-2528.115143
557.171926,3404.947333,9622.677246,-1762.019645
557.172246,3552.988522,10584.944971,-459.657299
557.172567,3627.009116,10214.842000,919.314598
557.172888,4145.153275,9104.533087,1072.533697
557.173209,3775.050304,9474.636058,459.657299
557.173529,3330.926739,8290.306550,689.485948
557.173850,4737.318029,7624.121203,-459.657299
557.174171,6217.729913,5995.668130,306.438199
557.174492,5625.565159,6069.688724,842.705048
557.174812,6365.771101,7920.203579,1302.362347
557.175133,6217.729913,9252.574275,536.266849
557.175454,5921.647536,8142.265362,-1608.800546
557.175775,6957.935855,6883.915261,-2604.724693
557.176095,6513.812290,5255.462188,-2068.457845
557.176416,6291.750507,4737.318029,-459.657299
557.176737,6143.709319,7254.018232,0.000000
557.177057,4219.173869,8364.327145,-1455.581446
557.177378,3478.967927,8364.327145,-2757.943793
557.177699,5329.482782,7994.224174,-1838.629195
557.178020,6291.750507,9400.615463,0.000000
557.178340,5921.647536,8586.388927,842.705048
557.178661,5551.544565,7624.121203,536.266849
557.178982,5699.585753,7846.182985,229.828649
557.179303,2812.782580,7105.977043,536.266849
557.179623,2812.782580,7772.162391,766.095498
557.179944,4441.235652,8808.450710,689.485948
557.180265,3775.050304,9992.780217,306.438199
557.180586,2738.761985,8956.491898,306.438199
557.180906,5107.421000,7254.018232,-689.485948
557.181227,3775.050304,6217.729913,0.000000
557.181548,1998.556043,6291.750507,459.657299
557.181869,1628.453072,6513.812290,766.095498
557.182189,4145.153275,9178.553681,-689.485948
557.182510,5773.606348,10807.006753,153.219100
557.182831,7550.100608,10955.047942,0.000000
557.183152,8660.409521,9326.594869,-1608.800546
557.183472,7105.977043,7772.162391,-1225.752797
557.183793,6143.709319,6883.915261,536.266849
557.184114,7698.141797,5847.626942,1608.800546
557.184434,7994.224174,5477.523971,0.000000
557.184755,7402.059420,6883.915261,-1072.533697
557.185076,7254.018232,9104.533087,-2221.676944
557.185397,5773.606348,7772.162391,-2298.286494
557.185717,5995.668130,6587.832884,-1608.800546
557.186038,6957.935855,5699.585753,-153.219100
557.186359,4441.235652,6365.771101,-842.705048
557.186680,1258.350101,7105.977043,-919.314598
557.187000,2072.576638,8734.430116,-1302.362347
557.187321,3849.070898,11177.109724,383.047749
557.187642,2886.803174,11917.315666,1072.533697
557.187963,3849.070898,11251.130318,919.314598
557.188283,3182.885551,10881.027347,842.705048
557.188604,2368.659014,10584.944971,1685.410096
557.188925,1406.391290,8438.347739,2374.896044
557.189246,3923.091493,6143.709319,1455.581446
557.189566,4589.276840,6217.729913,0.000000
557.189887,3256.906145,6809.894666,-76.609550
557.190208,4367.215058,6809.894666,0.000000
557.190528,5625.565159,7179.997637,-919.314598
557.190849,4663.297435,6439.791695,-919.314598
557.191170,5181.441594,7328.038826,-383.047749
557.191491,5625.565159,7920.203579,-689.485948
557.191811,6513.812290,9252.574275,-919.314598
557.192132,7772.162391,10807.006753,306.438199
557.192453,6291.750507,11029.068536,-1302.362347
557.192774,6513.812290,10214.842000,-2528.115143
557.193094,6365.771101,7624.121203,-612.876398
557.193415,3478.967927,5625.565159,383.047749
557.193736,5107.421000,5551.544565,1608.800546
557.194057,5181.441594,6143.709319,2604.724693
557.194377,4663.297435,7476.080014,383.047749
557.194698,3997.112087,6957.935855,-1532.190996
557.195019,4885.359217,6883.915261,-2834.553343
557.195340,4737.318029,6069.688724,-1378.971896
557.195660,5551.544565,6661.853478,306.438199
557.195981,4737.318029,6365.771101,1455.581446
557.196302,4441.235652,9178.553681,919.314598
557.196622,4737.318029,11769.274478,459.657299
557.196943,4959.379811,12213.398043,-459.657299
557.197264,5625.565159,10881.027347,-1225.752797
557.197585,5995.668130,8808.450710,-1072.533697
557.197905,5477.523971,7550.100608,-229.828649
557.198226,4663.297435,5551.544565,1838.629195
557.198547,3627.009116,6217.729913,1608.800546
557.198868,3552.988522,6365.771101,0.000000
557.199188,3478.967927,7328.038826,-306.438199
557.199509,5477.523971,6809.894666,-536.266849
557.199830,5107.421000,5847.626942,-919.314598
557.200151,5329.482782,5329.482782,-153.219100
557.200471,7328.038826,5921.647536,76.609550
557.200792,5847.626942,7698.141797,-383.047749
557.201113,4589.276840,7698.141797,-1455.581446
557.201434,5921.647536,9104.533087,-1915.238745
557.201754,6661.853478,11399.171507,-612.876398
557.202075,6883.915261,12065.356855,153.219100
557.202396,6735.874072,9696.697840,76.609550
557.202716,6217.729913,7698.141797,-1685.410096
557.203037,4737.318029,6957.935855,-1302.362347
557.203358,3701.029710,6883.915261,612.876398
557.203679,3330.926739,6217.729913,612.876398
557.203999,4959.379811,7402.059420,612.876398
557.204320,4145.153275,7772.162391,459.657299
557.204641,3552.988522,7624.121203,-612.876398
557.204962,3627.009116,7328.038826,-306.438199
557.205282,3701.029710,7476.080014,536.266849
557.205603,3478.967927,8808.450710,919.314598
557.205924,4885.359217,9104.533087,1455.581446
557.206245,5033.400406,10807.006753,612.876398
557.206565,5995.668130,11325.150913,229.828649
557.206886,6587.832884,11029.068536,0.000000
557.207207,7105.977043,9474.636058,-536.266849
557.207527,7105.977043,7994.224174,-612.876398
557.207848,6957.935855,6957.935855,612.876398
557.208169,5847.626942,6513.812290,536.266849
557.208489,5033.400406,6513.812290,0.000000
557.208810,5551.544565,8142.265362,-383.047749
557.209131,6143.709319,7328.038826,0.000000
557.209452,5181.441594,4589.276840,-383.047749
557.209772,5255.462188,3849.070898,-689.485948
557.210093,4219.173869,7105.977043,153.219100
557.210414,4219.173869,9548.656652,306.438199
557.210734,3849.070898,9104.533087,-1225.752797
557.211055,7994.224174,8808.450710,-1455.581446
557.211376,8290.306550,10658.965565,0.000000
557.211696,6143.709319,10436.903782,-995.924147
557.212017,4885.359217,7994.224174,-1608.800546
557.212338,5181.441594,7402.059420,612.876398
557.212659,4737.318029,7328.038826,1608.800546
557.212979,4293.194464,6809.894666,842.705048
557.213300,5033.400406,7994.224174,-842.705048
557.213621,2442.679609,9252.574275,-1532.190996
557.213941,1406.391290,9326.594869,229.828649
557.214262,2590.720797,6439.791695,2145.067394
557.214583,4293.194464,5329.482782,2068.457845
557.214903,1628.453072,5625.565159,2451.505594
557.215224,2072.576638,8216.285956,1838.629195
557.215545,2738.761985,10288.862594,306.438199
557.215866,4071.132681,10732.986159,-995.924147
557.216186,7031.956449,10658.965565,-383.047749
557.216507,8364.327145,7476.080014,-1072.533697
557.216828,7105.977043,7031.956449,-1455.581446
557.217148,5773.606348,7402.059420,-306.438199
557.217469,5329.482782,6735.874072,-1072.533697
557.217790,6809.894666,6587.832884,-1838.629195
557.218110,7994.224174,6513.812290,-2604.724693
557.218431,8216.285956,7624.121203,-1685.410096
557.218752,7550.100608,8216.285956,-612.876398
557.219073,7031.956449,7254.018232,-766.095498
557.219393,6439.791695,5551.544565,0.000000
557.219714,5181.441594,6365.771101,76.609550
557.220035,5477.523971,7772.162391,842.705048
557.220355,5329.482782,9104.533087,766.095498
557.220676,5773.606348,9770.718434,229.828649
557.220997,5921.647536,9844.739029,0.000000
557.221317,4145.153275,8734.430116,-153.219100
557.221638,3478.967927,8142.265362,-612.876398
557.221959,2738.761985,8142.265362,-536.266849
557.222280,3627.009116,7698.141797,0.000000
557.222600,4071.132681,8882.471304,536.266849
557.222921,4071.132681,8956.491898,995.924147
557.223242,3404.947333,7846.182985,0.000000
557.223562,3775.050304,8142.265362,0.000000
557.223883,5699.585753,8734.430116,689.485948
557.224204,4589.276840,7624.121203,76.609550
557.224524,5329.482782,6661.853478,-995.924147
557.224845,6809.894666,9030.512492,-995.924147
557.225166,6439.791695,10732.986159,76.609550
557.225487,5477.523971,9992.780217,919.314598
557.225807,9474.636058,8290.306550,383.047749
557.226128,7624.121203,7105.977043,-153.219100
557.226449,3923.091493,6143.709319,-1762.019645
557.226769,3775.050304,5181.441594,-1762.019645
557.227090,5403.503377,6365.771101,-842.705048
557.227411,5403.503377,7698.141797,-383.047749
557.227731,4959.379811,8956.491898,76.609550
557.228052,4589.276840,7550.100608,-2834.553343
557.228373,3108.864956,7179.997637,-2604.724693
557.228694,2812.782580,8734.430116,995.924147
557.229014,3997.112087,8882.471304,1455.581446
557.229335,5255.462188,9400.615463,459.657299
557.229656,4293.194464,8956.491898,-689.485948
557.229976,4589.276840,9918.759623,-766.095498
557.230297,5329.482782,10732.986159,1149.143247
557.230618,5551.544565,9992.780217,459.657299
557.230938,4219.173869,8586.388927,-229.828649
557.231259,4441.235652,6513.812290,0.000000
557.231580,5403.503377,6143.709319,1455.581446
557.231900,4589.276840,6735.874072,3600.648841
557.232221,4589.276840,7698.141797,1455.581446
557.232542,3923.091493,8142.265362,-1378.971896
557.232863,4293.194464,6957.935855,-2757.943793
557.233183,5403.503377,6957.935855,153.219100
557.233504,7179.997637,6809.894666,2374.896044
557.233825,7179.997637,7698.141797,2068.457845
557.234145,5181.441594,8660.409521,-459.657299
557.234466,3627.009116,7402.059420,-2068.457845
557.234787,7920.203579,8364.327145,-689.485948
557.235107,8364.327145,8438.347739,-229.828649
557.235428,6513.812290,7550.100608,-459.657299
557.235749,8364.327145,7476.080014,-1532.190996
557.236070,5329.482782,7179.997637,-1915.238745
557.236390,4885.359217,7402.059420,-1302.362347
557.236711,6661.853478,7105.977043,536.266849
557.237032,5255.462188,7402.059420,76.609550
557.237352,3330.926739,6661.853478,153.219100
557.237673,3775.050304,6809.894666,1608.800546
557.237994,3034.844362,7402.059420,306.438199
557.238314,3034.844362,8290.306550,-842.705048
557.238635,3404.947333,9104.533087,-306.438199
557.238956,4145.153275,9844.739029,-1149.143247
557.239277,4737.318029,10288.862594,0.000000
557.239597,3775.050304,9326.594869,536.266849
557.239918,4663.297435,9548.656652,-459.657299
557.240239,4589.276840,9326.594869,459.657299
557.240559,3923.091493,7254.018232,1302.362347
557.240880,4219.173869,6513.812290,306.438199
557.241201,5699.585753,6069.688724,-1532.190996
557.241521,4737.318029,7846.182985,-1685.410096
557.241842,3478.967927,9178.553681,-842.705048
557.242163,4959.379811,9918.759623,-689.485948
557.242484,5403.503377,8216.285956,-536.266849
557.242804,6365.771101,7254.018232,-536.266849
557.243125,6513.812290,8586.388927,612.876398
557.243446,4811.338623,10658.965565,842.705048
557.243766,4441.235652,10658.965565,-153.219100
557.244087,5551.544565,8808.450710,536.266849
557.244408,6439.791695,6735.874072,-995.924147
557.244728,7254.018232,6069.688724,0.000000
557.245049,5329.482782,6735.874072,-383.047749
557.245370,3627.009116,7476.080014,-2528.115143
557.245691,3256.906145,7846.182985,-1608.800546
557.246011,5699.585753,8512.368333,689.485948
557.246332,5995.668130,8142.265362,1685.410096
557.246653,4145.153275,8734.430116,842.705048
557.246973,2146.597232,7920.203579,-1532.190996
557.247294,3108.864956,7846.182985,-1838.629195
557.247615,4441.235652,8734.430116,842.705048
557.247935,5181.441594,8586.388927,919.314598
557.248256,5847.626942,8142.265362,612.876398
557.248577,6217.729913,10140.821405,-766.095498
557.248898,4293.194464,11769.274478,229.828649
557.249218,3775.050304,9696.697840,383.047749
557.249539,6587.832884,7624.121203,-76.609550
557.249860,5773.606348,7179.997637,-612.876398
557.250180,4441.235652,5921.647536,612.876398
557.250501,5477.523971,7254.018232,766.095498
557.250822,4219.173869,7994.224174,-842.705048
557.251142,3404.947333,8808.450710,-1455.581446
557.251463,4737.318029,7328.038826,-153.219100
557.251784,5477.523971,5181.441594,76.609550
557.252105,4589.276840,6217.729913,689.485948
557.252425,4811.338623,7698.141797,1302.362347
557.252746,4737.318029,9622.677246,-1302.362347
557.253067,4441.235652,9622.677246,-1225.752797
557.253387,6217.729913,10214.842000,229.828649
557.253708,6587.832884,10807.006753,766.095498
557.254029,6513.812290,9696.697840,-229.828649
557.254349,4293.194464,8956.491898,-306.438199
557.254670,3701.029710,8142.265362,612.876398
557.254991,2146.597232,6513.812290,842.705048
557.255312,4589.276840,6661.853478,1915.238745
557.255632,4959.379811,7105.977043,2451.505594
557.255953,2886.803174,7698.141797,76.609550
557.256274,2146.597232,7105.977043,-2298.286494
557.256594,3108.864956,7105.977043,-1915.238745
557.256915,5255.462188,9326.594869,-766.095498
557.257236,4441.235652,8956.491898,153.219100
557.257556,6809.894666,8808.450710,76.609550
557.257877,4145.153275,8956.491898,-766.095498
557.258198,4663.297435,9992.780217,-612.876398
557.258519,6069.688724,8882.471304,766.095498
557.258839,7624.121203,8068.244768,536.266849
557.259160,6439.791695,8068.244768,-76.609550
557.259481,5551.544565,7328.038826,0.000000
557.259801,5181.441594,6291.750507,-1149.143247
557.260122,5773.606348,5477.523971,612.876398
557.260443,5255.462188,6735.874072,612.876398
557.260763,5403.503377,6143.709319,-766.095498
557.261084,5107.421000,5847.626942,-1608.800546
557.261405,4219.173869,5403.503377,-1302.362347
557.261726,5847.626942,7031.956449,-536.266849
557.262046,5033.400406,9030.512492,0.000000
557.262367,5181.441594,11325.150913,-995.924147
557.262688,5477.523971,11473.192101,-2604.724693
557.263008,6291.750507,10066.800811,-1915.238745
557.263329,7698.141797,8660.409521,-383.047749
557.263650,5329.482782,8216.285956,383.047749
557.263970,3404.947333,7846.182985,-1378.971896
557.264291,4071.132681,7179.997637,-1991.848295
557.264612,3775.050304,7698.141797,-1455.581446
557.264933,4515.256246,9030.512492,536.266849
557.265253,5107.421000,8586.388927,1838.629195
557.265574,2812.782580,7254.018232,0.000000
557.265895,2812.782580,7698.141797,-383.047749
557.266215,3478.967927,8142.265362,0.000000
557.266536,3627.009116,8142.265362,-1149.143247
557.266857,4441.235652,8956.491898,-612.876398
557.267177,4589.276840,11103.089130,306.438199
557.267498,5033.400406,13841.851115,-306.438199
557.267819,4959.379811,12583.501014,0.000000
557.268140,5699.585753,11769.274478,0.000000
557.268460,4959.379811,10214.842000,-153.219100
557.268781,3552.988522,6735.874072,76.609550
557.269102,4071.132681,5477.523971,1378.971896
557.269422,4071.132681,5329.482782,229.828649
557.269743,2886.803174,6365.771101,76.609550
557.270064,4737.318029,7994.224174,0.000000
557.270384,5403.503377,8882.471304,-1685.410096
557.270705,3552.988522,7328.038826,-1072.533697
557.271026,7031.956449,5477.523971,0.000000
557.271347,7624.121203,5773.606348,153.219100
557.271667,5847.626942,7105.977043,-612.876398
557.271988,6439.791695,8512.368333,229.828649
557.272309,8068.244768,8438.347739,-306.438199
557.272629,7772.162391,8438.347739,-1762.019645
557.272950,7994.224174,7994.224174,-459.657299
557.273271,7550.100608,8512.368333,-689.485948
557.273591,7179.997637,9474.636058,-1225.752797
557.273912,4071.132681,7624.121203,459.657299
557.274233,3997.112087,5921.647536,919.314598
557.274553,4293.194464,5773.606348,689.485948
557.274874,740.205942,5329.482782,1302.362347
557.275195,148.041188,6513.812290,76.609550
557.275516,2738.761985,8068.244768,76.609550
557.275836,2812.782580,8734.430116,766.095498
557.276157,2368.659014,8216.285956,995.924147
557.276478,3256.906145,7698.141797,919.314598
557.276798,3849.070898,10510.924376,536.266849
557.277119,3404.947333,11177.109724,536.266849
557.277440,4737.318029,9474.636058,-306.438199
557.277760,8512.368333,7624.121203,-1608.800546
557.278081,7698.141797,7698.141797,-1225.752797
557.278402,5847.626942,8290.306550,76.609550
557.278723,5921.647536,8512.368333,-306.438199
557.279043,7328.038826,7624.121203,-766.095498
557.279364,6735.874072,6587.832884,-612.876398
557.279685,6069.688724,5773.606348,-689.485948
557.280005,5329.482782,4441.235652,-1302.362347
557.280326,4367.215058,7179.997637,0.000000
557.280647,4219.173869,8734.430116,1149.143247
557.280967,5995.668130,9252.574275,766.095498
557.281288,7624.121203,9474.636058,229.828649
557.281609,5699.585753,9696.697840,-536.266849
557.281930,3849.070898,9474.636058,-1302.362347
557.282250,4219.173869,7550.100608,-689.485948
557.282571,4515.256246,6809.894666,76.609550
557.282892,5181.441594,7254.018232,689.485948
557.283212,5181.441594,7846.182985,0.000000
557.283533,5255.462188,10436.903782,-1225.752797
557.283854,3701.029710,11029.068536,-1455.581446
557.284174,1998.556043,9030.512492,-919.314598
557.284495,3256.906145,7698.141797,-76.609550
557.284816,5699.585753,9326.594869,689.485948
557.285137,2368.659014,9696.697840,536.266849
557.285457,3182.885551,8734.430116,153.219100
557.285778,3923.091493,9474.636058,-153.219100
557.286099,2146.597232,9474.636058,0.000000
557.286419,2812.782580,7624.121203,1302.362347
557.286740,6069.688724,6217.729913,1378.971896
557.287061,6809.894666,6957.935855,459.657299
557.287381,6513.812290,8512.368333,995.924147
557.287702,6365.771101,7772.162391,-383.047749
557.288023,6291.750507,8512.368333,-3677.258390
557.288344,5847.626942,8216.285956,-1455.581446
557.288664,7328.038826,7624.121203,383.047749
557.288985,7994.224174,7105.977043,-995.924147
557.289306,5329.482782,6069.688724,-2911.162892
557.289626,3849.070898,6735.874072,-2834.553343
557.289947,5551.544565,8512.368333,-1991.848295
557.290268,4885.359217,9622.677246,0.000000
557.290588,4885.359217,9104.533087,1072.533697
557.290909,5403.503377,7772.162391,1378.971896
557.291230,5329.482782,6809.894666,1072.533697
557.291551,3849.070898,6957.935855,1225.752797
557.291871,5477.523971,7254.018232,689.485948
557.292192,5625.565159,7179.997637,-995.924147
557.292513,5403.503377,7402.059420,-689.485948
557.292833,6365.771101,7920.203579,842.705048
557.293154,5625.565159,7994.224174,1455.581446
557.293475,3701.029710,6957.935855,306.438199
557.293795,3923.091493,6735.874072,-1378.971896
557.294116,5033.400406,6735.874072,-1225.752797
557.294437,5551.544565,7402.059420,-229.828649
557.294758,5329.482782,7920.203579,383.047749
557.295078,5255.462188,7920.203579,-459.657299
557.295399,5329.482782,8512.368333,-689.485948
557.295720,6069.688724,9178.553681,306.438199
557.296040,4959.379811,7698.141797,153.219100
557.296361,5477.523971,7772.162391,0.000000
557.296682,6735.874072,7402.059420,842.705048
557.297002,6217.729913,7994.224174,689.485948
557.297323,6069.688724,8512.368333,689.485948
557.297644,5107.421000,8142.265362,-229.828649
557.297965,4663.297435,8142.265362,-1302.362347
557.298285,5033.400406,8512.368333,-919.314598
557.298606,3775.050304,7920.203579,-229.828649
557.298927,4145.153275,5551.544565,0.000000
557.299247,5625.565159,5477.523971,-842.705048
557.299568,2590.720797,7846.182985,-1302.362347
557.299889,1702.473667,9104.533087,-1685.410096
557.300209,4515.256246,10955.047942,0.000000
557.300530,6069.688724,11547.212695,689.485948
557.300851,4663.297435,9104.533087,919.314598
557.301172,5033.400406,8438.347739,1072.533697
557.301492,4293.194464,8660.409521,-153.219100
557.301813,3108.864956,9030.512492,612.876398
557.302134,3923.091493,8290.306550,0.000000
557.302454,5921.647536,9178.553681,-1685.410096
557.302775,5107.421000,9104.533087,-1149.143247
557.303096,2442.679609,7920.203579,919.314598
557.303416,4293.194464,8216.285956,1225.752797
557.303737,3701.029710,8808.450710,229.828649
557.304058,3034.844362,9696.697840,689.485948
557.304379,3330.926739,7772.162391,-306.438199
557.304699,4219.173869,7328.038826,-689.485948
557.305020,5699.585753,8586.388927,459.657299
557.305341,4737.318029,7920.203579,612.876398
557.305661,4811.338623,7550.100608,-1915.238745
557.305982,6809.894666,7994.224174,-1149.143247
557.306303,6439.791695,8586.388927,612.876398
557.306623,7624.121203,7994.224174,842.705048
557.306944,7550.100608,7994.224174,0.000000
557.307265,6069.688724,8438.347739,-2068.457845
557.307586,6143.709319,7476.080014,-1838.629195
557.307906,7105.977043,5847.626942,-383.047749
557.308227,8364.327145,4737.318029,0.000000
557.308548,7550.100608,5477.523971,612.876398
557.308868,6439.791695,7179.997637,459.657299
557.309189,5181.441594,7846.182985,-1378.971896
557.309510,5403.503377,7402.059420,-306.438199
557.309830,6809.894666,6143.709319,1149.143247
557.310151,7402.059420,5847.626942,1532.190996
557.310472,5403.503377,6365.771101,76.609550
557.310792,4885.359217,7402.059420,-612.876398
557.311113,4367.215058,8364.327145,-1072.533697
557.311433,4589.276840,8290.306550,0.000000
557.311754,5403.503377,10362.883188,536.266849
557.312075,5107.421000,10288.862594,306.438199
557.312395,3701.029710,7772.162391,-1072.533697
557.312716,5329.482782,6735.874072,-1455.581446
557.313037,3775.050304,6809.894666,-1608.800546
557.313357,3034.844362,7624.121203,-1225.752797
557.313678,4367.215058,9030.512492,383.047749
557.313999,4811.338623,9474.636058,842.705048
557.314319,5107.421000,9104.533087,459.657299
557.314640,4811.338623,9178.553681,76.609550
557.314961,3330.926739,8512.368333,-1072.533697
557.315281,3256.906145,8512.368333,-229.828649
557.315602,4145.153275,8586.388927,1455.581446
557.315923,5995.668130,8882.471304,536.266849
557.316243,5329.482782,9622.677246,1149.143247
557.316564,3627.009116,9622.677246,612.876398
557.316885,4219.173869,9844.739029,-1072.533697
557.317205,4515.256246,8512.368333,-229.828649
557.317526,5255.462188,7328.038826,-1149.143247
557.317846,5847.626942,6365.771101,-612.876398
557.318167,4959.379811,7031.956449,-383.047749
557.318488,4219.173869,8438.347739,-153.219100
557.318808,4219.173869,9178.553681,306.438199
557.319129,5033.400406,8956.491898,-536.266849
557.319450,6365.771101,9252.574275,-536.266849
557.319770,4885.359217,8734.430116,-383.047749
557.320091,5255.462188,8216.285956,0.000000
557.320412,4811.338623,9104.533087,919.314598
557.320732,3404.947333,8290.306550,383.047749
557.321053,3849.070898,8512.368333,-536.266849
557.321374,4959.379811,9030.512492,76.609550
557.321694,4663.297435,9474.636058,-306.438199
557.322015,4293.194464,8142.265362,383.047749
557.322336,5255.462188,7550.100608,0.000000
557.322656,4367.215058,7550.100608,-612.876398
557.322977,3108.864956,6883.915261,153.219100
557.323297,5329.482782,6883.915261,1149.143247
557.323618,4811.338623,6587.832884,612.876398
557.323939,5255.462188,5625.565159,229.828649
557.324259,7846.182985,6365.771101,306.438199
557.324580,7031.956449,6069.688724,-1378.971896
557.324901,6365.771101,6661.853478,-1378.971896
557.325221,7624.121203,7550.100608,76.609550
557.325542,7476.080014,8216.285956,-229.828649
557.325863,6439.791695,8512.368333,459.657299
557.326183,7328.038826,8882.471304,153.219100
557.326504,7105.977043,7328.038826,-2528.115143
557.326825,5329.482782,6735.874072,-2757.943793
557.327145,4885.359217,6143.709319,-919.314598
557.327466,6069.688724,7105.977043,689.485948
557.327787,5551.544565,6957.935855,1302.362347
557.328107,3997.112087,7179.997637,-383.047749
557.328428,3997.112087,6883.915261,-1532.190996
557.328748,5033.400406,7550.100608,-229.828649
557.329069,4219.173869,8290.306550,1378.971896
557.329390,4959.379811,7920.203579,995.924147
557.329710,5847.626942,8364.327145,-306.438199
557.330031,4071.132681,10214.842000,0.000000
557.330352,2516.700203,10066.800811,-536.266849
557.330672,3997.112087,9548.656652,612.876398
557.330993,4367.215058,9844.739029,229.828649
557.331314,4663.297435,9622.677246,612.876398
557.331634,4959.379811,8808.450710,0.000000
557.331955,4515.256246,8956.491898,-689.485948
557.332276,4219.173869,9696.697840,153.219100
557.332596,2738.761985,7624.121203,1149.143247
557.332917,3997.112087,6291.750507,153.219100
557.333238,5329.482782,6439.791695,919.314598
557.333558,4737.318029,7328.038826,153.219100
557.333879,4367.215058,7994.224174,-689.485948
557.334199,4737.318029,7846.182985,-1608.800546
557.334520,5181.441594,8734.430116,-842.705048
557.334841,6069.688724,8216.285956,612.876398
557.335161,6957.935855,8068.244768,-229.828649
557.335482,7105.977043,9844.739029,-1302.362347
557.335803,5403.503377,9474.636058,-1685.410096
557.336123,4737.318029,8290.306550,-1915.238745
557.336444,5847.626942,7772.162391,-1762.019645
557.336765,5773.606348,8512.368333,-153.219100
557.337085,4885.359217,8438.347739,229.828649
557.337406,3775.050304,8586.388927,-153.219100
557.337727,3034.844362,7920.203579,306.438199
557.338047,4959.379811,7624.121203,1608.800546
557.338368,3627.009116,6143.709319,1072.533697
557.338689,2442.679609,6661.853478,0.000000
557.339009,3108.864956,8290.306550,995.924147
557.339330,3997.112087,10732.986159,1225.752797
557.339650,3404.947333,10362.883188,919.314598
557.339971,5181.441594,8734.430116,-383.047749
557.340292,5773.606348,8586.388927,-1762.019645
557.340612,4145.153275,8660.409521,-1149.143247
557.340933,3256.906145,7328.038826,153.219100
557.341254,5403.503377,7179.997637,76.609550
557.341574,7476.080014,8364.327145,0.000000
557.341895,4811.338623,8512.368333,-306.438199
557.342216,4071.132681,8438.347739,-842.705048
557.342536,6143.709319,7105.977043,-766.095498
557.342857,6217.729913,6513.812290,76.609550
557.343178,6513.812290,5699.585753,383.047749
557.343498,7031.956449,6735.874072,-1072.533697
557.343819,4367.215058,7402.059420,-995.924147
557.344140,4885.359217,7402.059420,153.219100
557.344460,5847.626942,8142.265362,1685.410096
557.344781,6143.709319,9548.656652,536.266849
557.345101,5625.565159,9696.697840,-1072.533697
557.345422,4219.173869,8734.430116,-2374.896044
557.345743,4219.173869,7550.100608,-2298.286494
557.346063,5477.523971,6587.832884,612.876398
557.346384,4885.359217,6291.750507,995.924147
557.346705,5107.421000,7624.121203,-229.828649
557.347025,3552.988522,8364.327145,-766.095498
557.347346,3849.070898,9770.718434,-842.705048
557.347667,5995.668130,9104.533087,1225.752797
557.347987,5773.606348,8438.347739,1915.238745
557.348308,5181.441594,8290.306550,919.314598
557.348629,4071.132681,9326.594869,0.000000
557.348949,2960.823768,8438.347739,0.000000
557.349270,3404.947333,7772.162391,612.876398
557.349591,4811.338623,7402.059420,1762.019645
557.349911,5403.503377,8660.409521,-766.095498
557.350232,4293.194464,9252.574275,-1685.410096
557.350553,4589.276840,8068.244768,-1685.410096
557.350873,5847.626942,6809.894666,-383.047749
557.351194,7031.956449,6365.771101,1149.143247
557.351514,6587.832884,7031.956449,536.266849
557.351835,6809.894666,8216.285956,-1455.581446
557.352156,6587.832884,8216.285956,-2681.334243
557.352476,6661.853478,6883.915261,-1532.190996
557.352797,7846.182985,7328.038826,0.000000
557.353118,6291.750507,8142.265362,536.266849
557.353438,4441.235652,7772.162391,-1149.143247
557.353759,6809.894666,7328.038826,-1149.143247
557.354080,5847.626942,7624.121203,229.828649
557.354400,3923.091493,7624.121203,229.828649
557.354721,5107.421000,7920.203579,0.000000
557.355042,4885.359217,9770.718434,-153.219100
557.355362,3849.070898,10658.965565,-1149.143247
557.355683,3034.844362,10436.903782,-459.657299
557.356004,2738.761985,7402.059420,76.609550
557.356324,1924.535449,8364.327145,766.095498
557.356645,740.205942,9474.636058,2451.505594
557.356965,1406.391290,10288.862594,0.000000
557.357286,2442.679609,8586.388927,-1072.533697
557.357607,2886.803174,8216.285956,-229.828649
557.357927,3627.009116,8364.327145,1838.629195
557.358248,3256.906145,9474.636058,2451.505594
557.358569,3256.906145,9770.718434,0.000000
557.358889,3849.070898,9548.656652,-995.924147
557.359210,5921.647536,8808.450710,-766.095498
557.359531,5773.606348,7698.141797,-1072.533697
557.359851,5255.462188,7476.080014,-1378.971896
557.360172,6365.771101,9400.615463,-1302.362347
557.360493,6809.894666,10807.006753,-842.705048
557.360813,4737.318029,8882.471304,229.828649
557.361134,6291.750507,7846.182985,919.314598
557.361455,4589.276840,6883.915261,1532.190996
557.361775,3997.112087,6069.688724,842.705048
557.362096,5329.482782,6439.791695,76.609550
557.362416,6957.935855,7031.956449,-689.485948
557.362737,7105.977043,8512.368333,-1149.143247
557.363058,6291.750507,7698.141797,612.876398
557.363378,4589.276840,6735.874072,-153.219100
557.363699,5329.482782,7105.977043,1225.752797
557.364020,5477.523971,7698.141797,1455.581446
557.364340,5699.585753,7105.977043,-1608.800546
557.364661,5625.565159,6661.853478,-2604.724693
557.364982,5477.523971,7772.162391,-1455.581446
557.365302,6069.688724,8660.409521,1225.752797
557.365623,5181.441594,7920.203579,1838.629195
557.365944,4737.318029,6439.791695,0.000000
557.366264,5403.503377,6513.812290,0.000000
557.366585,5033.400406,7179.997637,1072.533697
557.366906,5847.626942,8068.244768,1378.971896
557.367226,5921.647536,6365.771101,842.705048
557.367547,5329.482782,5699.585753,-842.705048
557.367867,5551.544565,7550.100608,-76.609550
557.368188,5403.503377,8438.347739,0.000000
557.368509,5181.441594,8882.471304,-1378.971896
557.368829,6661.853478,7476.080014,-2451.505594
557.369150,6069.688724,6661.853478,-2834.553343
557.369471,5477.523971,6439.791695,-1608.800546
557.369791,5625.565159,7624.121203,612.876398
557.370112,5329.482782,9400.615463,1991.848295
557.370433,4441.235652,9770.718434,-383.047749
557.370753,4663.297435,9252.574275,-1072.533697
557.371074,5181.441594,8808.450710,-1608.800546
557.371395,4293.194464,8586.388927,-1072.533697
557.371715,4071.132681,7920.203579,1302.362347
557.372036,4959.379811,8660.409521,1838.629195
557.372357,4145.153275,10140.821405,842.705048
557.372677,1036.288319,9400.615463,0.000000
557.372998,2072.576638,10140.821405,-1072.533697
557.373318,2664.741391,11325.150913,-383.047749
557.373639,2516.700203,11325.150913,459.657299
557.373960,3997.112087,9844.739029,-995.924147
557.374280,3775.050304,8660.409521,-1532.190996
557.374601,3997.112087,9696.697840,-1072.533697
557.374922,2294.638420,9918.759623,995.924147
557.375242,1924.535449,8808.450710,0.000000
557.375563,5107.421000,8586.388927,76.609550
557.375884,6809.894666,8364.327145,1608.800546
557.376204,6365.771101,7994.224174,766.095498
557.376525,6735.874072,7846.182985,-536.266849
557.376846,4441.235652,6883.915261,-995.924147
557.377166,5773.606348,6069.688724,-459.657299
557.377487,7328.038826,6143.709319,383.047749
557.377808,7698.141797,6587.832884,-76.609550
557.378128,8364.327145,8068.244768,-1915.238745
557.378449,6439.791695,7031.956449,-2681.334243
557.378769,6143.709319,7105.977043,-3447.429741
557.379090,7031.956449,6735.874072,-1378.971896
557.379411,6217.729913,6587.832884,76.609550
557.379731,5625.565159,6661.853478,0.000000
557.380052,5107.421000,6365.771101,-383.047749
557.380373,5699.585753,7402.059420,0.000000
557.380693,5699.585753,7254.018232,306.438199
557.381014,4663.297435,5773.606348,0.000000
557.381335,5403.503377,5995.668130,153.219100
557.381655,6069.688724,9474.636058,1225.752797
557.381976,3478.967927,9326.594869,1608.800546
557.382297,4959.379811,7328.038826,689.485948
557.382617,6957.935855,6439.791695,0.000000
557.382938,4145.153275,7105.977043,-1149.143247
557.383259,2664.741391,6661.853478,-2374.896044
557.383579,5625.565159,6735.874072,-1378.971896
557.383900,6661.853478,8438.347739,-306.438199
557.384221,6069.688724,10584.944971,995.924147
557.384541,4589.276840,9918.759623,-1302.362347
557.384862,3849.070898,8882.471304,-2451.505594
557.385182,5773.606348,10362.883188,-383.047749
557.385503,5625.565159,9400.615463,1915.238745
557.385824,6735.874072,8216.285956,383.047749
557.386144,4293.194464,7105.977043,-536.266849
557.386465,2590.720797,7550.100608,0.000000
557.386786,4367.215058,9326.594869,1762.019645
557.387106,3997.112087,10362.883188,2145.067394
557.387427,4441.235652,10362.883188,-306.438199
557.387748,4145.153275,7846.182985,-1532.190996
557.388068,4589.276840,6365.771101,-1225.752797
557.388389,4959.379811,6735.874072,612.876398
557.388710,2516.700203,7328.038826,459.657299
557.389030,2812.782580,8290.306550,-1378.971896
557.389351,4959.379811,10436.903782,-1915.238745
557.389672,5847.626942,11029.068536,689.485948
557.389992,6661.853478,11547.212695,1532.190996
557.390313,6069.688724,10066.800811,306.438199
557.390633,5107.421000,8734.430116,-459.657299
557.390954,4441.235652,8660.409521,0.000000
557.391275,3182.885551,7328.038826,1225.752797
557.391595,3775.050304,4811.338623,842.705048
557.391916,4959.379811,5921.647536,842.705048
557.392237,4219.173869,8882.471304,0.000000
557.392557,2442.679609,8734.430116,-1149.143247
557.392878,2960.823768,6217.729913,-1455.581446
557.393199,5255.462188,5551.544565,-1455.581446
557.393519,4959.379811,5773.606348,1149.143247
557.393840,4367.215058,6735.874072,1149.143247
557.394161,6809.894666,7624.121203,-689.485948
557.394481,6735.874072,9400.615463,-2604.724693
557.394802,6513.812290,8956.491898,-2451.505594
557.395123,7772.162391,8660.409521,-1302.362347
557.395443,8808.450710,8216.285956,612.876398
557.395764,6735.874072,7698.141797,1072.533697
557.396084,6809.894666,5847.626942,-1149.143247
557.396405,4663.297435,4885.359217,-2834.553343
557.396726,4663.297435,6513.812290,-766.095498
557.397046,5181.441594,7624.121203,2834.553343
557.397367,6439.791695,7772.162391,1838.629195
557.397688,6883.915261,8512.368333,-1302.362347
557.398008,4811.338623,9474.636058,-1915.238745
557.398329,3552.988522,7402.059420,-536.266849
557.398650,5033.400406,6587.832884,1685.410096
557.398970,7402.059420,7698.141797,2681.334243
557.399291,7550.100608,9400.615463,1378.971896
557.399612,6809.894666,8216.285956,306.438199
557.399932,6735.874072,6291.750507,-1149.143247
557.400253,8068.244768,4737.318029,0.000000
557.400574,8364.327145,4515.256246,1302.362347
557.400894,10066.800811,3552.988522,153.219100
557.401215,11251.130318,5181.441594,-1532.190996
557.401535,10658.965565,7031.956449,-383.047749
557.401856,10140.821405,7772.162391,995.924147
557.402177,10732.986159,5477.523971,612.876398
557.402497,11103.089130,4663.297435,-842.705048
557.402818,10288.862594,5773.606348,-1225.752797
557.403139,9252.574275,6957.935855,-2145.067394
557.403459,7772.162391,6513.812290,-2451.505594
557.403780,8216.285956,5625.565159,0.000000
557.404101,8808.450710,6661.853478,1608.800546
557.404421,7994.224174,7476.080014,1915.238745
557.404742,4885.359217,7254.018232,689.485948
557.405063,6513.812290,6143.709319,1685.410096
557.405383,7328.038826,4441.235652,3140.991542
557.405704,7105.977043,2294.638420,3677.258390
557.406025,6291.750507,2072.576638,995.924147
557.406345,8512.368333,3923.091493,-2374.896044
557.406666,8364.327145,5995.668130,-3217.601092
557.406986,10584.944971,4959.379811,-2145.067394
557.407307,12583.501014,4663.297435,-919.314598
557.407628,15322.262999,5181.441594,995.924147
557.407948,12435.459826,6217.729913,1072.533697
557.408269,11251.130318,5477.523971,-1455.581446
557.408590,11399.171507,4145.153275,-1915.238745
557.408910,12287.418637,3108.864956,306.438199
557.409231,12731.542202,2590.720797,1608.800546
557.409552,12509.480420,3034.844362,-459.657299
557.409872,9104.533087,2812.782580,-4366.744339
557.410193,9104.533087,4663.297435,-3217.601092
557.410513,8068.244768,4663.297435,383.047749
557.410834,7994.224174,4367.215058,2145.067394
557.411155,9918.759623,5551.544565,2374.896044
557.411475,7772.162391,7254.018232,-306.438199
557.411796,5329.482782,8512.368333,-1838.629195
557.412116,7772.162391,8660.409521,-383.047749
557.412437,7402.059420,7624.121203,76.609550
557.412758,8216.285956,7179.997637,-842.705048
557.413078,8882.471304,8808.450710,229.828649
557.413399,6735.874072,8956.491898,-1532.190996
557.413720,5403.503377,6365.771101,-1225.752797
557.414040,6957.935855,3775.050304,1225.752797
557.414361,9178.553681,4589.276840,1685.410096
557.414681,10214.842000,7031.956449,2757.943793
557.415002,8660.409521,7179.997637,2451.505594
557.415323,9252.574275,6735.874072,-229.828649
557.415643,10140.821405,4663.297435,0.000000
557.415964,10732.986159,4663.297435,1149.143247
557.416285,11547.212695,4589.276840,536.266849
557.416605,11325.150913,5033.400406,-1225.752797
557.416926,11399.171507,5847.626942,-2604.724693
557.417246,10807.006753,5625.565159,-1991.848295
557.417567,10288.862594,5551.544565,-766.095498
557.417888,10584.944971,6661.853478,0.000000
557.418208,8808.450710,6513.812290,-689.485948
557.418529,8142.265362,4885.359217,-1762.019645
557.418849,8068.244768,3552.988522,-1225.752797
557.419170,7772.162391,3330.926739,612.876398
557.419491,6957.935855,5847.626942,1762.019645
557.419811,4737.318029,7179.997637,-689.485948
557.420132,5181.441594,6439.791695,-2834.553343
557.420453,7105.977043,6735.874072,-1455.581446
557.420773,8216.285956,7031.956449,1378.971896
557.421094,7328.038826,8216.285956,2987.772442
557.421414,6291.750507,7624.121203,1455.581446
557.421735,7031.956449,6587.832884,153.219100
557.422056,7846.182985,4663.297435,766.095498
557.422376,9178.553681,2886.803174,1302.362347
557.422697,10881.027347,2072.576638,2145.067394
557.423018,10436.903782,1776.494261,612.876398
557.423338,10510.924376,1406.391290,-766.095498
557.423659,12731.542202,2368.659014,-919.314598
557.423979,13471.748144,3775.050304,-689.485948
557.424300,13767.830521,5033.400406,0.000000
557.424621,14508.036463,5699.585753,0.000000
557.424941,12879.583391,5107.421000,-2221.676944
557.425262,12805.562797,3923.091493,-2451.505594
557.425582,13249.686362,3552.988522,-1685.410096
557.425903,12435.459826,4219.173869,-1532.190996
557.426224,10510.924376,5403.503377,-1072.533697
557.426544,9548.656652,5847.626942,-919.314598
557.426865,8438.347739,4441.235652,-1455.581446
557.427186,8882.471304,4219.173869,0.000000
557.427506,8512.368333,5847.626942,842.705048
557.427827,6291.750507,7254.018232,229.828649
557.428147,5921.647536,6661.853478,0.000000
557.428468,6365.771101,5699.585753,229.828649
557.428789,6439.791695,6143.709319,995.924147
557.429109,6143.709319,8586.388927,1302.362347
557.429430,6069.688724,10436.903782,76.609550
557.429751,6069.688724,10732.986159,-612.876398
557.430071,7105.977043,8438.347739,995.924147
557.430392,8216.285956,6143.709319,2068.457845
557.430712,8142.265362,4515.256246,1762.019645
557.431033,7328.038826,4737.318029,689.485948
557.431354,8438.347739,5033.400406,-995.924147
557.431674,9622.677246,4663.297435,-842.705048
557.431995,11769.274478,3701.029710,1149.143247
557.432315,12953.603985,3923.091493,1685.410096
557.432636,12287.418637,4589.276840,383.047749
557.432957,11547.212695,5329.482782,-1762.019645
557.433277,11917.315666,5329.482782,-3830.477490
557.433598,13101.645173,5477.523971,-3830.477490
557.433919,13471.748144,5847.626942,-2145.067394
557.434239,12731.542202,6587.832884,-229.828649
557.434560,10436.903782,7402.059420,-536.266849
557.434880,7994.224174,6957.935855,-1149.143247
557.435201,6661.853478,4737.318029,-1838.629195
557.435522,6883.915261,3478.967927,-919.314598
557.435842,7402.059420,4367.215058,1072.533697
557.436163,6957.935855,6661.853478,2834.553343
557.436484,6513.812290,7328.038826,1915.238745
557.436804,6439.791695,7402.059420,1072.533697
557.437125,5551.544565,5699.585753,995.924147
557.437445,4737.318029,4515.256246,1225.752797
557.437766,6365.771101,5403.503377,1225.752797
557.438087,8734.430116,6513.812290,536.266849
557.438407,8882.471304,7031.956449,229.828649
557.438728,10658.965565,6735.874072,-536.266849
557.439048,12065.356855,6439.791695,-689.485948
557.439369,10584.944971,4663.297435,229.828649
557.439690,10658.965565,2294.638420,842.705048
557.440010,11843.295072,666.185348,689.485948
557.440331,12731.542202,0.000000,0.000000
557.440652,13619.789333,1628.453072,0.000000
557.440972,13989.892304,3182.885551,-842.705048
557.441293,13175.665768,4367.215058,-2451.505594
557.441613,13619.789333,5107.421000,-1915.238745
557.441934,12879.583391,4737.318029,-1378.971896
557.442255,12361.439231,4441.235652,-995.924147
557.442575,10584.944971,3923.091493,-536.266849
557.442896,9400.615463,4293.194464,-842.705048
557.443217,7920.203579,4367.215058,-1225.752797
557.443537,7772.162391,5625.565159,-1302.362347
557.443858,8068.244768,7105.977043,-1378.971896
557.444178,7920.203579,8290.306550,-459.657299
557.444499,7254.018232,8660.409521,1225.752797
557.444820,6513.812290,7402.059420,2145.067394
557.445140,5551.544565,6143.709319,2221.676944
557.445461,5033.400406,5551.544565,1838.629195
557.445781,5329.482782,6217.729913,1072.533697
557.446102,6513.812290,6439.791695,1149.143247
557.446423,7846.182985,6957.935855,842.705048
557.446743,8512.368333,6661.853478,-229.828649
557.447064,9252.574275,6957.935855,-1072.533697
557.447385,10066.800811,7105.977043,-306.438199
557.447705,10066.800811,6291.750507,612.876398
557.448026,10881.027347,4663.297435,1455.581446
557.448346,10807.006753,4219.173869,459.657299
557.448667,10362.883188,4811.338623,-766.095498
557.448988,10140.821405,6365.771101,-2451.505594
557.449308,10955.047942,6809.894666,-2528.115143
557.449629,11399.171507,5847.626942,-2834.553343
557.449949,10955.047942,4737.318029,-1991.848295
557.450270,9992.780217,4737.318029,-1225.752797
557.450591,8734.430116,5329.482782,919.314598
557.450911,7772.162391,6439.791695,766.095498
557.451232,8068.244768,6661.853478,76.609550
557.451553,8734.430116,5699.585753,-842.705048
557.451873,8734.430116,5329.482782,-383.047749
557.452194,8586.388927,5773.606348,-76.609550
557.452514,8438.347739,6143.709319,-459.657299
557.452835,7994.224174,6513.812290,-383.047749
557.453156,8364.327145,6291.750507,229.828649
557.453476,8734.430116,5551.544565,1072.533697
557.453797,9030.512492,5033.400406,689.485948
557.454118,8586.388927,4885.359217,689.485948
557.454438,8808.450710,3775.050304,536.266849
557.454759,10288.862594,2960.823768,536.266849
557.455079,11177.109724,3256.906145,689.485948
557.455400,10881.027347,4293.194464,-612.876398
557.455721,10732.986159,5255.462188,-1225.752797
557.456041,11399.171507,5773.606348,-1378.971896
557.456362,12065.356855,5329.482782,-1149.143247
557.456682,12583.501014,5033.400406,-689.485948
557.457003,11547.212695,4515.256246,-229.828649
557.457324,10732.986159,3923.091493,153.219100
557.457644,9844.739029,3849.070898,1302.362347
557.457965,9770.718434,3923.091493,1838.629195
557.458286,9844.739029,3849.070898,76.609550
557.458606,9918.759623,4441.235652,-1302.362347
557.458927,9548.656652,4441.235652,-1225.752797
557.459247,9400.615463,4367.215058,-689.485948
557.459568,9400.615463,4663.297435,-536.266849
557.459889,9400.615463,5625.565159,-995.924147
557.460209,9474.636058,6735.874072,-1225.752797
557.460530,8956.491898,8364.327145,-383.047749
557.460851,9252.574275,8734.430116,612.876398
557.461171,9178.553681,7846.182985,1915.238745
557.461492,8956.491898,6883.915261,1991.848295
557.461812,8068.244768,5403.503377,1991.848295
557.462133,6957.935855,4737.318029,1072.533697
557.462454,7254.018232,3849.070898,1225.752797
557.462774,7772.162391,3330.926739,995.924147
557.463095,8586.388927,3627.009116,1149.143247
557.463415,8882.471304,5403.503377,842.705048
557.463736,8956.491898,7994.224174,76.609550
557.464057,9030.512492,9252.574275,0.000000
557.464377,9178.553681,9252.574275,0.000000
557.464698,8216.285956,7624.121203,689.485948
557.465019,6883.915261,7105.977043,383.047749
557.465339,5625.565159,7105.977043,76.609550
557.465660,5181.441594,7105.977043,-536.266849
557.465980,5551.544565,6439.791695,-995.924147
557.466301,5699.585753,6291.750507,-459.657299
557.466622,5255.462188,7179.997637,306.438199
557.466942,4959.379811,9030.512492,1762.019645
557.467263,4811.338623,10214.842000,2528.115143
557.467584,5477.523971,10510.924376,2604.724693
557.467904,6069.688724,9918.759623,3524.039291
557.468225,5847.626942,8734.430116,3217.601092
557.468545,5181.441594,7994.224174,2911.162892
557.468866,4811.338623,8216.285956,3294.210641
557.469187,5033.400406,9178.553681,3140.991542
557.469507,5625.565159,9474.636058,3447.429741
557.469828,6217.729913,9696.697840,3677.258390
557.470148,6291.750507,9474.636058,4443.353888
557.470469,5995.668130,8956.491898,4826.401637
557.470790,5847.626942,8142.265362,5362.668486
557.471110,5995.668130,7994.224174,4903.011187
557.471431,6513.812290,7772.162391,5515.887586
557.471752,7105.977043,8290.306550,6052.154434
557.472072,6957.935855,8586.388927,5822.325785
557.472393,7031.956449,8512.368333,6665.030833
557.472713,6735.874072,7920.203579,6665.030833
557.473034,6661.853478,7105.977043,6741.640382
557.473355,6883.915261,6217.729913,6588.421283
557.473675,6365.771101,5699.585753,6052.154434
557.473996,5995.668130,4885.359217,5439.278036
557.474317,6291.750507,4959.379811,5745.716235
557.474637,7031.956449,5921.647536,5669.106685
557.474958,7031.956449,7476.080014,5822.325785
557.475278,6661.853478,8586.388927,5975.544884
557.475599,6439.791695,8068.244768,5975.544884
557.475920,5773.606348,7254.018232,6665.030833
557.476240,4959.379811,6587.832884,7507.735880
557.476561,4515.256246,6513.812290,7660.954980
557.476881,3775.050304,6143.709319,7124.688131
557.477202,2886.803174,5995.668130,6818.249932
557.477523,2368.659014,6069.688724,6741.640382
557.477843,2368.659014,5329.482782,7277.907231
557.478164,1850.514855,5699.585753,7201.297681
557.478485,2072.576638,6143.709319,6894.859482
557.478805,2368.659014,6957.935855,6818.249932
557.479126,2590.720797,7550.100608,6665.030833
557.479446,2664.741391,8216.285956,6435.202183
557.479767,3404.947333,8734.430116,6052.154434
557.480088,3552.988522,8660.409521,6128.763984
557.480408,3552.988522,7920.203579,5209.449386
557.480729,3701.029710,7328.038826,4673.182538
557.481050,3182.885551,6365.771101,4366.744339
557.481370,2664.741391,5255.462188,4443.353888
557.481691,2960.823768,4811.338623,3907.087040
557.482011,3701.029710,5551.544565,3140.991542
557.482332,4441.235652,6513.812290,2681.334243
557.482653,5255.462188,7846.182985,2528.115143
557.482973,6069.688724,9326.594869,2528.115143
557.483294,6735.874072,10288.862594,2834.553343
557.483614,6735.874072,10362.883188,2987.772442
557.483935,7476.080014,10584.944971,3907.087040
557.484256,6883.915261,10362.883188,4826.401637
557.484576,5995.668130,10510.924376,4596.572988
557.484897,5625.565159,10288.862594,5056.230287
557.485218,5033.400406,9104.533087,5209.449386
557.485538,3775.050304,7105.977043,4366.744339
557.485859,3478.967927,4663.297435,3447.429741
557.486179,3552.988522,3256.906145,2987.772442
557.486500,4145.153275,4515.256246,2528.115143
557.486821,5329.482782,7105.977043,1225.752797
557.487141,7846.182985,10732.986159,-229.828649
557.487462,9030.512492,14137.933492,-612.876398
557.487782,9918.759623,15988.448347,842.705048
557.488103,10066.800811,15470.304188,2451.505594
557.488424,9326.594869,12953.603985,3983.696590
557.488744,7624.121203,10362.883188,5515.887586
557.489065,6661.853478,9548.656652,6281.983084
557.489386,4589.276840,8512.368333,4596.572988
557.489706,2960.823768,7920.203579,3830.477490
557.490027,2590.720797,7031.956449,3907.087040
557.490347,2960.823768,5329.482782,3907.087040
557.490668,4145.153275,5033.400406,4519.963438
557.490989,5329.482782,7254.018232,4519.963438
557.491309,5181.441594,10584.944971,3983.696590
557.491630,4959.379811,12953.603985,3140.991542
557.491951,5847.626942,14211.954086,2757.943793
557.492271,7105.977043,14582.057057,3600.648841
557.492592,7105.977043,13101.645173,4749.792088
557.492912,5181.441594,10214.842000,6052.154434
557.493233,3552.988522,7846.182985,6052.154434
557.493554,1406.391290,6143.709319,5209.449386
557.493874,1480.411884,5551.544565,5975.544884
557.494195,2516.700203,4737.318029,5975.544884
557.494515,3404.947333,4441.235652,4979.620737
557.494836,3923.091493,4737.318029,5439.278036
557.495157,5847.626942,6365.771101,8273.831378
557.495477,5403.503377,8290.306550,8197.221829
557.495798,5107.421000,9696.697840,6971.469032
557.496119,6069.688724,10214.842000,5056.230287
557.496439,6143.709319,9918.759623,4213.525239
557.496760,4367.215058,7920.203579,4903.011187
557.497080,5329.482782,5181.441594,6358.592633
557.497401,6439.791695,5625.565159,7507.735880
557.497722,3478.967927,8216.285956,6971.469032
557.498042,2220.617826,9400.615463,5669.106685
557.498363,2516.700203,7550.100608,5669.106685
557.498684,2812.782580,4811.338623,7890.783629
557.499004,1110.308913,2072.576638,9806.022374
557.499325,4367.215058,2072.576638,8427.050478
557.499645,5033.400406,5255.462188,6894.859482
557.499966,3108.864956,9252.574275,4519.963438
557.500287,3108.864956,9918.759623,2528.115143
557.500607,6143.709319,8586.388927,3294.210641
557.500928,4959.379811,5995.668130,6128.763984
557.501248,2812.782580,4515.256246,9039.926876
557.501569,5181.441594,7105.977043,9652.803275
557.501890,4145.153275,9622.677246,6281.983084
557.502210,3552.988522,10807.006753,3907.087040
557.502531,5329.482782,9992.780217,3677.258390
557.502852,6735.874072,8660.409521,4213.525239
557.503172,4811.338623,5847.626942,5056.230287
557.503493,4737.318029,4441.235652,6665.030833
557.503813,4663.297435,4737.318029,6971.469032
557.504134,4737.318029,5551.544565,6511.811733
557.504455,5329.482782,7105.977043,5286.058936
557.504775,6217.729913,10066.800811,4443.353888
557.505096,5477.523971,12731.542202,4903.011187
557.505417,6143.709319,14878.139434,6052.154434
557.505737,6291.750507,13619.789333,6511.811733
557.506058,4367.215058,9178.553681,5286.058936
557.506378,3849.070898,5255.462188,4060.306139
557.506699,3997.112087,3997.112087,3600.648841
557.507020,2442.679609,5255.462188,3140.991542
557.507340,3478.967927,8438.347739,3907.087040
557.507661,6291.750507,12213.398043,4443.353888
557.507981,7698.141797,13397.727550,5669.106685
557.508302,7328.038826,12287.418637,6971.469032
557.508622,7550.100608,12065.356855,5975.544884
557.508943,6291.750507,11177.109724,4290.134789
557.509263,4959.379811,8290.306550,5209.449386
557.509584,6217.729913,7105.977043,6741.640382
557.509905,6957.935855,7254.018232,7048.078582
557.510225,5403.503377,8364.327145,6052.154434
557.510546,3849.070898,9178.553681,3370.820191
557.510866,3627.009116,9548.656652,1762.019645
557.511187,4515.256246,8512.368333,4443.353888
557.511507,5625.565159,5773.606348,7431.126331
557.511828,6291.750507,4811.338623,6205.373534
557.512148,3775.050304,5995.668130,4290.134789
557.512469,2294.638420,9104.533087,2068.457845
557.512789,4885.359217,10955.047942,1762.019645
557.513110,6883.915261,10732.986159,2987.772442
557.513430,7772.162391,9696.697840,5515.887586
557.513751,8290.306550,9696.697840,5439.278036
557.514071,5625.565159,9326.594869,4290.134789
557.514392,1480.411884,8290.306550,4596.572988
557.514712,3701.029710,6883.915261,5362.668486
557.515033,4811.338623,4811.338623,6435.202183
557.515353,3849.070898,3404.947333,7201.297681
557.515674,3849.070898,4589.276840,6741.640382
557.515994,2664.741391,6883.915261,5209.449386
557.516315,1332.370696,6217.729913,4519.963438
557.516636,2886.803174,4515.256246,3600.648841
557.516956,5921.647536,5625.565159,2451.505594
557.517277,6365.771101,8290.306550,3524.039291
557.517597,4515.256246,9992.780217,4596.572988
557.517918,5403.503377,11399.171507,3677.258390
557.518238,5403.503377,11695.253884,3830.477490
557.518559,4219.173869,8882.471304,4903.011187
557.518879,5773.606348,6365.771101,4136.915689
557.519200,6735.874072,6809.894666,4596.572988
557.519520,4071.132681,7994.224174,5362.668486
557.519841,2738.761985,6365.771101,4596.572988
557.520161,4737.318029,5255.462188,3294.210641
557.520482,4737.318029,6217.729913,4903.011187
557.520802,5921.647536,9326.594869,6971.469032
557.521123,7031.956449,11103.089130,6281.983084
557.521443,4811.338623,10807.006753,3064.381992
557.521764,3997.112087,8512.368333,3140.991542
557.522084,6809.894666,7328.038826,5822.325785
557.522405,6809.894666,9474.636058,7048.078582
557.522726,4737.318029,12287.418637,6205.373534
557.523046,3997.112087,11991.336260,3983.696590
557.523367,4885.359217,10140.821405,3064.381992
557.523687,5477.523971,8216.285956,6665.030833
557.524008,4737.318029,7179.997637,9729.412825
557.524328,3997.112087,5625.565159,7660.954980
557.524649,3330.926739,6143.709319,4213.525239
557.524969,2146.597232,6735.874072,2374.896044
557.525290,4737.318029,7402.059420,3677.258390
557.525610,8734.430116,9548.656652,5669.106685
557.525931,6809.894666,11695.253884,5362.668486
557.526251,5403.503377,11547.212695,4749.792088
557.526572,6143.709319,9400.615463,4596.572988
557.526892,5847.626942,8142.265362,4749.792088
557.527213,4145.153275,6809.894666,5745.716235
557.527533,4885.359217,7105.977043,4443.353888
557.527854,4737.318029,7550.100608,2451.505594
557.528174,4145.153275,8734.430116,2757.943793
557.528495,4737.318029,7550.100608,4443.353888
557.528815,4811.338623,4885.359217,4903.011187
557.529136,3701.029710,4145.153275,4979.620737
557.529457,2886.803174,5847.626942,4903.011187
557.529777,4811.338623,7550.100608,3064.381992
557.530098,6069.688724,7698.141797,1378.971896
557.530418,6513.812290,8364.327145,2681.334243
557.530739,6365.771101,9474.636058,5592.497135
557.531059,5847.626942,9548.656652,6511.811733
557.531380,3997.112087,7328.038826,3753.867940
557.531700,2368.659014,3775.050304,536.266849
557.532021,3182.885551,3923.091493,995.924147
557.532341,4737.318029,4589.276840,4519.963438
557.532662,4293.194464,4811.338623,4749.792088
557.532982,5625.565159,6439.791695,1072.533697
557.533303,4737.318029,7994.224174,-1532.190996
557.533623,4219.173869,7476.080014,-842.705048
557.533944,7105.977043,8438.347739,1838.629195
557.534264,7846.182985,10955.047942,2834.553343
557.534585,6957.935855,11399.171507,842.705048
557.534905,5329.482782,8734.430116,-1225.752797
557.535226,7179.997637,7328.038826,0.000000
557.535547,4071.132681,6883.915261,3370.820191
557.535867,4441.235652,7698.141797,4596.572988
557.536188,4367.215058,7846.182985,1225.752797
557.536508,4071.132681,7624.121203,-766.095498
557.536829,3701.029710,5773.606348,229.828649
557.537149,6809.894666,5181.441594,1762.019645
557.537470,6513.812290,6143.709319,2068.457845
557.537790,5477.523971,8882.471304,766.095498
557.538111,6513.812290,12287.418637,-1532.190996
557.538431,7402.059420,13027.624579,-1225.752797
557.538752,7031.956449,11843.295072,306.438199
557.539072,6809.894666,9178.553681,2298.286494
557.539393,4885.359217,8290.306550,1455.581446
557.539713,2294.638420,8142.265362,-383.047749
557.540034,4589.276840,9548.656652,-1608.800546
557.540354,5033.400406,8882.471304,-1762.019645
557.540675,3256.906145,7328.038826,-1762.019645
557.540995,2812.782580,6883.915261,766.095498
557.541316,5403.503377,8808.450710,1838.629195
557.541636,4959.379811,9770.718434,0.000000
557.541957,4367.215058,9622.677246,-1532.190996
557.542278,5625.565159,9696.697840,-3064.381992
557.542598,6735.874072,10362.883188,-1455.581446
557.542919,5403.503377,10510.924376,689.485948
557.543239,5699.585753,9548.656652,-383.047749
557.543560,6439.791695,9252.574275,-2604.724693
557.543880,5181.441594,10288.862594,-1838.629195
557.544201,6439.791695,11547.212695,842.705048
557.544521,4441.235652,8512.368333,2068.457845
557.544842,6069.688724,6217.729913,689.485948
557.545162,5477.523971,4885.359217,-229.828649
557.545483,4589.276840,4737.318029,383.047749
557.545803,5995.668130,4737.318029,1072.533697
557.546124,6809.894666,5995.668130,229.828649
557.546444,5921.647536,8512.368333,-1149.143247
557.546765,6809.894666,10510.924376,-383.047749
557.547085,7031.956449,9696.697840,536.266849
557.547406,4293.194464,7402.059420,1378.971896
557.547726,4293.194464,7624.121203,1915.238745
557.548047,5329.482782,8364.327145,459.657299
557.548368,3034.844362,7105.977043,-1838.629195
557.548688,2442.679609,6809.894666,-1302.362347
557.549009,5625.565159,7920.203579,-1072.533697
557.549329,4367.215058,8216.285956,-1225.752797
557.549650,1628.453072,5033.400406,0.000000
557.549970,4367.215058,4663.297435,842.705048
557.550291,6143.709319,6217.729913,689.485948
557.550611,4145.153275,7328.038826,306.438199
557.550932,3627.009116,6809.894666,-1838.629195
557.551252,7105.977043,8882.471304,-1915.238745
557.551573,6809.894666,11473.192101,1149.143247
557.551893,7105.977043,10807.006753,2221.676944
557.552214,5181.441594,7402.059420,-1532.190996
557.552534,4589.276840,7105.977043,-2145.067394
557.552855,1776.494261,4885.359217,1685.410096
557.553175,1924.535449,3182.885551,2298.286494
557.553496,3256.906145,3849.070898,-1225.752797
557.553816,2812.782580,5995.668130,-2911.162892
557.554137,3627.009116,7698.141797,-3830.477490
557.554457,6217.729913,9548.656652,-2298.286494
557.554778,5477.523971,9992.780217,-1378.971896
557.555099,5181.441594,8586.388927,-995.924147
557.555419,7105.977043,7328.038826,-1455.581446
557.555740,6735.874072,7994.224174,-1302.362347
557.556060,5181.441594,9844.739029,-689.485948
557.556381,6143.709319,10658.965565,-1915.238745
557.556701,7254.018232,10140.821405,-4136.915689
557.557022,5625.565159,10214.842000,-4136.915689
557.557342,4737.318029,8290.306550,-459.657299
557.557663,4589.276840,5329.482782,306.438199
557.557983,4145.153275,3923.091493,-919.314598
557.558304,3849.070898,5699.585753,-1532.190996
557.558624,4959.379811,9474.636058,-2221.676944
557.558945,5551.544565,9696.697840,-2987.772442
557.559265,6661.853478,9474.636058,-3294.210641
557.559586,8512.368333,9474.636058,-2145.067394
557.559906,7920.203579,9770.718434,-995.924147
557.560227,6513.812290,9696.697840,-766.095498
557.560547,5477.523971,11843.295072,-1685.410096
557.560868,6439.791695,13249.686362,-1762.019645
557.561188,7031.956449,12139.377449,-1378.971896
557.561509,5847.626942,9622.677246,1225.752797
557.561830,4737.318029,6957.935855,2681.334243
557.562150,4515.256246,7179.997637,1685.410096
557.562471,2812.782580,7476.080014,0.000000
557.562791,1924.535449,6439.791695,-459.657299
557.563112,4145.153275,6513.812290,0.000000
557.563432,7920.203579,10140.821405,1302.362347
557.563753,5329.482782,10288.862594,-76.609550
557.564073,3849.070898,9030.512492,-2221.676944
557.564394,6291.750507,7328.038826,-1302.362347
557.564714,7031.956449,8364.327145,153.219100
557.565035,5995.668130,9696.697840,766.095498
557.565355,5773.606348,10955.047942,-1685.410096
557.565676,5477.523971,10584.944971,-2911.162892
557.565996,6217.729913,10214.842000,0.000000
557.566317,5181.441594,7105.977043,2681.334243
557.566637,3923.091493,3552.988522,1149.143247
557.566958,2442.679609,2812.782580,459.657299
557.567278,2072.576638,3182.885551,1149.143247
557.567599,2294.638420,4885.359217,1149.143247
557.567920,2368.659014,5921.647536,0.000000
557.568240,4071.132681,6365.771101,-995.924147
557.568561,3923.091493,6957.935855,-2068.457845
557.568881,4589.276840,8882.471304,-1608.800546
557.569202,2812.782580,7772.162391,-842.705048
557.569522,4663.297435,6439.791695,-1225.752797
557.569843,6957.935855,7624.121203,-842.705048
557.570163,5181.441594,11251.130318,-76.609550
557.570484,3478.967927,12361.439231,0.000000
557.570804,5255.462188,10066.800811,-536.266849
557.571125,4885.359217,6809.894666,-76.609550
557.571445,2368.659014,2516.700203,1991.848295
557.571766,3552.988522,1480.411884,2145.067394
557.572086,3108.864956,3108.864956,766.095498
557.572407,2590.720797,5699.585753,-383.047749
557.572727,4367.215058,7772.162391,-1991.848295
557.573048,7031.956449,8586.388927,-3447.429741
557.573368,6439.791695,8956.491898,-1225.752797
557.573689,6957.935855,9696.697840,1455.581446
557.574009,8438.347739,10288.862594,-459.657299
557.574330,7031.956449,9696.697840,-3294.210641
557.574651,5181.441594,10807.006753,-2374.896044
557.574971,7994.224174,12953.603985,306.438199
557.575292,8438.347739,13101.645173,1455.581446
557.575612,5403.503377,11325.150913,1378.971896
557.575933,4811.338623,8956.491898,-1225.752797
557.576253,3775.050304,6291.750507,-306.438199
557.576574,2664.741391,4811.338623,2834.553343
557.576894,3256.906145,4885.359217,4060.306139
557.577215,3849.070898,7031.956449,0.000000
557.577535,2886.803174,9622.677246,-1915.238745
557.577856,3256.906145,10288.862594,-919.314598
557.578176,5847.626942,10436.903782,-612.876398
557.578497,5847.626942,9844.739029,-842.705048
557.578817,5107.421000,10436.903782,-1838.629195
557.579138,5181.441594,10140.821405,-1608.800546
557.579458,6587.832884,11843.295072,-383.047749
557.579779,6217.729913,11473.192101,229.828649
557.580099,6143.709319,11029.068536,-1991.848295
557.580420,5699.585753,9548.656652,-2374.896044
557.580741,5033.400406,8512.368333,229.828649
557.581061,4071.132681,4737.318029,1762.019645
557.581382,4367.215058,1628.453072,536.266849
557.581702,4145.153275,3552.988522,-459.657299
557.582023,1998.556043,5773.606348,-153.219100
557.582343,2220.617826,5255.462188,-536.266849
557.582664,5329.482782,5551.544565,-3140.991542
557.582984,6661.853478,7105.977043,-5132.839837
557.583305,5995.668130,7698.141797,-3064.381992
557.583625,7254.018232,9696.697840,-689.485948
557.583946,6735.874072,11103.089130,-459.657299
557.584266,6217.729913,12805.562797,-1072.533697
557.584587,6217.729913,10955.047942,-1838.629195
557.584907,4811.338623,6587.832884,-1685.410096
557.585228,3478.967927,5181.441594,1455.581446
557.585548,4219.173869,5033.400406,2987.772442
557.585869,3108.864956,4145.153275,-612.876398
557.586189,1850.514855,3849.070898,-3064.381992
557.586510,2960.823768,5921.647536,536.266849
557.586830,3256.906145,7328.038826,2987.772442
557.587151,3923.091493,6439.791695,1149.143247
557.587472,5107.421000,8290.306550,-2451.505594
557.587792,7402.059420,10584.944971,-1991.848295
557.588113,6883.915261,11547.212695,612.876398
557.588433,7402.059420,11473.192101,1072.533697
557.588754,7550.100608,12509.480420,612.876398
557.589074,6661.853478,12583.501014,229.828649
557.589395,4367.215058,10584.944971,-306.438199
557.589715,5181.441594,8586.388927,0.000000
557.590036,4959.379811,6809.894666,1149.143247
557.590356,5107.421000,5107.421000,612.876398
557.590677,3627.009116,4145.153275,766.095498
557.590997,2812.782580,6439.791695,2145.067394
557.591318,3627.009116,9844.739029,3140.991542
557.591638,4367.215058,9548.656652,1072.533697
557.591959,5107.421000,7179.997637,-1378.971896
557.592279,4885.359217,7179.997637,-766.095498
557.592600,6143.709319,9326.594869,1378.971896
557.592920,4737.318029,9400.615463,76.609550
557.593241,5033.400406,9844.739029,-2145.067394
557.593562,6069.688724,11029.068536,-2451.505594
557.593882,3923.091493,10584.944971,-1302.362347
557.594203,5551.544565,10732.986159,919.314598
557.594523,5773.606348,9844.739029,1455.581446
557.594844,3775.050304,7031.956449,383.047749
557.595164,2812.782580,3923.091493,995.924147
557.595485,4071.132681,4663.297435,2451.505594
557.595805,2738.761985,6143.709319,2681.334243
557.596126,1702.473667,6365.771101,919.314598
557.596446,5107.421000,7476.080014,-2681.334243
557.596767,5403.503377,7846.182985,-2451.505594
557.597087,6217.729913,9548.656652,1608.800546
557.597408,5773.606348,8586.388927,3064.381992
557.597728,5699.585753,8216.285956,1685.410096
557.598049,3256.906145,8142.265362,766.095498
557.598369,4663.297435,8438.347739,-1149.143247
557.598690,5107.421000,7031.956449,-1149.143247
557.599010,7031.956449,7624.121203,0.000000
557.599331,8660.409521,8660.409521,459.657299
557.599651,7105.977043,6587.832884,-612.876398
557.599972,4441.235652,5551.544565,-306.438199
557.600293,4811.338623,7031.956449,1762.019645
557.600613,4441.235652,8438.347739,1838.629195
557.600934,4071.132681,8586.388927,536.266849
557.601254,5477.523971,9696.697840,0.000000
557.601575,6513.812290,10066.800811,1149.143247
557.601895,4737.318029,8882.471304,2528.115143
557.602216,3034.844362,7031.956449,1302.362347
557.602536,2368.659014,7624.121203,-383.047749
557.602857,2886.803174,9326.594869,459.657299
557.603177,3849.070898,8734.430116,2145.067394
557.603498,5477.523971,7920.203579,842.705048
557.603818,5551.544565,7031.956449,0.000000
557.604139,4885.359217,7698.141797,229.828649
557.604459,4885.359217,7328.038826,0.000000
557.604780,5033.400406,8364.327145,-1149.143247
557.605100,5551.544565,8586.388927,-1532.190996
557.605421,7698.141797,8512.368333,-1608.800546
557.605741,7179.997637,8068.244768,-383.047749
557.606062,6143.709319,9104.533087,995.924147
557.606383,5847.626942,9844.739029,153.219100
557.606703,3701.029710,7994.224174,-1838.629195
557.607024,3108.864956,5625.565159,-1685.410096
557.607344,3997.112087,4515.256246,153.219100
557.607665,4811.338623,5773.606348,-536.266849
557.607985,3775.050304,7550.100608,-1072.533697
557.608306,5181.441594,7994.224174,-995.924147
557.608626,6365.771101,7402.059420,-1302.362347
557.608947,7105.977043,7254.018232,-383.047749
557.609268,5403.503377,8216.285956,-306.438199
557.609588,4959.379811,8956.491898,-1838.629195
557.609909,6143.709319,10362.883188,-2451.505594
557.610229,6809.894666,10140.821405,-995.924147
557.610550,6217.729913,8734.430116,-2145.067394
557.610871,6957.935855,8290.306550,-1991.848295
557.611191,4885.359217,9474.636058,-459.657299
557.611512,1702.473667,8956.491898,1762.019645
557.611832,3034.844362,8290.306550,459.657299
557.612153,4589.276840,6735.874072,-229.828649
557.612473,4811.338623,6143.709319,995.924147
557.612794,4737.318029,7179.997637,2757.943793
557.613115,6143.709319,8808.450710,1838.629195
557.613435,4367.215058,8586.388927,-1225.752797
557.613756,5033.400406,6957.935855,-1685.410096
557.614076,8142.265362,8142.265362,76.609550
557.614397,7550.100608,9252.574275,1302.362347
557.614717,6365.771101,11547.212695,0.000000
557.615038,6587.832884,11621.233289,-3753.867940
557.615359,6587.832884,11473.192101,-3830.477490
557.615679,5921.647536,9696.697840,1302.362347
557.616000,6883.915261,10066.800811,3447.429741
557.616320,5033.400406,9400.615463,2757.943793
557.616641,1998.556043,6883.915261,1838.629195
557.616962,2516.700203,6957.935855,1302.362347
557.617282,3108.864956,6365.771101,2221.676944
557.617603,3108.864956,6809.894666,2834.553343
557.617923,3923.091493,7105.977043,2757.943793
557.618244,4663.297435,7179.997637,459.657299
557.618564,2738.761985,6291.750507,459.657299
557.618885,4811.338623,8142.265362,1915.238745
557.619206,5551.544565,9770.718434,842.705048
557.619526,4811.338623,10955.047942,-766.095498
557.619847,5773.606348,10658.965565,-1532.190996
557.620167,6661.853478,9770.718434,-919.314598
557.620488,4737.318029,7698.141797,1838.629195
557.620809,4145.153275,5625.565159,2068.457845
557.621129,3552.988522,5477.523971,0.000000
557.621450,1776.494261,4811.338623,-612.876398
557.621770,2368.659014,4663.297435,1378.971896
557.622091,5921.647536,4737.318029,2604.724693
557.622411,5847.626942,5181.441594,1608.800546
557.622732,3478.967927,5551.544565,1225.752797
557.623053,4737.318029,4959.379811,0.000000
557.623373,5995.668130,4737.318029,76.609550
557.623694,7254.018232,5551.544565,229.828649
557.624014,7402.059420,7550.100608,-1915.238745
557.624335,7328.038826,9474.636058,-4519.963438
557.624655,7254.018232,11325.150913,-3600.648841
557.624976,6439.791695,9252.574275,-1762.019645
557.625297,7698.141797,7105.977043,-1455.581446
557.625617,6365.771101,6735.874072,-1685.410096
557.625938,3256.906145,7031.956449,153.219100
557.626258,2590.720797,7920.203579,1225.752797
557.626579,5477.523971,9178.553681,1455.581446
557.626900,4145.153275,6513.812290,1149.143247
557.627220,4441.235652,4885.359217,2374.896044
557.627541,4811.338623,6291.750507,1608.800546
557.627861,3034.844362,7031.956449,-229.828649
557.628182,1776.494261,7328.038826,-1991.848295
557.628502,5773.606348,9252.574275,-2451.505594
557.628823,7402.059420,12805.562797,-1838.629195
557.629144,6365.771101,14508.036463,0.000000
557.629464,7772.162391,15100.201217,-229.828649
557.629785,6143.709319,12509.480420,-2681.334243
557.630105,4145.153275,11325.150913,-2374.896044
557.630426,3701.029710,7698.141797,0.000000
557.630747,3997.112087,6439.791695,0.000000
557.631067,4071.132681,7105.977043,0.000000
557.631388,4811.338623,9844.739029,919.314598
557.631708,3552.988522,8512.368333,-689.485948
557.632029,3775.050304,6291.750507,-919.314598
557.632349,5403.503377,7105.977043,766.095498
557.632670,5847.626942,6661.853478,459.657299
557.632991,5625.565159,7772.162391,-1762.019645
557.633311,6143.709319,9992.780217,-2528.115143
557.633632,7105.977043,12065.356855,-2911.162892
557.633952,7994.224174,11843.295072,-1685.410096
557.634273,7105.977043,9548.656652,-2604.724693
557.634593,5107.421000,8882.471304,-4213.525239
557.634914,6217.729913,9918.759623,-2451.505594
557.635235,4367.215058,8290.306550,306.438199
557.635555,4885.359217,5255.462188,1608.800546
557.635876,6439.791695,6809.894666,612.876398
557.636196,4145.153275,7772.162391,536.266849
557.636517,2442.679609,6439.791695,995.924147
557.636838,4441.235652,4071.132681,2681.334243
557.637158,5921.647536,3552.988522,2374.896044
557.637479,4441.235652,2368.659014,76.609550
557.637799,4959.379811,4145.153275,-2757.943793
557.638120,5699.585753,9252.574275,-3064.381992
557.638440,6883.915261,12879.583391,-1225.752797
557.638761,7698.141797,13471.748144,-1302.362347
557.639082,7550.100608,10955.047942,-2681.334243
557.639402,5329.482782,9178.553681,-229.828649
557.639723,2738.761985,6587.832884,3217.601092
557.640043,2812.782580,5255.462188,1915.238745
557.640364,3256.906145,5403.503377,-612.876398
557.640685,3330.926739,7105.977043,-612.876398
557.641005,2738.761985,6513.812290,1455.581446
557.641326,4515.256246,5995.668130,3294.210641
557.641646,4367.215058,5403.503377,3983.696590
557.641967,3627.009116,4219.173869,1532.190996
557.642287,3404.947333,4811.338623,-1685.410096
557.642608,4737.318029,7328.038826,-1225.752797
557.642929,5995.668130,10807.006753,459.657299
557.643249,7846.182985,11473.192101,-919.314598
557.643570,7994.224174,12879.583391,-3830.477490
557.643890,4959.379811,12657.521608,-3294.210641
557.644211,4885.359217,11769.274478,76.609550
557.644531,4885.359217,8586.388927,2451.505594
557.644852,4589.276840,5255.462188,2221.676944
557.645173,2368.659014,4515.256246,1072.533697
557.645493,1554.432478,5329.482782,689.485948
557.645814,2886.803174,6957.935855,1149.143247
557.646134,4441.235652,6439.791695,306.438199
557.646455,5107.421000,5477.523971,-2221.676944
557.646776,5403.503377,5033.400406,-1378.971896
557.647096,4663.297435,7402.059420,0.000000
557.647417,5625.565159,9696.697840,153.219100
557.647737,7476.080014,12879.583391,-1915.238745
557.648058,7402.059420,13471.748144,-4673.182538
557.648378,6957.935855,12435.459826,-3140.991542
557.648699,7179.997637,10510.924376,-229.828649
557.649020,4663.297435,7698.141797,153.219100
557.649340,4293.194464,6513.812290,-1991.848295
557.649661,3849.070898,6143.709319,-1455.581446
557.649981,3108.864956,6143.709319,306.438199
557.650302,4441.235652,7550.100608,2068.457845
557.650623,7994.224174,9400.615463,2221.676944
557.650943,3997.112087,6513.812290,-383.047749
557.651264,3997.112087,4219.173869,0.000000
557.651584,6365.771101,6587.832884,229.828649
557.651905,6661.853478,8290.306550,-306.438199
557.652225,5477.523971,8216.285956,-2604.724693
557.652546,9104.533087,11695.253884,-4596.572988
557.652867,8142.265362,14730.098246,-2681.334243
557.653187,5847.626942,13841.851115,1378.971896
557.653508,7402.059420,11769.274478,842.705048
557.653828,4885.359217,7994.224174,-1608.800546
557.654149,2294.638420,5255.462188,-995.924147
557.654469,2294.638420,3923.091493,919.314598
557.654790,3627.009116,5329.482782,459.657299
557.655111,2072.576638,5625.565159,1378.971896
557.655431,4219.173869,6143.709319,536.266849
557.655752,5033.400406,6365.771101,-2221.676944
557.656072,3923.091493,6291.750507,-766.095498
557.656393,3775.050304,5847.626942,995.924147
557.656714,7179.997637,6809.894666,-1915.238745
557.657034,6513.812290,11473.192101,-3447.429741
557.657355,5403.503377,13101.645173,-2681.334243
557.657675,7179.997637,12805.562797,-2834.553343
557.657996,6957.935855,10955.047942,-1455.581446
557.658316,3849.070898,9104.533087,-766.095498
557.658637,1332.370696,4959.379811,-1762.019645
557.658958,1628.453072,2812.782580,-2681.334243
557.659278,1332.370696,3849.070898,-919.314598
557.659599,4071.132681,6661.853478,1991.848295
557.659919,3923.091493,6809.894666,-229.828649
557.660240,2960.823768,6513.812290,-2374.896044
557.660561,3997.112087,8956.491898,0.000000
557.660881,5403.503377,9400.615463,1685.410096
557.661202,5403.503377,6883.915261,689.485948
557.661522,6217.729913,7105.977043,-1302.362347
557.661843,6957.935855,10584.944971,-2068.457845
557.662163,5847.626942,12139.377449,-1532.190996
557.662484,5699.585753,11769.274478,-2145.067394
557.662805,6883.915261,11325.150913,-1991.848295
557.663125,6883.915261,10732.986159,383.047749
557.663446,4515.256246,8364.327145,1455.581446
557.663766,3256.906145,4737.318029,383.047749
557.664087,3478.967927,5625.565159,766.095498
557.664407,4811.338623,7846.182985,1838.629195
557.664728,5329.482782,9326.594869,1915.238745
557.665049,5551.544565,8290.306550,1532.190996
557.665369,6143.709319,8808.450710,1762.019645
557.665690,5625.565159,7698.141797,1455.581446
557.666010,4737.318029,7920.203579,919.314598
557.666331,5625.565159,9918.759623,0.000000
557.666652,5551.544565,11473.192101,-1378.971896
557.666972,6735.874072,12435.459826,-1915.238745
557.667293,8216.285956,12139.377449,229.828649
557.667613,6735.874072,11177.109724,1378.971896
557.667934,3997.112087,8660.409521,2451.505594
557.668254,3849.070898,6365.771101,1608.800546
557.668575,3478.967927,5033.400406,1225.752797
557.668896,3627.009116,4737.318029,2604.724693
557.669216,4367.215058,4515.256246,3983.696590
557.669537,5773.606348,5477.523971,2451.505594
557.669857,3478.967927,5329.482782,0.000000
557.670178,2590.720797,4515.256246,-1149.143247
557.670499,3627.009116,3552.988522,-1302.362347
557.670819,6439.791695,6587.832884,-1149.143247
557.671140,6735.874072,11843.295072,153.219100
557.671460,5255.462188,12583.501014,-1838.629195
557.671781,5625.565159,9918.759623,-4519.963438
557.672101,5255.462188,8882.471304,-2604.724693
557.672422,4367.215058,8512.368333,995.924147
557.672743,2368.659014,4811.338623,1149.143247
557.673063,3627.009116,4293.194464,-919.314598
557.673384,2294.638420,4737.318029,-1685.410096
557.673704,2442.679609,6217.729913,536.266849
557.674025,3849.070898,5921.647536,2528.115143
557.674345,4441.235652,5921.647536,2145.067394
557.674666,4145.153275,7328.038826,1608.800546
557.674987,4811.338623,7994.224174,612.876398
557.675307,3627.009116,6365.771101,-612.876398
557.675628,3404.947333,4441.235652,229.828649
557.675948,8512.368333,10288.862594,919.314598
557.676269,7550.100608,14137.933492,-1991.848295
557.676590,4885.359217,12879.583391,-3677.258390
557.676910,6809.894666,11917.315666,-2757.943793
557.677231,9400.615463,11473.192101,76.609550
557.677551,2960.823768,7772.162391,2604.724693
557.677872,2812.782580,4737.318029,766.095498
557.678192,4811.338623,6883.915261,-2145.067394
557.678513,3552.988522,7920.203579,766.095498
557.678834,4959.379811,7328.038826,2068.457845
557.679154,6513.812290,5033.400406,-919.314598
557.679475,4663.297435,5995.668130,-2298.286494
557.679795,5551.544565,8364.327145,306.438199
557.680116,7105.977043,10510.924376,-459.657299
557.680437,6883.915261,11473.192101,-2528.115143
557.680757,8068.244768,13619.789333,-1915.238745
557.681078,7105.977043,13027.624579,-1991.848295
557.681398,6365.771101,11325.150913,-919.314598
557.681719,4589.276840,11917.315666,689.485948
557.682039,3997.112087,9696.697840,-766.095498
557.682360,3256.906145,6513.812290,-2834.553343
557.682681,3182.885551,5551.544565,-383.047749
557.683001,2220.617826,6291.750507,1915.238745
557.683322,1110.308913,4663.297435,1072.533697
557.683642,3701.029710,5551.544565,-612.876398
557.683963,3108.864956,6143.709319,-1149.143247
557.684283,5033.400406,6661.853478,-612.876398
557.684604,7846.182985,8512.368333,-306.438199
557.684925,8882.471304,12731.542202,-612.876398
557.685245,5847.626942,13841.851115,-1302.362347
557.685566,7105.977043,10955.047942,-1991.848295
557.685886,7772.162391,7698.141797,-1072.533697
557.686207,5995.668130,6439.791695,1608.800546
557.686528,5181.441594,6809.894666,689.485948
557.686848,4145.153275,6513.812290,-2604.724693
557.687169,3034.844362,6513.812290,-2987.772442
557.687489,4071.132681,7476.080014,459.657299
557.687810,6513.812290,7328.038826,2451.505594
557.688130,5329.482782,5403.503377,3447.429741
557.688451,3701.029710,5995.668130,3294.210641
557.688772,4219.173869,7772.162391,1685.410096
557.689092,4515.256246,6957.935855,1302.362347
557.689413,5625.565159,7920.203579,1072.533697
557.689733,7105.977043,9178.553681,1302.362347
557.690054,6069.688724,10955.047942,766.095498
557.690375,3627.009116,10140.821405,-383.047749
557.690695,5995.668130,10955.047942,-2451.505594
557.691016,3701.029710,9178.553681,-1762.019645
557.691336,2812.782580,6143.709319,1838.629195
557.691657,5255.462188,5773.606348,3600.648841
557.691977,5255.462188,8142.265362,2374.896044
557.692298,1628.453072,7624.121203,2374.896044
557.692619,2812.782580,6143.709319,2757.943793
557.692939,5995.668130,5403.503377,2681.334243
557.693260,4441.235652,4959.379811,2757.943793
557.693580,4293.194464,4367.215058,1685.410096
557.693901,4293.194464,4441.235652,-1302.362347
557.694221,4219.173869,6661.853478,-1149.143247
557.694542,4885.359217,9326.594869,1455.581446
557.694863,6661.853478,10066.800811,-1991.848295
557.695183,5181.441594,9474.636058,-6128.763984
557.695504,6291.750507,9992.780217,-2834.553343
557.695824,5847.626942,10066.800811,-1149.143247
557.696145,5995.668130,7402.059420,-229.828649
557.696466,5255.462188,7254.018232,-459.657299
557.696786,4367.215058,7105.977043,-153.219100
557.697107,3701.029710,6809.894666,766.095498
557.697427,3923.091493,6143.709319,2528.115143
557.697748,3923.091493,4367.215058,1762.019645
557.698068,4515.256246,3627.009116,153.219100
557.698389,5403.503377,5773.606348,0.000000
557.698710,2516.700203,6513.812290,-919.314598
557.699030,4885.359217,8290.306550,-306.438199
557.699351,8586.388927,12657.521608,-383.047749
557.699671,6735.874072,13397.727550,-2068.457845
557.699992,5033.400406,11991.336260,-2834.553343
557.700313,7920.203579,12287.418637,-1608.800546
557.700633,6587.832884,12583.501014,-1225.752797
557.700954,2294.638420,9548.656652,153.219100
557.701274,4959.379811,7698.141797,-842.705048
557.701595,4441.235652,7105.977043,-536.266849
557.701915,2368.659014,8364.327145,1991.848295
557.702236,3404.947333,8068.244768,1685.410096
557.702557,6365.771101,7105.977043,-1072.533697
557.702877,4367.215058,6513.812290,0.000000
557.703198,5773.606348,7476.080014,3907.087040
557.703518,7772.162391,8142.265362,2757.943793
557.703839,7402.059420,9474.636058,-459.657299
557.704159,5847.626942,10288.862594,-2834.553343
557.704480,7328.038826,10807.006753,-3600.648841
557.704801,9918.759623,11177.109724,-2681.334243
557.705121,8364.327145,9474.636058,-383.047749
557.705442,8216.285956,9252.574275,-1608.800546
557.705762,5329.482782,8808.450710,-1915.238745
557.706083,2590.720797,6809.894666,0.000000
557.706404,2960.823768,6143.709319,1378.971896
557.706724,6143.709319,6217.729913,1915.238745
557.707045,2886.803174,4737.318029,842.705048
557.707365,1776.494261,3182.885551,-383.047749
557.707686,4367.215058,4071.132681,-1149.143247
557.708006,2960.823768,5181.441594,-383.047749
557.708327,3330.926739,7179.997637,0.000000
557.708648,5773.606348,10066.800811,-1762.019645
557.708968,6069.688724,12435.459826,-2604.724693
557.709289,4293.194464,13619.789333,-536.266849
557.709609,6217.729913,11251.130318,229.828649
557.709930,5033.400406,8216.285956,0.000000
557.710251,3108.864956,6217.729913,76.609550
557.710571,1184.329507,5773.606348,76.609550
557.710892,1924.535449,5033.400406,-1225.752797
557.711212,3701.029710,5551.544565,1149.143247
557.711533,4145.153275,5329.482782,2528.115143
557.711854,5255.462188,6439.791695,1149.143247
557.712174,5033.400406,7179.997637,612.876398
557.712495,3627.009116,7179.997637,919.314598
557.712815,4663.297435,6587.832884,1838.629195
557.713136,7105.977043,6587.832884,1072.533697
557.713457,5995.668130,8364.327145,-1072.533697
557.713777,7105.977043,11473.192101,-2528.115143
557.714098,8290.306550,13693.809927,-3677.258390
557.714418,6587.832884,10881.027347,-2834.553343
557.714739,7328.038826,9400.615463,-459.657299
557.715060,5625.565159,7105.977043,2757.943793
557.715380,4219.173869,6513.812290,1991.848295
557.715701,2442.679609,6143.709319,1302.362347
557.716021,4737.318029,7846.182985,612.876398
557.716342,4515.256246,7624.121203,612.876398
557.716662,6143.709319,7476.080014,2374.896044
557.716983,5625.565159,6957.935855,2834.553343
557.717304,4441.235652,6143.709319,1685.410096
557.717624,4071.132681,7772.162391,229.828649
557.717945,5181.441594,7772.162391,-612.876398
557.718265,5625.565159,10066.800811,-2145.067394
557.718586,6217.729913,9992.780217,-1762.019645
557.718907,6957.935855,10658.965565,-2604.724693
557.719227,6143.709319,9622.677246,-3447.429741
557.719548,5255.462188,9178.553681,-3370.820191
557.719868,4663.297435,9400.615463,-1378.971896
557.720189,4515.256246,6513.812290,153.219100
557.720510,4737.318029,6513.812290,-383.047749
557.720830,5699.585753,6883.915261,0.000000
557.721151,4589.276840,7328.038826,1378.971896
557.721471,3923.091493,4737.318029,1532.190996
557.721792,5477.523971,4885.359217,76.609550
557.722113,2960.823768,4663.297435,-766.095498
557.722433,3923.091493,5847.626942,-1608.800546
557.722754,6217.729913,8290.306550,-2068.457845
557.723074,7328.038826,11843.295072,-1608.800546
557.723395,6143.709319,13027.624579,-1915.238745
557.723716,7476.080014,13323.706956,-2451.505594
557.724036,5181.441594,11843.295072,-2528.115143
557.724357,2516.700203,8882.471304,995.924147
557.724677,3775.050304,7105.977043,1685.410096
557.724998,3478.967927,5551.544565,-1302.362347
557.725319,1554.432478,6587.832884,-2221.676944
557.725639,2960.823768,8808.450710,-76.609550
557.725960,5181.441594,9696.697840,995.924147
557.726280,2886.803174,6069.688724,2451.505594
557.726601,4441.235652,5551.544565,2298.286494
557.726922,4811.338623,6365.771101,842.705048
557.727242,3923.091493,7105.977043,-536.266849
557.727563,5773.606348,9696.697840,-1455.581446
557.727883,9030.512492,11473.192101,-2374.896044
557.728204,8882.471304,12287.418637,-3064.381992
557.728525,8734.430116,11843.295072,-1072.533697
557.728845,7402.059420,10732.986159,0.000000
557.729166,3404.947333,7254.018232,0.000000
557.729486,4145.153275,5699.585753,-153.219100
557.729807,4589.276840,5033.400406,-842.705048
557.730128,4811.338623,5921.647536,842.705048
557.730448,3256.906145,6957.935855,2298.286494
557.730769,4663.297435,7031.956449,-612.876398
557.731089,3034.844362,5403.503377,-2221.676944
557.731410,2590.720797,3552.988522,-229.828649
557.731731,5625.565159,6069.688724,842.705048
557.732051,7105.977043,9696.697840,536.266849
557.732372,5403.503377,11695.253884,-1608.800546
557.732692,6143.709319,11325.150913,-4060.306139
557.733013,7846.182985,11251.130318,-1991.848295
557.733334,5995.668130,9400.615463,1455.581446
557.733654,5551.544565,8660.409521,612.876398
557.733975,2886.803174,7105.977043,-2298.286494
557.734295,1702.473667,5181.441594,-1685.410096
557.734616,4293.194464,5699.585753,2451.505594
557.734937,5255.462188,6143.709319,3983.696590
557.735257,2516.700203,5477.523971,1685.410096
557.735578,3552.988522,5403.503377,-459.657299
557.735898,5921.647536,7328.038826,76.609550
557.736219,5255.462188,7328.038826,1762.019645
557.736540,5773.606348,7550.100608,1608.800546
557.736860,6365.771101,7920.203579,-1685.410096
557.737181,6661.853478,10140.821405,-2604.724693
557.737501,5107.421000,11621.233289,-1378.971896
557.737822,8364.327145,12435.459826,-1149.143247
557.738143,6809.894666,11029.068536,-1915.238745
557.738463,3923.091493,8438.347739,-842.705048
557.738784,3775.050304,7105.977043,-383.047749
557.739104,3478.967927,6735.874072,1532.190996
557.739425,4441.235652,7772.162391,2757.943793
557.739746,3997.112087,6809.894666,1532.190996
557.740066,3627.009116,5995.668130,-229.828649
557.740387,2960.823768,5551.544565,766.095498
557.740707,4441.235652,6439.791695,2757.943793
557.741028,4589.276840,6439.791695,2145.067394
557.741349,5921.647536,8512.368333,-612.876398
557.741669,5255.462188,11695.253884,-2451.505594
557.741990,5699.585753,12657.521608,-2757.943793
557.742310,6587.832884,12731.542202,-1149.143247
557.742631,6587.832884,10362.883188,0.000000
557.742952,5551.544565,8882.471304,-1225.752797
557.743272,2368.659014,5921.647536,-2068.457845
557.743593,4737.318029,8068.244768,-1532.190996
557.743913,4071.132681,8364.327145,1608.800546
557.744234,4885.359217,7105.977043,1378.971896
557.744555,4811.338623,6143.709319,612.876398
557.744875,4737.318029,6069.688724,459.657299
557.745196,4071.132681,5625.565159,3140.991542
557.745516,5847.626942,4737.318029,3064.381992
557.745837,5181.441594,4589.276840,-919.314598
557.746158,5403.503377,6661.853478,-2604.724693
557.746478,7994.224174,12361.439231,-2834.553343
557.746799,6735.874072,12435.459826,-2681.334243
557.747119,8142.265362,12065.356855,-612.876398
557.747440,7994.224174,11547.212695,0.000000
557.747760,4737.318029,9326.594869,-995.924147
557.748081,666.185348,5255.462188,-612.876398
557.748402,2664.741391,5181.441594,-306.438199
557.748722,2960.823768,7920.203579,0.000000
557.749043,2516.700203,7105.977043,383.047749
557.749363,3034.844362,7105.977043,-536.266849
557.749684,4145.153275,6513.812290,0.000000
557.750005,2294.638420,6513.812290,2145.067394
557.750325,2516.700203,4885.359217,2834.553343
557.750646,5699.585753,6587.832884,-919.314598
557.750966,5033.400406,10066.800811,-1991.848295
557.751287,5921.647536,13249.686362,-459.657299
557.751608,8142.265362,12731.542202,-1915.238745
557.751928,9252.574275,11917.315666,-2451.505594
557.752249,5403.503377,9918.759623,-1149.143247
557.752569,3627.009116,7105.977043,-1608.800546
557.752890,3330.926739,5847.626942,-1532.190996
557.753211,3701.029710,7179.997637,1608.800546
557.753531,5107.421000,8586.388927,2911.162892
557.753852,4071.132681,8216.285956,1072.533697
557.754172,3552.988522,6661.853478,-612.876398
557.754493,2442.679609,5847.626942,0.000000
557.754814,5477.523971,6439.791695,536.266849
557.755134,4885.359217,5995.668130,536.266849
557.755455,5921.647536,7105.977043,-689.485948
557.755775,6661.853478,11029.068536,-1225.752797
557.756096,6587.832884,12509.480420,-612.876398
557.756417,6957.935855,11695.253884,-1149.143247
557.756737,7476.080014,10362.883188,-2374.896044
557.757058,7476.080014,12509.480420,-1838.629195
557.757378,5033.400406,10732.986159,919.314598
557.757699,3997.112087,6661.853478,1378.971896
557.758020,5477.523971,3849.070898,536.266849
557.758340,4811.338623,6365.771101,2298.286494
557.758661,1998.556043,6735.874072,3447.429741
557.758981,4367.215058,6735.874072,2298.286494
557.759302,4589.276840,5255.462188,1455.581446
557.759623,4219.173869,4811.338623,1685.410096
557.759943,5403.503377,7105.977043,1302.362347
557.760264,5847.626942,8808.450710,306.438199
557.760584,4885.359217,10288.862594,-1225.752797
557.760905,6513.812290,11473.192101,-1762.019645
557.761226,8438.347739,11917.315666,-2298.286494
557.761546,5551.544565,10955.047942,-76.609550
557.761867,4145.153275,9696.697840,1991.848295
557.762187,3330.926739,8586.388927,1225.752797
557.762508,2886.803174,6143.709319,229.828649
