#time,accel_x,accel_y,accel_z
165.974747,5033.400406,7994.224174,-306.438199
165.975068,4811.338623,8216.285956,0.000000
165.975389,5181.441594,7920.203579,0.000000
165.975710,5033.400406,7846.182985,-229.828649
165.976031,5403.503377,7994.224174,-306.438199
165.976352,4959.379811,8142.265362,0.000000
165.976673,4885.359217,7846.182985,-229.828649
165.976994,4959.379811,8068.244768,-306.438199
165.977315,4737.318029,8142.265362,-229.828649
165.977636,4885.359217,8216.285956,-306.438199
165.977957,4737.318029,8142.265362,0.000000
165.978278,4959.379811,8068.244768,-229.828649
165.978599,5107.421000,7772.162391,0.000000
165.978920,4811.338623,8290.306550,0.000000
165.979241,4737.318029,7772.162391,-76.609550
165.979562,4737.318029,8142.265362,0.000000
165.979883,5033.400406,7994.224174,-153.219100
165.980204,4737.318029,8068.244768,-229.828649
165.980525,4811.338623,8142.265362,76.609550
165.980846,5033.400406,7994.224174,-153.219100
165.981167,4811.338623,8290.306550,0.000000
165.981489,5033.400406,8068.244768,0.000000
165.981810,5255.462188,7846.182985,76.609550
165.982131,4885.359217,7994.224174,0.000000
165.982452,5107.421000,7994.224174,0.000000
165.982773,4959.379811,8142.265362,-76.609550
165.983094,5107.421000,7994.224174,-383.047749
165.983415,4885.359217,8142.265362,0.000000
165.983736,5181.441594,8290.306550,0.000000
165.984057,4959.379811,8068.244768,0.000000
165.984378,4959.379811,7994.224174,0.000000
165.984699,4959.379811,8142.265362,-306.438199
165.985020,4885.359217,8882.471304,-153.219100
165.985341,5033.400406,8586.388927,0.000000
165.985662,4811.338623,8216.285956,-229.828649
165.985983,4811.338623,7994.224174,-459.657299
165.986304,4441.235652,7402.059420,0.000000
165.986625,4145.153275,7920.203579,0.000000
165.986946,4293.194464,9474.636058,-306.438199
165.987267,4515.256246,9844.739029,-919.314598
165.987588,4737.318029,10066.800811,-1378.971896
165.987909,4293.194464,9400.615463,-1072.533697
165.988230,4071.132681,8660.409521,-536.266849
165.988551,2960.823768,8660.409521,76.609550
165.988872,2664.741391,9104.533087,612.876398
165.989193,2516.700203,8956.491898,536.266849
165.989514,2590.720797,8586.388927,0.000000
165.989835,2812.782580,7994.224174,-689.485948
165.990156,3256.906145,9326.594869,-229.828649
165.990477,2886.803174,9844.739029,0.000000
165.990798,2664.741391,9548.656652,306.438199
165.991120,2368.659014,9030.512492,229.828649
165.991441,2368.659014,9030.512492,0.000000
165.991762,2072.576638,9474.636058,-536.266849
165.992083,1924.535449,11177.109724,-766.095498
165.992404,1258.350101,11547.212695,-1608.800546
165.992725,1184.329507,11547.212695,-1608.800546
165.993046,962.267725,11177.109724,-1532.190996
165.993367,296.082377,11473.192101,-1072.533697
165.993688,-814.226536,11917.315666,-383.047749
165.994009,-1406.391290,12657.521608,153.219100
165.994330,-1776.494261,12435.459826,919.314598
165.994651,-1924.535449,11769.274478,1072.533697
165.994972,-1184.329507,11325.150913,1991.848295
165.995293,-1036.288319,11843.295072,1608.800546
165.995614,-2516.700203,12065.356855,689.485948
165.995935,-2368.659014,11251.130318,-612.876398
165.996256,-1406.391290,10288.862594,-995.924147
165.996577,-444.123565,9770.718434,229.828649
165.996898,-444.123565,10436.903782,1455.581446
165.997219,0.000000,10807.006753,536.266849
165.997540,296.082377,11251.130318,-842.705048
165.997861,814.226536,11843.295072,-1455.581446
165.998182,1702.473667,10807.006753,-76.609550
165.998503,2664.741391,10510.924376,-612.876398
165.998824,2886.803174,10436.903782,-306.438199
165.999145,2442.679609,10140.821405,-1685.410096
165.999466,1776.494261,9918.759623,-2681.334243
165.999787,1924.535449,9622.677246,-1991.848295
166.000108,2072.576638,10214.842000,-383.047749
166.000430,2072.576638,10362.883188,383.047749
166.000751,1184.329507,10362.883188,0.000000
166.001072,518.144159,10732.986159,-536.266849
166.001393,148.041188,11103.089130,612.876398
166.001714,0.000000,11103.089130,459.657299
166.002035,74.020594,10362.883188,612.876398
166.002356,296.082377,10214.842000,1072.533697
166.002677,0.000000,10510.924376,995.924147
166.002998,-518.144159,10436.903782,1532.190996
166.003319,-370.102971,10510.924376,1149.143247
166.003640,518.144159,11103.089130,1072.533697
166.003961,1332.370696,10955.047942,842.705048
166.004282,1702.473667,10732.986159,0.000000
166.004603,1924.535449,10510.924376,-1455.581446
166.004924,2294.638420,10807.006753,-1455.581446
166.005245,1628.453072,10214.842000,-689.485948
166.005566,2072.576638,9030.512492,0.000000
166.005887,2294.638420,8586.388927,76.609550
166.006208,2072.576638,8586.388927,229.828649
166.006529,2146.597232,9918.759623,229.828649
166.006850,2368.659014,10658.965565,-306.438199
166.007171,2664.741391,10584.944971,-459.657299
166.007492,3034.844362,9992.780217,-995.924147
166.007813,3552.988522,9326.594869,-995.924147
166.008134,3182.885551,9696.697840,-919.314598
166.008455,1850.514855,10066.800811,-689.485948
166.008776,1480.411884,10140.821405,-459.657299
166.009097,814.226536,11029.068536,0.000000
166.009418,592.164754,11103.089130,-383.047749
166.009740,444.123565,10881.027347,-1378.971896
166.010061,-296.082377,10362.883188,-1685.410096
166.010382,-1776.494261,9770.718434,-1608.800546
166.010703,-2146.597232,9178.553681,229.828649
166.011024,-1110.308913,10362.883188,1915.238745
166.011345,-740.205942,11843.295072,2451.505594
166.011666,-518.144159,13323.706956,2068.457845
166.011987,-222.061783,13693.809927,766.095498
166.012308,740.205942,12879.583391,76.609550
166.012629,814.226536,11917.315666,-229.828649
166.012950,1036.288319,10066.800811,0.000000
166.013271,1110.308913,9252.574275,-842.705048
166.013592,296.082377,9178.553681,-1225.752797
166.013913,-1110.308913,9548.656652,-1608.800546
166.014234,-1184.329507,10362.883188,-2451.505594
166.014555,-1036.288319,10362.883188,-1685.410096
166.014876,444.123565,11769.274478,-383.047749
166.015197,1258.350101,12805.562797,459.657299
166.015518,962.267725,13619.789333,0.000000
166.015839,592.164754,14137.933492,-383.047749
166.016160,296.082377,13619.789333,-919.314598
166.016481,370.102971,11621.233289,-1149.143247
166.016802,814.226536,9104.533087,-919.314598
166.017123,962.267725,7105.977043,-766.095498
166.017444,1554.432478,8586.388927,919.314598
166.017765,740.205942,10658.965565,1991.848295
166.018086,-222.061783,11473.192101,995.924147
166.018407,0.000000,10807.006753,766.095498
166.018728,518.144159,9696.697840,689.485948
166.019050,444.123565,8512.368333,842.705048
166.019371,962.267725,9104.533087,689.485948
166.019692,1628.453072,11251.130318,-842.705048
166.020013,592.164754,12805.562797,-2374.896044
166.020334,370.102971,13027.624579,-2604.724693
166.020655,1554.432478,13471.748144,-1532.190996
166.020976,1110.308913,14137.933492,-306.438199
166.021297,296.082377,13323.706956,1378.971896
166.021618,222.061783,11251.130318,1149.143247
166.021939,-444.123565,9474.636058,842.705048
166.022260,-666.185348,9178.553681,689.485948
166.022581,-740.205942,8512.368333,612.876398
166.022902,-1480.411884,8290.306550,536.266849
166.023223,-518.144159,8216.285956,1072.533697
166.023544,814.226536,8882.471304,1685.410096
166.023865,888.247130,10288.862594,1149.143247
166.024186,1702.473667,13175.665768,0.000000
166.024507,1258.350101,13101.645173,-1072.533697
166.024828,1628.453072,10955.047942,-2451.505594
166.025149,2960.823768,7772.162391,-2451.505594
166.025470,1924.535449,6587.832884,-919.314598
166.025791,3404.947333,9178.553681,1225.752797
166.026112,1924.535449,12731.542202,1149.143247
166.026433,148.041188,13841.851115,-2451.505594
166.026754,1406.391290,12139.377449,-3677.258390
166.027075,2072.576638,9992.780217,-2374.896044
166.027396,0.000000,7254.018232,-995.924147
166.027717,-1332.370696,6957.935855,-383.047749
166.028038,-666.185348,10140.821405,0.000000
166.028360,-296.082377,13915.871710,0.000000
166.028681,-814.226536,14730.098246,995.924147
166.029002,-962.267725,14359.995275,153.219100
166.029323,-1110.308913,14211.954086,229.828649
166.029644,-2146.597232,13619.789333,1762.019645
166.029965,-2072.576638,11399.171507,1072.533697
166.030286,-1184.329507,9622.677246,689.485948
166.030607,-222.061783,9696.697840,766.095498
166.030928,-814.226536,10881.027347,1225.752797
166.031249,-1702.473667,10732.986159,995.924147
166.031570,-1258.350101,9548.656652,1072.533697
166.031891,1184.329507,8956.491898,1685.410096
166.032212,3330.926739,8882.471304,2145.067394
166.032533,4441.235652,10436.903782,306.438199
166.032854,4589.276840,11917.315666,-2068.457845
166.033175,4145.153275,13249.686362,-4290.134789
166.033496,3849.070898,11621.233289,-3907.087040
166.033817,3923.091493,8290.306550,-3064.381992
166.034138,3997.112087,6809.894666,-459.657299
166.034459,4071.132681,9622.677246,306.438199
166.034780,1258.350101,13027.624579,-383.047749
166.035101,74.020594,13767.830521,-2451.505594
166.035422,74.020594,11547.212695,-2374.896044
166.035742,-518.144159,9548.656652,612.876398
166.036063,-1332.370696,9474.636058,2528.115143
166.036384,-1998.556043,9474.636058,1225.752797
166.036705,-1924.535449,11917.315666,-766.095498
166.037026,-1776.494261,13619.789333,-1149.143247
166.037347,-2368.659014,13323.706956,0.000000
166.037667,-1480.411884,11843.295072,1762.019645
166.037988,-296.082377,10288.862594,2528.115143
166.038309,-296.082377,10066.800811,3753.867940
166.038630,0.000000,10510.924376,2451.505594
166.038951,370.102971,10955.047942,-306.438199
166.039272,444.123565,9474.636058,-689.485948
166.039592,1776.494261,8068.244768,1225.752797
166.039913,4515.256246,6513.812290,2145.067394
166.040234,2442.679609,5847.626942,153.219100
166.040555,4145.153275,7254.018232,-1838.629195
166.040876,5995.668130,11621.233289,-2374.896044
166.041196,4663.297435,12287.418637,-2757.943793
166.041517,5921.647536,9918.759623,-2068.457845
166.041838,7698.141797,8586.388927,-766.095498
166.042159,4071.132681,6957.935855,-1532.190996
166.042480,1184.329507,6069.688724,-1762.019645
166.042801,3182.885551,7698.141797,-1378.971896
166.043121,2738.761985,11695.253884,-1608.800546
166.043442,2590.720797,12953.603985,-1838.629195
166.043763,3404.947333,11621.233289,-2911.162892
166.044084,2220.617826,9918.759623,-1838.629195
166.044405,740.205942,10584.944971,2528.115143
166.044726,-592.164754,10362.883188,4596.572988
166.045046,-1776.494261,8586.388927,1838.629195
166.045367,148.041188,8512.368333,1378.971896
166.045688,1110.308913,9548.656652,3370.820191
166.046009,1554.432478,10288.862594,2681.334243
166.046330,3330.926739,10584.944971,76.609550
166.046650,3404.947333,10066.800811,-919.314598
166.046971,3478.967927,9104.533087,-229.828649
166.047292,5477.523971,6957.935855,1302.362347
166.047613,6217.729913,4737.318029,1532.190996
166.047934,7031.956449,4293.194464,306.438199
166.048255,8586.388927,5847.626942,-383.047749
166.048575,9030.512492,8068.244768,-2221.676944
166.048896,9918.759623,8512.368333,-3370.820191
166.049217,10658.965565,9178.553681,-3064.381992
166.049538,10658.965565,8734.430116,-2374.896044
166.049859,9104.533087,7624.121203,-1838.629195
166.050179,6735.874072,6217.729913,-1455.581446
166.050500,5551.544565,6069.688724,-2528.115143
166.050821,6143.709319,6957.935855,-2221.676944
166.051142,4737.318029,7994.224174,-383.047749
166.051463,3849.070898,8438.347739,612.876398
166.051784,2886.803174,8882.471304,306.438199
166.052104,2146.597232,9252.574275,383.047749
166.052425,2442.679609,9252.574275,919.314598
166.052746,2442.679609,9770.718434,1532.190996
166.053067,1036.288319,8956.491898,1991.848295
166.053388,74.020594,9104.533087,1302.362347
166.053709,1702.473667,10510.924376,1685.410096
166.054029,2664.741391,12139.377449,1608.800546
166.054350,2220.617826,11843.295072,1072.533697
166.054671,2664.741391,10955.047942,383.047749
166.054992,2072.576638,9844.739029,-306.438199
166.055313,3034.844362,7920.203579,842.705048
166.055633,3997.112087,5773.606348,2068.457845
166.055954,4367.215058,3923.091493,2451.505594
166.056275,5625.565159,5625.565159,2068.457845
166.056596,6883.915261,7920.203579,-689.485948
166.056917,6365.771101,7698.141797,-2757.943793
166.057238,9622.677246,6439.791695,-995.924147
166.057558,10584.944971,6439.791695,229.828649
166.057879,9104.533087,6143.709319,-1149.143247
166.058200,10214.842000,7105.977043,-3140.991542
166.058521,8512.368333,7846.182985,-4366.744339
166.058842,7550.100608,7179.997637,-2757.943793
166.059163,8882.471304,7031.956449,-383.047749
166.059483,7994.224174,6365.771101,-1378.971896
166.059804,5477.523971,6513.812290,-2911.162892
166.060125,4959.379811,7698.141797,-459.657299
166.060446,3775.050304,8660.409521,612.876398
166.060767,2368.659014,6883.915261,1225.752797
166.061087,3849.070898,6143.709319,1991.848295
166.061408,4515.256246,7624.121203,1762.019645
166.061729,1924.535449,8956.491898,2221.676944
166.062050,1776.494261,9030.512492,3064.381992
166.062371,2886.803174,8216.285956,1762.019645
166.062692,4737.318029,8290.306550,995.924147
166.063012,3701.029710,9178.553681,766.095498
166.063333,2516.700203,8882.471304,0.000000
166.063654,3330.926739,8068.244768,-1302.362347
166.063975,4737.318029,8734.430116,-1915.238745
166.064296,4885.359217,8216.285956,-1225.752797
166.064617,7105.977043,7179.997637,0.000000
166.064937,5773.606348,6661.853478,-383.047749
166.065258,5995.668130,6217.729913,-1685.410096
166.065579,8068.244768,9326.594869,-919.314598
166.065900,7920.203579,10658.965565,-383.047749
166.066221,6957.935855,8882.471304,-1225.752797
166.066541,8956.491898,7772.162391,-1302.362347
166.066862,7698.141797,6587.832884,-2528.115143
166.067183,6291.750507,7476.080014,-3370.820191
166.067504,6513.812290,8068.244768,-842.705048
166.067825,4737.318029,7698.141797,-459.657299
166.068146,2886.803174,6809.894666,-689.485948
166.068466,4959.379811,6957.935855,383.047749
166.068787,4737.318029,8216.285956,766.095498
166.069108,3330.926739,9178.553681,995.924147
166.069429,3034.844362,10955.047942,-229.828649
166.069750,3108.864956,10732.986159,-2451.505594
166.070071,3701.029710,9400.615463,-1838.629195
166.070391,5773.606348,9770.718434,1378.971896
166.070712,3701.029710,8882.471304,2298.286494
166.071033,2442.679609,9104.533087,689.485948
166.071354,3478.967927,10066.800811,-536.266849
166.071675,3997.112087,8882.471304,-2451.505594
166.071995,4441.235652,7328.038826,842.705048
166.072316,5403.503377,7772.162391,1838.629195
166.072637,5181.441594,7624.121203,76.609550
166.072958,4737.318029,7254.018232,-1685.410096
166.073279,6143.709319,7624.121203,-1915.238745
166.073600,7105.977043,7031.956449,-229.828649
166.073920,6661.853478,6217.729913,1149.143247
166.074241,6513.812290,6735.874072,153.219100
166.074562,7476.080014,8290.306550,-612.876398
166.074883,6217.729913,10214.842000,-1378.971896
166.075204,5551.544565,8734.430116,-1532.190996
166.075525,7328.038826,5699.585753,-1455.581446
166.075845,7031.956449,4811.338623,-766.095498
166.076166,6587.832884,6291.750507,0.000000
166.076487,4589.276840,7179.997637,-612.876398
166.076808,3478.967927,7105.977043,-766.095498
166.077129,5403.503377,6513.812290,0.000000
166.077449,6661.853478,7254.018232,1991.848295
166.077770,5403.503377,7624.121203,1072.533697
166.078091,4441.235652,8586.388927,-306.438199
166.078412,4441.235652,8660.409521,0.000000
166.078733,5107.421000,7105.977043,229.828649
166.079054,5847.626942,5551.544565,459.657299
166.079374,5995.668130,6365.771101,0.000000
166.079695,5255.462188,9104.533087,0.000000
166.080016,3923.091493,9622.677246,0.000000
166.080337,5033.400406,8068.244768,-919.314598
166.080658,6661.853478,6809.894666,0.000000
166.080979,6439.791695,7328.038826,2528.115143
166.081299,5255.462188,8364.327145,2298.286494
166.081620,4367.215058,7846.182985,-536.266849
166.081941,4737.318029,7846.182985,-1762.019645
166.082262,5921.647536,7476.080014,0.000000
166.082583,6883.915261,7105.977043,1838.629195
166.082903,5403.503377,7772.162391,1991.848295
166.083224,4811.338623,8882.471304,76.609550
166.083545,5033.400406,9326.594869,-995.924147
166.083866,4811.338623,7994.224174,76.609550
166.084187,4737.318029,5773.606348,689.485948
166.084508,6661.853478,6587.832884,383.047749
166.084828,6069.688724,7994.224174,-612.876398
166.085149,4219.173869,7994.224174,-2681.334243
166.085470,4885.359217,7105.977043,-1532.190996
166.085791,5181.441594,6587.832884,229.828649
166.086112,5255.462188,7105.977043,1302.362347
166.086433,7031.956449,8438.347739,153.219100
166.086753,5699.585753,9770.718434,-1532.190996
166.087074,4441.235652,9104.533087,-1838.629195
166.087395,5921.647536,7994.224174,76.609550
166.087716,5995.668130,7698.141797,0.000000
166.088037,5847.626942,7920.203579,-306.438199
166.088357,4811.338623,7476.080014,-689.485948
166.088678,3849.070898,7328.038826,-1225.752797
166.088999,3701.029710,7624.121203,0.000000
166.089320,3330.926739,7624.121203,919.314598
166.089641,3849.070898,7402.059420,1302.362347
166.089962,4219.173869,7550.100608,1685.410096
166.090282,3627.009116,7402.059420,459.657299
166.090603,3775.050304,7994.224174,-2221.676944
166.090924,5699.585753,10436.903782,-3217.601092
166.091245,4737.318029,11103.089130,-1915.238745
166.091566,4219.173869,9548.656652,-919.314598
166.091887,5847.626942,7772.162391,0.000000
166.092207,5921.647536,7105.977043,0.000000
166.092528,4589.276840,8882.471304,-766.095498
166.092849,4293.194464,9326.594869,-1455.581446
166.093170,4737.318029,8512.368333,-2298.286494
166.093491,6217.729913,6587.832884,-1455.581446
166.093811,6735.874072,5551.544565,919.314598
166.094132,6439.791695,6809.894666,1455.581446
166.094453,4367.215058,8438.347739,153.219100
166.094774,2516.700203,8808.450710,-1072.533697
166.095095,5477.523971,8290.306550,-1915.238745
166.095416,7624.121203,7920.203579,-459.657299
166.095736,7772.162391,7994.224174,766.095498
166.096057,6439.791695,8882.471304,459.657299
166.096378,4737.318029,9770.718434,-536.266849
166.096699,3997.112087,8734.430116,-2068.457845
166.097020,5403.503377,7476.080014,-689.485948
166.097340,5107.421000,7105.977043,-76.609550
166.097661,3330.926739,6883.915261,0.000000
166.097982,3478.967927,7328.038826,459.657299
166.098303,5847.626942,9030.512492,689.485948
166.098624,5255.462188,8364.327145,1072.533697
166.098945,4589.276840,6291.750507,689.485948
166.099265,5477.523971,7105.977043,0.000000
166.099586,4959.379811,8660.409521,-842.705048
166.099907,5033.400406,8882.471304,0.000000
166.100228,6513.812290,7328.038826,0.000000
166.100549,5847.626942,6143.709319,306.438199
166.100870,5477.523971,7402.059420,-153.219100
166.101190,5107.421000,8660.409521,-612.876398
166.101511,4737.318029,8956.491898,-2221.676944
166.101832,5329.482782,9400.615463,-1225.752797
166.102153,6143.709319,8438.347739,0.000000
166.102474,5995.668130,7179.997637,383.047749
166.102794,6217.729913,7254.018232,612.876398
166.103115,4737.318029,7550.100608,995.924147
166.103436,2516.700203,7105.977043,459.657299
166.103757,3256.906145,7402.059420,76.609550
166.104078,4811.338623,9622.677246,-306.438199
166.104399,4293.194464,9770.718434,536.266849
166.104719,4959.379811,9474.636058,766.095498
166.105040,4367.215058,8068.244768,536.266849
166.105361,1776.494261,7402.059420,-1072.533697
166.105682,3404.947333,8364.327145,-1072.533697
166.106003,3404.947333,8660.409521,306.438199
166.106324,2368.659014,8586.388927,995.924147
166.106644,4663.297435,9400.615463,1455.581446
166.106965,5255.462188,10288.862594,-229.828649
166.107286,3330.926739,9918.759623,-2068.457845
166.107607,3923.091493,9252.574275,-306.438199
166.107928,4293.194464,7994.224174,1532.190996
166.108248,4367.215058,7254.018232,1532.190996
166.108569,5625.565159,7179.997637,536.266849
166.108890,5329.482782,9178.553681,-1302.362347
166.109211,4737.318029,9918.759623,-1762.019645
166.109532,5329.482782,8882.471304,-153.219100
166.109853,6661.853478,6291.750507,0.000000
166.110173,6883.915261,5033.400406,306.438199
166.110494,5995.668130,7031.956449,766.095498
166.110815,4293.194464,7624.121203,-459.657299
166.111136,3923.091493,7624.121203,-1378.971896
166.111457,6957.935855,8882.471304,-612.876398
166.111778,7994.224174,8956.491898,76.609550
166.112098,6661.853478,8956.491898,-919.314598
166.112419,4515.256246,8586.388927,-766.095498
166.112740,3256.906145,9104.533087,-995.924147
166.113061,4367.215058,7920.203579,-689.485948
166.113382,6143.709319,6513.812290,689.485948
166.113702,5625.565159,5403.503377,459.657299
166.114023,4811.338623,5995.668130,536.266849
166.114344,5847.626942,9030.512492,153.219100
166.114665,4885.359217,9844.739029,-842.705048
166.114986,5329.482782,7328.038826,-995.924147
166.115307,7698.141797,5181.441594,383.047749
166.115627,6735.874072,5181.441594,536.266849
166.115948,6069.688724,7254.018232,-612.876398
166.116269,6365.771101,10362.883188,-1302.362347
166.116590,4885.359217,11029.068536,-2451.505594
166.116911,5847.626942,9474.636058,-1378.971896
166.117232,7031.956449,8660.409521,-383.047749
166.117552,5033.400406,8808.450710,-842.705048
166.117873,3478.967927,8734.430116,-1149.143247
166.118194,2368.659014,8512.368333,-536.266849
166.118515,3108.864956,7476.080014,-229.828649
166.118836,4441.235652,7624.121203,766.095498
166.119156,4145.153275,8438.347739,459.657299
166.119477,3552.988522,10658.965565,-229.828649
166.119798,2220.617826,11621.233289,919.314598
166.120119,2368.659014,9918.759623,306.438199
166.120440,4071.132681,7105.977043,0.000000
166.120761,4663.297435,7698.141797,612.876398
166.121081,3552.988522,9548.656652,1225.752797
166.121402,1628.453072,10362.883188,76.609550
166.121723,3256.906145,9992.780217,-995.924147
166.122044,4219.173869,8808.450710,-1838.629195
166.122365,4589.276840,8068.244768,0.000000
166.122686,4663.297435,8808.450710,1608.800546
166.123006,3701.029710,8956.491898,766.095498
166.123327,3478.967927,8660.409521,-1915.238745
166.123648,5847.626942,8364.327145,-1149.143247
166.123969,4737.318029,7772.162391,76.609550
166.124290,4367.215058,8364.327145,689.485948
166.124610,5847.626942,9178.553681,1149.143247
166.124931,5107.421000,8512.368333,0.000000
166.125252,5033.400406,7328.038826,-919.314598
166.125573,4515.256246,7105.977043,306.438199
166.125894,3627.009116,7031.956449,-995.924147
166.126215,3552.988522,8586.388927,-612.876398
166.126535,4515.256246,9178.553681,0.000000
166.126856,4441.235652,8142.265362,0.000000
166.127177,4219.173869,6439.791695,1838.629195
166.127498,3404.947333,6069.688724,2068.457845
166.127819,3775.050304,7994.224174,536.266849
166.128140,3552.988522,8734.430116,-766.095498
166.128460,3997.112087,8512.368333,-919.314598
166.128781,5477.523971,6883.915261,-383.047749
166.129102,6513.812290,6217.729913,612.876398
166.129423,7402.059420,8216.285956,536.266849
166.129744,5403.503377,8512.368333,-153.219100
166.130064,4737.318029,7550.100608,-383.047749
166.130385,6069.688724,6217.729913,76.609550
166.130706,7179.997637,4589.276840,842.705048
166.131027,7476.080014,6143.709319,766.095498
166.131348,7031.956449,8068.244768,0.000000
166.131669,5403.503377,8660.409521,-1991.848295
166.131989,7105.977043,8438.347739,-2451.505594
166.132310,7994.224174,6809.894666,-1302.362347
166.132631,6957.935855,6069.688724,0.000000
166.132952,5847.626942,7698.141797,1532.190996
166.133273,4737.318029,10658.965565,1608.800546
166.133594,3923.091493,11251.130318,-919.314598
166.133914,4737.318029,8808.450710,-2298.286494
166.134235,5921.647536,7105.977043,-766.095498
166.134556,3997.112087,7476.080014,1225.752797
166.134877,2664.741391,7698.141797,995.924147
166.135197,3330.926739,8364.327145,-536.266849
166.135518,4219.173869,8882.471304,-1302.362347
166.135839,4367.215058,8216.285956,1225.752797
166.136159,4367.215058,8808.450710,1685.410096
166.136480,3256.906145,9252.574275,0.000000
166.136801,4293.194464,10584.944971,-536.266849
166.137122,4589.276840,10066.800811,-536.266849
166.137442,4811.338623,8364.327145,-383.047749
166.137763,5477.523971,7772.162391,-229.828649
166.138084,4737.318029,8808.450710,-1915.238745
166.138404,4737.318029,9622.677246,-2221.676944
166.138725,4367.215058,9696.697840,-612.876398
166.139046,3849.070898,7920.203579,0.000000
166.139367,5551.544565,6661.853478,1608.800546
166.139687,5773.606348,7550.100608,1225.752797
166.140008,4367.215058,9178.553681,-153.219100
166.140329,4441.235652,8438.347739,-1685.410096
166.140650,4367.215058,7846.182985,-2681.334243
166.140970,5699.585753,7328.038826,-1302.362347
166.141291,7254.018232,8364.327145,1149.143247
166.141612,5921.647536,9474.636058,1072.533697
166.141932,2960.823768,9178.553681,-229.828649
166.142253,3108.864956,8290.306550,-1532.190996
166.142574,4737.318029,8068.244768,-306.438199
166.142895,4737.318029,8290.306550,229.828649
166.143215,4441.235652,7920.203579,766.095498
166.143536,4589.276840,8364.327145,-306.438199
166.143857,3627.009116,7698.141797,-1072.533697
166.144178,3701.029710,7254.018232,0.000000
166.144498,4737.318029,7402.059420,995.924147
166.144819,5477.523971,8290.306550,1072.533697
166.145140,4811.338623,8290.306550,1302.362347
166.145460,5551.544565,8290.306550,-536.266849
166.145781,7105.977043,7920.203579,-995.924147
166.146102,6439.791695,7624.121203,0.000000
166.146423,5847.626942,6883.915261,0.000000
166.146743,5995.668130,6365.771101,-229.828649
166.147064,6291.750507,6735.874072,-919.314598
166.147385,6513.812290,7402.059420,0.000000
166.147706,5625.565159,8216.285956,306.438199
166.148026,5255.462188,7402.059420,-153.219100
166.148347,5403.503377,7624.121203,153.219100
166.148668,5847.626942,6957.935855,459.657299
166.148988,5847.626942,7846.182985,766.095498
166.149309,5107.421000,7179.997637,842.705048
166.149630,4071.132681,6365.771101,0.000000
166.149951,4441.235652,6439.791695,-919.314598
166.150271,6143.709319,8216.285956,612.876398
166.150592,5403.503377,8956.491898,536.266849
166.150913,4589.276840,7846.182985,-383.047749
166.151233,6143.709319,6883.915261,-459.657299
166.151554,4959.379811,6365.771101,-383.047749
166.151875,4515.256246,6735.874072,0.000000
166.152196,5107.421000,8364.327145,76.609550
166.152516,3997.112087,7624.121203,-689.485948
166.152837,4959.379811,7920.203579,-919.314598
166.153158,7402.059420,9104.533087,0.000000
166.153479,4589.276840,8882.471304,-1378.971896
166.153799,2886.803174,8364.327145,-1455.581446
166.154120,4811.338623,8586.388927,536.266849
166.154441,4959.379811,8660.409521,1072.533697
166.154761,5625.565159,8364.327145,1225.752797
166.155082,4885.359217,8660.409521,0.000000
166.155403,3923.091493,9548.656652,-1838.629195
166.155724,3923.091493,9918.759623,-995.924147
166.156044,4663.297435,7698.141797,-153.219100
166.156365,5551.544565,5477.523971,0.000000
166.156686,5403.503377,5625.565159,1991.848295
166.157007,4293.194464,8364.327145,1072.533697
166.157327,3552.988522,9696.697840,-766.095498
166.157648,4663.297435,10140.821405,-1532.190996
166.157969,6143.709319,9326.594869,-1149.143247
166.158289,6735.874072,7772.162391,-612.876398
166.158610,6217.729913,8364.327145,153.219100
166.158931,5551.544565,9104.533087,-1302.362347
166.159252,4145.153275,8586.388927,-2221.676944
166.159572,4589.276840,7254.018232,-1149.143247
166.159893,5995.668130,7031.956449,459.657299
166.160214,6291.750507,7328.038826,1072.533697
166.160535,7105.977043,9770.718434,459.657299
166.160855,5403.503377,9918.759623,-1225.752797
166.161176,4145.153275,8216.285956,-1378.971896
166.161497,5107.421000,5921.647536,459.657299
166.161817,6439.791695,5107.421000,1762.019645
166.162138,5773.606348,7179.997637,306.438199
166.162459,4367.215058,8586.388927,-766.095498
166.162780,3701.029710,9474.636058,-1608.800546
166.163100,5181.441594,9548.656652,-383.047749
166.163421,6217.729913,9178.553681,1149.143247
166.163742,6069.688724,8364.327145,1225.752797
166.164062,4811.338623,7402.059420,306.438199
166.164383,2590.720797,6661.853478,-919.314598
166.164704,3627.009116,6143.709319,-995.924147
166.165025,5477.523971,6883.915261,0.000000
166.165345,5699.585753,7105.977043,536.266849
166.165666,5403.503377,7105.977043,459.657299
166.165987,6069.688724,7179.997637,0.000000
166.166308,6735.874072,8438.347739,0.000000
166.166628,7031.956449,7772.162391,536.266849
166.166949,6291.750507,5847.626942,-153.219100
166.167270,6217.729913,5181.441594,-1225.752797
166.167590,7105.977043,7105.977043,-766.095498
166.167911,7179.997637,8216.285956,-1072.533697
166.168232,6809.894666,8290.306550,-2221.676944
166.168553,6365.771101,6957.935855,-1455.581446
166.168873,5699.585753,5847.626942,-612.876398
166.169194,5403.503377,6513.812290,919.314598
166.169515,6661.853478,7772.162391,1608.800546
166.169836,5403.503377,8364.327145,0.000000
166.170156,4811.338623,8142.265362,-612.876398
166.170477,4737.318029,8586.388927,-229.828649
166.170798,4589.276840,9400.615463,-1378.971896
166.171118,3701.029710,8438.347739,-306.438199
166.171439,4145.153275,8290.306550,383.047749
166.171760,3108.864956,7920.203579,766.095498
166.172081,3256.906145,7698.141797,1302.362347
166.172401,3404.947333,8808.450710,612.876398
166.172722,3701.029710,10658.965565,-76.609550
166.173043,2442.679609,10807.006753,0.000000
166.173364,3552.988522,8290.306550,459.657299
166.173684,4737.318029,6217.729913,0.000000
166.174005,5403.503377,7402.059420,766.095498
166.174326,3478.967927,9030.512492,689.485948
166.174646,3627.009116,10732.986159,-842.705048
166.174967,5403.503377,10140.821405,-2451.505594
166.175288,6143.709319,8956.491898,-1685.410096
166.175609,7624.121203,7994.224174,-229.828649
166.175929,6809.894666,8216.285956,766.095498
166.176250,3627.009116,7105.977043,-689.485948
166.176571,3997.112087,7105.977043,-1455.581446
166.176891,7179.997637,7254.018232,-842.705048
166.177212,6365.771101,7328.038826,-306.438199
166.177533,5699.585753,6883.915261,0.000000
166.177854,5625.565159,8808.450710,0.000000
166.178174,4515.256246,10584.944971,-1149.143247
166.178495,4293.194464,9326.594869,153.219100
166.178816,4515.256246,7550.100608,766.095498
166.179137,4589.276840,6883.915261,1072.533697
166.179457,4663.297435,7920.203579,1302.362347
166.179778,4663.297435,8586.388927,-383.047749
166.180099,4737.318029,8142.265362,-2374.896044
166.180419,5403.503377,7031.956449,-612.876398
166.180740,5773.606348,6661.853478,842.705048
166.181061,6217.729913,5773.606348,1225.752797
166.181382,5699.585753,7031.956449,306.438199
166.181702,5107.421000,7624.121203,0.000000
166.182023,5255.462188,7772.162391,-1225.752797
166.182344,6587.832884,7476.080014,-1378.971896
166.182665,7254.018232,7476.080014,-1072.533697
166.182985,7624.121203,7624.121203,0.000000
166.183306,6365.771101,7920.203579,0.000000
166.183627,4441.235652,7402.059420,-1072.533697
166.183947,5181.441594,6809.894666,-995.924147
166.184268,6809.894666,7105.977043,-919.314598
166.184589,5551.544565,7105.977043,383.047749
166.184910,5477.523971,8364.327145,1149.143247
166.185230,5033.400406,8956.491898,-536.266849
166.185551,4145.153275,8216.285956,-1915.238745
166.185872,5255.462188,7105.977043,-842.705048
166.186193,4737.318029,6365.771101,612.876398
166.186513,4071.132681,7031.956449,919.314598
166.186834,4219.173869,8512.368333,229.828649
166.187155,3775.050304,9918.759623,-689.485948
166.187475,3775.050304,10362.883188,-229.828649
166.187796,5847.626942,10214.842000,842.705048
166.188117,3478.967927,9992.780217,0.000000
166.188438,1924.535449,9400.615463,-1378.971896
166.188758,3701.029710,9474.636058,-536.266849
166.189079,4071.132681,8438.347739,1149.143247
166.189400,3552.988522,7994.224174,1378.971896
166.189721,4145.153275,7402.059420,306.438199
166.190041,4737.318029,9178.553681,-1685.410096
166.190362,3404.947333,9992.780217,-689.485948
166.190683,3627.009116,9178.553681,766.095498
166.191003,4885.359217,7402.059420,1455.581446
166.191324,5255.462188,7254.018232,1149.143247
166.191645,4959.379811,9548.656652,612.876398
166.191966,3849.070898,10362.883188,-1532.190996
166.192286,2368.659014,9844.739029,-2145.067394
166.192607,4441.235652,8512.368333,-612.876398
166.192928,5625.565159,7624.121203,1225.752797
166.193248,5477.523971,7550.100608,1608.800546
166.193569,4589.276840,8068.244768,536.266849
166.193890,2664.741391,8512.368333,-1532.190996
166.194211,3256.906145,7772.162391,-1149.143247
166.194531,5033.400406,7550.100608,0.000000
166.194852,5847.626942,6661.853478,0.000000
166.195173,6069.688724,7624.121203,0.000000
166.195494,5773.606348,8438.347739,-153.219100
166.195814,5181.441594,7550.100608,-919.314598
166.196135,5477.523971,7105.977043,-612.876398
166.196456,5699.585753,6883.915261,0.000000
166.196776,5551.544565,7846.182985,0.000000
166.197097,5255.462188,8068.244768,153.219100
166.197418,5625.565159,8142.265362,-842.705048
166.197739,6809.894666,7476.080014,-842.705048
166.198059,5847.626942,6365.771101,-536.266849
166.198380,5033.400406,6069.688724,-153.219100
166.198701,4959.379811,6291.750507,-536.266849
166.199022,5551.544565,7994.224174,-229.828649
166.199342,4811.338623,9400.615463,0.000000
166.199663,4737.318029,9178.553681,-306.438199
166.199984,4959.379811,8734.430116,-612.876398
166.200304,5181.441594,8956.491898,-153.219100
166.200625,4515.256246,8734.430116,306.438199
166.200946,3775.050304,8586.388927,-306.438199
166.201267,3552.988522,7920.203579,229.828649
166.201587,3775.050304,7920.203579,536.266849
166.201908,3923.091493,8438.347739,919.314598
166.202229,4737.318029,9622.677246,842.705048
166.202550,4441.235652,9548.656652,-229.828649
166.202870,3923.091493,7772.162391,-995.924147
166.203191,5773.606348,6217.729913,-536.266849
166.203512,5403.503377,7105.977043,459.657299
166.203832,4367.215058,8216.285956,-689.485948
166.204153,5625.565159,10214.842000,-229.828649
166.204474,5329.482782,10362.883188,-229.828649
166.204795,5625.565159,9770.718434,-459.657299
166.205115,6735.874072,9770.718434,459.657299
166.205436,3997.112087,8808.450710,-612.876398
166.205757,2368.659014,8142.265362,-612.876398
166.206077,3849.070898,7402.059420,306.438199
166.206398,4811.338623,7994.224174,-306.438199
166.206719,5699.585753,7772.162391,536.266849
166.207040,4219.173869,8290.306550,306.438199
166.207360,2738.761985,8512.368333,-536.266849
166.207681,2812.782580,8734.430116,459.657299
166.208002,3923.091493,8512.368333,1532.190996
166.208323,4515.256246,7550.100608,919.314598
166.208643,4145.153275,7254.018232,842.705048
166.208964,4515.256246,8660.409521,-536.266849
166.209285,3923.091493,9400.615463,-1608.800546
166.209605,4367.215058,9474.636058,-2374.896044
166.209926,5625.565159,8586.388927,-1072.533697
166.210247,5773.606348,7476.080014,459.657299
166.210568,5773.606348,6513.812290,1302.362347
166.210888,6069.688724,7402.059420,536.266849
166.211209,4663.297435,7328.038826,-766.095498
166.211530,4515.256246,7402.059420,-1762.019645
166.211851,4959.379811,6883.915261,-383.047749
166.212171,6439.791695,6957.935855,-229.828649
166.212492,7328.038826,8438.347739,0.000000
166.212813,6291.750507,8882.471304,-995.924147
166.213133,4589.276840,7402.059420,-1762.019645
166.213454,4515.256246,7550.100608,0.000000
166.213775,4367.215058,8290.306550,1608.800546
166.214096,5255.462188,8734.430116,1149.143247
166.214416,4737.318029,8364.327145,-766.095498
166.214737,4441.235652,8216.285956,-1378.971896
166.215058,3552.988522,8142.265362,-1378.971896
166.215379,4367.215058,7105.977043,-1302.362347
166.215699,5625.565159,7031.956449,-612.876398
166.216020,5255.462188,7624.121203,1149.143247
166.216341,4589.276840,8808.450710,1302.362347
166.216661,5255.462188,10066.800811,536.266849
166.216982,5329.482782,9992.780217,-842.705048
166.217303,5329.482782,9474.636058,-842.705048
166.217624,5921.647536,8808.450710,-536.266849
166.217944,5921.647536,7328.038826,-306.438199
166.218265,6587.832884,6957.935855,0.000000
166.218586,6217.729913,6883.915261,-766.095498
166.218906,4441.235652,6809.894666,-383.047749
166.219227,4663.297435,7698.141797,229.828649
166.219548,5847.626942,9400.615463,612.876398
166.219869,5921.647536,9104.533087,0.000000
166.220189,7031.956449,8068.244768,0.000000
166.220510,5181.441594,7328.038826,76.609550
166.220831,3997.112087,7698.141797,-1149.143247
166.221152,4737.318029,8290.306550,-1149.143247
166.221472,5033.400406,9770.718434,-766.095498
166.221793,4663.297435,9696.697840,-766.095498
166.222114,4663.297435,9548.656652,766.095498
166.222434,3997.112087,8882.471304,383.047749
166.222755,2072.576638,9252.574275,-306.438199
166.223076,2442.679609,9696.697840,306.438199
166.223397,2220.617826,8068.244768,306.438199
166.223717,2442.679609,6291.750507,842.705048
166.224038,3330.926739,5995.668130,459.657299
166.224359,3552.988522,8290.306550,0.000000
166.224680,2738.761985,8882.471304,153.219100
166.225000,3923.091493,8808.450710,0.000000
166.225321,5921.647536,8290.306550,0.000000
166.225642,6513.812290,7772.162391,459.657299
166.225962,5921.647536,8142.265362,0.000000
166.226283,5181.441594,8364.327145,-689.485948
166.226604,5699.585753,7920.203579,-766.095498
166.226925,7402.059420,7105.977043,-689.485948
166.227245,7476.080014,5551.544565,-1455.581446
166.227566,6587.832884,6069.688724,-1991.848295
166.227887,5477.523971,8142.265362,-919.314598
166.228208,4515.256246,7698.141797,383.047749
166.228528,6291.750507,6809.894666,306.438199
166.228849,7846.182985,6661.853478,76.609550
166.229170,6143.709319,7772.162391,-842.705048
166.229490,3627.009116,7994.224174,-842.705048
166.229811,4071.132681,8142.265362,-766.095498
166.230132,5477.523971,8734.430116,-612.876398
166.230453,5847.626942,8068.244768,0.000000
166.230773,5255.462188,7105.977043,-153.219100
166.231094,4293.194464,7550.100608,-383.047749
166.231415,3552.988522,8882.471304,612.876398
166.231735,3182.885551,8808.450710,1225.752797
166.232056,4367.215058,7105.977043,76.609550
166.232377,5403.503377,6809.894666,0.000000
166.232698,5329.482782,8290.306550,459.657299
166.233018,5995.668130,8808.450710,0.000000
166.233339,5477.523971,8438.347739,-612.876398
166.233660,5329.482782,7179.997637,-919.314598
166.233981,5995.668130,6513.812290,0.000000
166.234301,6513.812290,7105.977043,612.876398
166.234622,6513.812290,7920.203579,76.609550
166.234943,6735.874072,8882.471304,-689.485948
166.235263,5847.626942,7772.162391,-1378.971896
166.235584,6809.894666,6513.812290,-842.705048
166.235905,7328.038826,5773.606348,0.000000
166.236226,6513.812290,5921.647536,-383.047749
166.236546,6069.688724,7624.121203,-612.876398
166.236867,5403.503377,8438.347739,-766.095498
166.237188,4219.173869,8364.327145,-1608.800546
166.237508,7031.956449,8808.450710,-459.657299
166.237829,5847.626942,8956.491898,459.657299
166.238149,4219.173869,8660.409521,0.000000
166.238470,3478.967927,9326.594869,-229.828649
166.238791,3701.029710,9844.739029,-766.095498
166.239111,2664.741391,8956.491898,-1608.800546
166.239432,4293.194464,8142.265362,0.000000
166.239752,3182.885551,7550.100608,459.657299
166.240073,1184.329507,7698.141797,459.657299
166.240393,2516.700203,9474.636058,2298.286494
166.240714,2886.803174,9474.636058,689.485948
166.241035,2516.700203,8586.388927,-306.438199
166.241355,3997.112087,7994.224174,689.485948
166.241676,5329.482782,8734.430116,0.000000
166.241996,5033.400406,9030.512492,-612.876398
166.242317,5255.462188,9400.615463,-1225.752797
166.242638,5329.482782,8438.347739,-1532.190996
166.242958,5773.606348,7698.141797,-383.047749
166.243279,5699.585753,8586.388927,536.266849
166.243599,5995.668130,9622.677246,-612.876398
166.243920,4885.359217,8734.430116,-1608.800546
166.244241,4885.359217,8142.265362,-919.314598
166.244561,5551.544565,7031.956449,153.219100
166.244882,6439.791695,6809.894666,459.657299
166.245202,5847.626942,8512.368333,0.000000
166.245523,4515.256246,7328.038826,-919.314598
166.245844,4219.173869,5921.647536,-612.876398
166.246164,6587.832884,6439.791695,1225.752797
166.246485,7179.997637,8216.285956,2068.457845
166.246805,5995.668130,9400.615463,0.000000
166.247126,5477.523971,8364.327145,-1532.190996
166.247447,7105.977043,7179.997637,-1302.362347
166.247767,6439.791695,5921.647536,0.000000
166.248088,6735.874072,5403.503377,0.000000
166.248408,6809.894666,6513.812290,0.000000
166.248729,4663.297435,7031.956449,0.000000
166.249049,5033.400406,6513.812290,229.828649
166.249370,7550.100608,6957.935855,306.438199
166.249691,6809.894666,7476.080014,0.000000
166.250011,4959.379811,8364.327145,-766.095498
166.250332,5181.441594,8142.265362,-306.438199
166.250652,6439.791695,7402.059420,0.000000
166.250973,6291.750507,7031.956449,459.657299
166.251294,5551.544565,7105.977043,-383.047749
166.251614,4071.132681,8586.388927,-1225.752797
166.251935,3775.050304,9770.718434,-383.047749
166.252255,4293.194464,9622.677246,-536.266849
166.252576,5847.626942,7698.141797,-842.705048
166.252897,5403.503377,7179.997637,76.609550
166.253217,3478.967927,8290.306550,1302.362347
166.253538,2368.659014,8068.244768,689.485948
166.253858,3627.009116,8438.347739,-1072.533697
166.254179,4959.379811,9326.594869,-919.314598
166.254500,4515.256246,8068.244768,0.000000
166.254820,4071.132681,7402.059420,995.924147
166.255141,5403.503377,8364.327145,1072.533697
166.255461,4293.194464,9992.780217,-383.047749
166.255782,5107.421000,9400.615463,-1225.752797
166.256103,5699.585753,6809.894666,-1915.238745
166.256423,5403.503377,6217.729913,-1149.143247
166.256744,5921.647536,7994.224174,612.876398
166.257064,5995.668130,8808.450710,0.000000
166.257385,5181.441594,8068.244768,-1915.238745
166.257705,5921.647536,7772.162391,-1762.019645
166.258026,6069.688724,7772.162391,-766.095498
166.258347,5625.565159,8068.244768,-1302.362347
166.258667,4737.318029,8882.471304,-1302.362347
166.258988,3997.112087,9992.780217,-536.266849
166.259308,4589.276840,9326.594869,-383.047749
166.259629,5625.565159,9252.574275,536.266849
166.259950,4367.215058,8808.450710,0.000000
166.260270,2294.638420,8882.471304,-1225.752797
166.260591,1998.556043,9400.615463,-306.438199
166.260911,3182.885551,9252.574275,-612.876398
166.261232,4071.132681,9178.553681,-76.609550
166.261553,4737.318029,7920.203579,306.438199
166.261873,4663.297435,8364.327145,76.609550
166.262194,3330.926739,8734.430116,383.047749
166.262514,3034.844362,8734.430116,919.314598
166.262835,5181.441594,7846.182985,229.828649
166.263156,5773.606348,7550.100608,0.000000
166.263476,5773.606348,8512.368333,1225.752797
166.263797,7031.956449,8660.409521,1378.971896
166.264117,7550.100608,8290.306550,-459.657299
166.264438,7105.977043,7476.080014,-2451.505594
166.264759,5773.606348,6143.709319,-1762.019645
166.265079,7105.977043,5995.668130,536.266849
166.265400,8290.306550,7179.997637,1532.190996
166.265720,6809.894666,6957.935855,229.828649
166.266041,6883.915261,6661.853478,-2451.505594
166.266361,6291.750507,7328.038826,-2451.505594
166.266682,4663.297435,7328.038826,-459.657299
166.267003,5181.441594,7994.224174,536.266849
166.267323,6069.688724,8364.327145,76.609550
166.267644,4737.318029,9030.512492,0.000000
166.267964,2220.617826,8512.368333,459.657299
166.268285,3404.947333,7698.141797,1378.971896
166.268606,4663.297435,8216.285956,1455.581446
166.268926,3775.050304,8512.368333,842.705048
166.269247,3330.926739,7624.121203,76.609550
166.269567,3775.050304,6661.853478,-229.828649
166.269888,3997.112087,6661.853478,612.876398
166.270209,5329.482782,7179.997637,1302.362347
166.270529,5477.523971,6957.935855,-306.438199
166.270850,4219.173869,7328.038826,-919.314598
166.271170,4811.338623,8586.388927,0.000000
166.271491,6439.791695,9622.677246,76.609550
166.271812,5847.626942,8734.430116,-842.705048
166.272132,5847.626942,8586.388927,-459.657299
166.272453,6439.791695,7994.224174,0.000000
166.272773,5255.462188,7920.203579,-459.657299
166.273094,6587.832884,7772.162391,-689.485948
166.273415,5329.482782,6883.915261,-1532.190996
166.273735,3627.009116,5921.647536,-1302.362347
166.274056,4959.379811,7105.977043,76.609550
166.274376,4737.318029,8512.368333,0.000000
166.274697,4441.235652,8956.491898,-1762.019645
166.275017,5329.482782,7772.162391,-1838.629195
166.275338,3552.988522,7402.059420,-766.095498
166.275659,2886.803174,8882.471304,76.609550
166.275979,4071.132681,9918.759623,766.095498
166.276300,3627.009116,10658.965565,-1225.752797
166.276620,3627.009116,10436.903782,-1149.143247
166.276941,4737.318029,10066.800811,1225.752797
166.277262,4071.132681,8956.491898,306.438199
166.277582,4293.194464,9178.553681,-459.657299
166.277903,4515.256246,9474.636058,0.000000
166.278223,4441.235652,8808.450710,-536.266849
166.278544,4885.359217,6883.915261,766.095498
166.278865,5773.606348,6291.750507,1685.410096
166.279185,6587.832884,7698.141797,383.047749
166.279506,4663.297435,8660.409521,-153.219100
166.279826,3997.112087,8364.327145,-689.485948
166.280147,6439.791695,8142.265362,-459.657299
166.280468,7994.224174,7772.162391,536.266849
166.280788,6365.771101,8734.430116,-536.266849
166.281109,5033.400406,9474.636058,-1149.143247
166.281429,4293.194464,9030.512492,-1608.800546
166.281750,5107.421000,8512.368333,-689.485948
166.282071,5847.626942,7994.224174,-153.219100
166.282391,5699.585753,7624.121203,-229.828649
166.282712,4737.318029,8512.368333,-689.485948
166.283032,3182.885551,7772.162391,-383.047749
166.283353,4737.318029,7994.224174,-766.095498
166.283673,5995.668130,7550.100608,-842.705048
166.283994,4737.318029,6957.935855,306.438199
166.284315,3923.091493,7550.100608,842.705048
166.284635,4737.318029,8586.388927,1072.533697
166.284956,4589.276840,8808.450710,919.314598
166.285276,4663.297435,8438.347739,536.266849
166.285597,4959.379811,7624.121203,1225.752797
166.285918,5551.544565,6883.915261,1378.971896
166.286238,5107.421000,7624.121203,306.438199
166.286559,5107.421000,8290.306550,-995.924147
166.286879,5477.523971,7846.182985,-1532.190996
166.287200,5033.400406,6587.832884,0.000000
166.287521,5847.626942,7105.977043,1302.362347
166.287841,6587.832884,7328.038826,1302.362347
166.288162,5033.400406,7105.977043,-383.047749
166.288482,4663.297435,7254.018232,-1072.533697
166.288803,4367.215058,7328.038826,-1532.190996
166.289124,5255.462188,7624.121203,0.000000
166.289444,6661.853478,8734.430116,536.266849
166.289765,5255.462188,9104.533087,229.828649
166.290085,4737.318029,8882.471304,-383.047749
166.290406,4293.194464,8142.265362,459.657299
166.290727,4589.276840,7105.977043,383.047749
166.291047,4811.338623,6809.894666,229.828649
166.291368,5625.565159,8142.265362,0.000000
166.291688,3775.050304,8290.306550,-383.047749
166.292009,3997.112087,7179.997637,-459.657299
166.292330,6069.688724,6809.894666,383.047749
166.292650,4885.359217,7328.038826,-383.047749
166.292971,3552.988522,8290.306550,-153.219100
166.293291,4515.256246,9400.615463,689.485948
166.293612,5625.565159,9770.718434,536.266849
166.293932,6069.688724,9548.656652,842.705048
166.294253,4441.235652,9474.636058,383.047749
166.294574,3108.864956,9474.636058,-1225.752797
166.294894,3478.967927,10214.842000,-1225.752797
166.295215,3701.029710,9548.656652,-612.876398
166.295535,5107.421000,8512.368333,-1378.971896
166.295856,5773.606348,7254.018232,0.000000
166.296177,3404.947333,8142.265362,612.876398
166.296497,2738.761985,8882.471304,1225.752797
166.296818,4663.297435,9326.594869,766.095498
166.297138,5107.421000,8808.450710,76.609550
166.297459,4811.338623,8142.265362,-306.438199
166.297780,5329.482782,8512.368333,-153.219100
166.298100,5329.482782,9474.636058,-1072.533697
166.298421,4737.318029,8734.430116,-1072.533697
166.298741,5773.606348,7846.182985,-1302.362347
166.299062,5699.585753,7105.977043,-229.828649
166.299383,5847.626942,7179.997637,229.828649
166.299703,5995.668130,8586.388927,306.438199
166.300024,4811.338623,9030.512492,-536.266849
166.300344,4811.338623,7698.141797,-1608.800546
166.300665,5403.503377,6439.791695,-1378.971896
166.300986,6217.729913,6735.874072,0.000000
166.301306,5255.462188,7328.038826,0.000000
166.301627,5329.482782,8586.388927,-536.266849
166.301947,4737.318029,8438.347739,-842.705048
166.302268,4663.297435,8216.285956,0.000000
166.302588,5773.606348,8438.347739,1149.143247
166.302909,4885.359217,8808.450710,689.485948
166.303230,3997.112087,8734.430116,-153.219100
166.303550,3552.988522,7624.121203,-919.314598
166.303871,5107.421000,7105.977043,-689.485948
166.304191,5847.626942,7105.977043,153.219100
166.304512,4811.338623,7105.977043,-536.266849
166.304833,4811.338623,8290.306550,-1302.362347
166.305153,4737.318029,8438.347739,536.266849
166.305474,4737.318029,7624.121203,1532.190996
166.305794,5773.606348,6587.832884,1302.362347
166.306115,5921.647536,6809.894666,153.219100
166.306436,4737.318029,7550.100608,-842.705048
166.306756,5625.565159,7994.224174,-689.485948
166.307077,6365.771101,8216.285956,-919.314598
166.307397,7994.224174,7846.182985,-689.485948
166.307718,7476.080014,7254.018232,0.000000
166.308039,5773.606348,6735.874072,306.438199
166.308359,5699.585753,8438.347739,1072.533697
166.308680,5921.647536,9918.759623,383.047749
166.309000,4737.318029,9030.512492,-1149.143247
166.309321,6217.729913,6957.935855,-612.876398
166.309642,5773.606348,5921.647536,1072.533697
166.309962,5403.503377,7179.997637,459.657299
166.310283,3775.050304,8586.388927,-536.266849
166.310603,3478.967927,8808.450710,-1149.143247
166.310924,3478.967927,8512.368333,0.000000
166.311244,5107.421000,9474.636058,2221.676944
166.311565,4515.256246,10214.842000,1608.800546
166.311886,3478.967927,10955.047942,-995.924147
166.312206,2664.741391,9326.594869,-995.924147
166.312527,2960.823768,7920.203579,-306.438199
166.312847,3997.112087,6513.812290,1302.362347
166.313168,4959.379811,7624.121203,612.876398
166.313489,3404.947333,9326.594869,-1608.800546
166.313809,2664.741391,9622.677246,-1608.800546
166.314130,4293.194464,8808.450710,842.705048
166.314450,5551.544565,7698.141797,2068.457845
166.314771,5329.482782,6957.935855,1378.971896
166.315092,5255.462188,7994.224174,76.609550
166.315412,3923.091493,8586.388927,-689.485948
166.315733,4515.256246,8142.265362,-1225.752797
166.316053,6809.894666,7698.141797,-995.924147
166.316374,7328.038826,7994.224174,-1532.190996
166.316695,5847.626942,8216.285956,-229.828649
166.317015,4811.338623,8290.306550,0.000000
166.317336,4885.359217,7624.121203,-306.438199
166.317656,5921.647536,6513.812290,0.000000
166.317977,5625.565159,6069.688724,-536.266849
166.318298,5255.462188,7105.977043,-306.438199
166.318618,5033.400406,8290.306550,-306.438199
166.318939,7105.977043,8808.450710,-76.609550
166.319259,6661.853478,8216.285956,-612.876398
166.319580,5847.626942,7179.997637,-459.657299
166.319900,5033.400406,7772.162391,229.828649
166.320221,4515.256246,8882.471304,459.657299
166.320542,4959.379811,8290.306550,0.000000
166.320862,7179.997637,7105.977043,76.609550
166.321183,5403.503377,6143.709319,-229.828649
166.321503,5403.503377,6957.935855,229.828649
166.321824,5551.544565,7624.121203,766.095498
166.322145,5847.626942,8068.244768,-536.266849
166.322465,5773.606348,6735.874072,-689.485948
166.322786,7031.956449,7105.977043,919.314598
166.323106,6513.812290,8142.265362,383.047749
166.323427,5995.668130,9474.636058,-766.095498
166.323748,5329.482782,9918.759623,-1455.581446
166.324068,4737.318029,9030.512492,-1762.019645
166.324389,5847.626942,7550.100608,612.876398
166.324709,4737.318029,6143.709319,919.314598
166.325030,4441.235652,6809.894666,-1149.143247
166.325351,4293.194464,9104.533087,-1072.533697
166.325671,3478.967927,10510.924376,-1378.971896
166.325992,3478.967927,8660.409521,-766.095498
166.326312,4811.338623,8068.244768,459.657299
166.326633,5477.523971,9400.615463,766.095498
166.326954,2664.741391,8586.388927,689.485948
166.327274,2146.597232,8882.471304,383.047749
166.327595,4737.318029,9696.697840,76.609550
166.327915,4737.318029,8882.471304,76.609550
166.328236,4959.379811,8364.327145,0.000000
166.328556,5181.441594,8290.306550,-229.828649
166.328877,3775.050304,8512.368333,-229.828649
166.329198,5551.544565,8586.388927,229.828649
166.329518,5699.585753,6883.915261,-153.219100
166.329839,5329.482782,5107.421000,-1072.533697
166.330159,4959.379811,6217.729913,919.314598
166.330480,6365.771101,8290.306550,1072.533697
166.330801,5403.503377,9252.574275,-689.485948
166.331121,6735.874072,8068.244768,-2681.334243
166.331442,7550.100608,6143.709319,-1838.629195
166.331762,5625.565159,6365.771101,-229.828649
166.332083,5403.503377,7328.038826,1225.752797
166.332404,4885.359217,8586.388927,306.438199
166.332724,4811.338623,8808.450710,-2145.067394
166.333045,5107.421000,9326.594869,-995.924147
166.333365,5773.606348,8290.306550,76.609550
166.333686,5329.482782,7402.059420,-766.095498
166.334007,4367.215058,8808.450710,-766.095498
166.334327,2738.761985,8660.409521,-383.047749
166.334648,3404.947333,8216.285956,842.705048
166.334968,4663.297435,6735.874072,1915.238745
166.335289,5107.421000,7179.997637,612.876398
166.335610,4959.379811,9104.533087,306.438199
166.335930,3108.864956,9104.533087,-536.266849
166.336251,4145.153275,7772.162391,76.609550
166.336571,6661.853478,6809.894666,1455.581446
166.336892,6735.874072,7698.141797,1225.752797
166.337212,5181.441594,8290.306550,0.000000
166.337533,3552.988522,8364.327145,-1608.800546
166.337854,4737.318029,7846.182985,-1302.362347
166.338174,6587.832884,7105.977043,-229.828649
166.338495,7179.997637,6513.812290,76.609550
166.338815,6291.750507,7846.182985,-306.438199
166.339136,4663.297435,8586.388927,-919.314598
166.339456,4219.173869,8142.265362,-1149.143247
166.339777,5255.462188,7476.080014,-1149.143247
166.340098,5107.421000,7402.059420,-766.095498
166.340418,5107.421000,7550.100608,0.000000
166.340739,4737.318029,8512.368333,612.876398
166.341059,4589.276840,9400.615463,-306.438199
166.341380,3775.050304,9178.553681,-1225.752797
166.341700,3627.009116,8438.347739,-1532.190996
166.342021,3552.988522,7994.224174,-229.828649
166.342342,4293.194464,9178.553681,1762.019645
166.342662,4885.359217,8882.471304,1532.190996
166.342983,4885.359217,8882.471304,-612.876398
166.343303,3404.947333,7846.182985,-995.924147
166.343624,2664.741391,7402.059420,76.609550
166.343945,4885.359217,7772.162391,995.924147
166.344265,5773.606348,8364.327145,306.438199
166.344586,4885.359217,9030.512492,-995.924147
166.344906,4737.318029,8660.409521,-689.485948
166.345227,4219.173869,9252.574275,-229.828649
166.345547,4959.379811,9178.553681,459.657299
166.345868,6143.709319,8808.450710,0.000000
166.346189,5625.565159,7920.203579,-766.095498
166.346509,5107.421000,7328.038826,-306.438199
166.346830,4885.359217,7402.059420,766.095498
166.347150,5995.668130,7698.141797,76.609550
166.347471,5921.647536,7328.038826,-1149.143247
166.347791,5403.503377,8512.368333,-1762.019645
166.348112,4737.318029,7846.182985,-1685.410096
166.348433,4885.359217,7402.059420,-536.266849
166.348753,7105.977043,7402.059420,383.047749
166.349074,5329.482782,8290.306550,76.609550
166.349394,4293.194464,8142.265362,-1225.752797
166.349715,5107.421000,9474.636058,-689.485948
166.350035,5255.462188,9474.636058,-306.438199
166.350356,4737.318029,9104.533087,536.266849
166.350677,5033.400406,7994.224174,306.438199
166.350997,3256.906145,7476.080014,-1149.143247
166.351318,3330.926739,6735.874072,-229.828649
166.351638,4737.318029,6661.853478,919.314598
166.351959,5181.441594,7179.997637,0.000000
166.352280,4885.359217,6735.874072,-689.485948
166.352600,3701.029710,7698.141797,-995.924147
166.352921,4219.173869,8734.430116,-1378.971896
166.353241,5107.421000,9326.594869,-536.266849
166.353562,5403.503377,9178.553681,306.438199
166.353882,6069.688724,8290.306550,459.657299
166.354203,5995.668130,7846.182985,0.000000
166.354524,5625.565159,8882.471304,-689.485948
166.354844,5033.400406,9770.718434,-1915.238745
166.355165,4663.297435,8142.265362,-1685.410096
166.355485,5699.585753,7476.080014,0.000000
166.355806,6587.832884,6143.709319,919.314598
166.356126,5773.606348,6439.791695,383.047749
166.356447,4663.297435,7254.018232,-1532.190996
166.356768,3627.009116,7846.182985,-1532.190996
166.357088,4811.338623,9104.533087,153.219100
166.357409,6661.853478,9030.512492,1072.533697
166.357729,6883.915261,8364.327145,229.828649
166.358050,5551.544565,8586.388927,-1072.533697
166.358370,3701.029710,8808.450710,-689.485948
166.358691,2146.597232,8808.450710,76.609550
166.359012,4219.173869,9030.512492,459.657299
166.359332,5329.482782,8956.491898,306.438199
166.359653,3627.009116,7920.203579,0.000000
166.359973,3256.906145,8808.450710,459.657299
166.360294,2886.803174,10436.903782,-306.438199
166.360615,2072.576638,8808.450710,-229.828649
166.360935,2664.741391,7550.100608,0.000000
166.361256,4515.256246,7328.038826,842.705048
166.361576,3923.091493,9030.512492,1915.238745
166.361897,4145.153275,11177.109724,1685.410096
166.362217,4071.132681,11843.295072,-536.266849
166.362538,4071.132681,9622.677246,-1762.019645
166.362859,4811.338623,6883.915261,-536.266849
166.363179,6365.771101,7031.956449,919.314598
166.363500,4737.318029,7105.977043,536.266849
166.363820,2516.700203,7402.059420,-1302.362347
166.364141,3627.009116,7550.100608,-995.924147
166.364461,5255.462188,8142.265362,612.876398
166.364782,7031.956449,7624.121203,2451.505594
166.365103,7254.018232,6883.915261,689.485948
166.365423,5107.421000,7031.956449,-2374.896044
166.365744,4219.173869,8216.285956,-2221.676944
166.366064,5033.400406,7550.100608,229.828649
166.366385,7179.997637,5921.647536,76.609550
166.366705,9104.533087,6143.709319,0.000000
166.367026,6809.894666,7328.038826,-919.314598
166.367347,4219.173869,7624.121203,-1608.800546
166.367667,4885.359217,7179.997637,-383.047749
166.367988,6439.791695,6661.853478,76.609550
166.368308,6957.935855,5773.606348,0.000000
166.368629,6069.688724,6883.915261,-383.047749
166.368950,4367.215058,7624.121203,-1149.143247
166.369270,3923.091493,9030.512492,-612.876398
166.369591,4737.318029,9030.512492,-229.828649
166.369911,5403.503377,9030.512492,-612.876398
166.370232,5181.441594,8512.368333,919.314598
166.370552,4663.297435,8438.347739,76.609550
166.370873,4737.318029,8882.471304,76.609550
166.371194,2442.679609,8364.327145,-229.828649
166.371514,2590.720797,7179.997637,-383.047749
166.371835,4367.215058,7402.059420,766.095498
166.372155,5033.400406,8068.244768,612.876398
166.372476,5033.400406,10066.800811,-612.876398
166.372796,4737.318029,9992.780217,-1608.800546
166.373117,4589.276840,8734.430116,-1225.752797
166.373438,5329.482782,7328.038826,1149.143247
166.373758,6513.812290,7994.224174,1532.190996
166.374079,6957.935855,9252.574275,-536.266849
166.374399,5255.462188,8808.450710,-2221.676944
166.374720,4441.235652,8290.306550,-2221.676944
166.375040,6143.709319,7994.224174,-1302.362347
166.375361,6661.853478,7550.100608,-995.924147
166.375682,6291.750507,7846.182985,-689.485948
166.376002,5181.441594,8734.430116,-1149.143247
166.376323,4441.235652,8734.430116,76.609550
166.376643,3701.029710,8586.388927,766.095498
166.376964,4219.173869,9104.533087,306.438199
166.377284,4515.256246,8734.430116,-919.314598
166.377605,4293.194464,9696.697840,-766.095498
166.377926,2886.803174,9326.594869,0.000000
166.378246,3775.050304,8734.430116,0.000000
166.378567,3701.029710,8364.327145,-229.828649
166.378887,2368.659014,8808.450710,-383.047749
166.379208,2368.659014,9252.574275,153.219100
166.379529,3627.009116,9918.759623,1378.971896
166.379849,4145.153275,9474.636058,1608.800546
166.380170,3775.050304,7772.162391,919.314598
166.380490,3923.091493,6291.750507,153.219100
166.380811,3404.947333,7031.956449,306.438199
166.381131,4293.194464,7328.038826,306.438199
166.381452,5329.482782,7624.121203,-383.047749
166.381773,7179.997637,6883.915261,-1072.533697
166.382093,7105.977043,6883.915261,0.000000
166.382414,6661.853478,6957.935855,689.485948
166.382734,6661.853478,8290.306550,0.000000
166.383055,7105.977043,7846.182985,-842.705048
166.383375,7328.038826,5699.585753,-1532.190996
166.383696,8734.430116,4959.379811,-766.095498
166.384017,7846.182985,6661.853478,-612.876398
166.384337,6365.771101,8216.285956,-1225.752797
166.384658,5551.544565,8142.265362,-1838.629195
166.384978,6217.729913,7920.203579,-306.438199
166.385299,5847.626942,7402.059420,1225.752797
166.385619,5255.462188,7772.162391,1915.238745
166.385940,3182.885551,7846.182985,229.828649
166.386261,1850.514855,9548.656652,-612.876398
166.386581,2738.761985,9178.553681,919.314598
166.386902,3997.112087,8586.388927,1225.752797
166.387222,3701.029710,8068.244768,842.705048
166.387543,2960.823768,8364.327145,-153.219100
166.387864,1850.514855,9030.512492,-383.047749
166.388184,2072.576638,7994.224174,1225.752797
166.388505,4811.338623,7402.059420,2068.457845
166.388825,6365.771101,7846.182985,842.705048
166.389146,4589.276840,7698.141797,-1225.752797
166.389466,4885.359217,8216.285956,-536.266849
166.389787,6809.894666,8808.450710,-76.609550
166.390108,7105.977043,8512.368333,-766.095498
166.390428,7105.977043,7179.997637,-1762.019645
166.390749,7105.977043,7476.080014,-2451.505594
166.391069,7328.038826,8438.347739,-383.047749
166.391390,6809.894666,8882.471304,1225.752797
166.391710,5847.626942,7698.141797,-459.657299
166.392031,6143.709319,6957.935855,-2604.724693
166.392352,5551.544565,6883.915261,-1149.143247
166.392672,5181.441594,7328.038826,383.047749
166.392993,5255.462188,8586.388927,536.266849
166.393313,5551.544565,8068.244768,-842.705048
166.393634,4441.235652,8364.327145,-2068.457845
166.393954,3849.070898,8882.471304,153.219100
166.394275,4071.132681,9178.553681,1532.190996
166.394596,4663.297435,9326.594869,306.438199
166.394916,3997.112087,8586.388927,-153.219100
166.395237,4293.194464,8586.388927,-612.876398
166.395557,4663.297435,8364.327145,383.047749
166.395878,4145.153275,8586.388927,306.438199
166.396199,4811.338623,8364.327145,-766.095498
166.396519,4737.318029,7476.080014,-766.095498
166.396840,3923.091493,7105.977043,306.438199
166.397160,4441.235652,7328.038826,1991.848295
166.397481,6069.688724,8142.265362,1378.971896
166.397801,4811.338623,8364.327145,-612.876398
166.398122,5033.400406,8882.471304,-1455.581446
166.398443,5551.544565,8512.368333,-612.876398
166.398763,6513.812290,8512.368333,76.609550
166.399084,7105.977043,7476.080014,-306.438199
166.399404,5921.647536,7105.977043,-1225.752797
166.399725,4663.297435,6957.935855,-1532.190996
166.400045,4885.359217,9104.533087,0.000000
166.400366,5181.441594,9992.780217,-153.219100
166.400687,5033.400406,8216.285956,-1455.581446
166.401007,6809.894666,7105.977043,-919.314598
166.401328,4737.318029,7476.080014,536.266849
166.401648,2960.823768,6957.935855,842.705048
166.401969,4515.256246,7698.141797,842.705048
166.402289,5107.421000,8142.265362,-919.314598
166.402610,5329.482782,8364.327145,76.609550
166.402931,5107.421000,7698.141797,1378.971896
166.403251,4737.318029,7105.977043,76.609550
166.403572,4737.318029,8068.244768,229.828649
166.403892,3849.070898,8068.244768,0.000000
166.404213,3701.029710,7328.038826,-459.657299
166.404534,6217.729913,6587.832884,153.219100
166.404854,6291.750507,7254.018232,-536.266849
166.405175,5403.503377,7772.162391,-1685.410096
166.405495,4663.297435,8142.265362,-995.924147
166.405816,5403.503377,8586.388927,612.876398
166.406136,6291.750507,8438.347739,1991.848295
166.406457,6661.853478,7846.182985,459.657299
166.406778,5477.523971,8438.347739,-2068.457845
166.407098,4441.235652,9400.615463,-2298.286494
166.407419,3034.844362,9326.594869,-612.876398
166.407739,4367.215058,7772.162391,459.657299
166.408060,7328.038826,7994.224174,842.705048
166.408380,5255.462188,9104.533087,1149.143247
166.408701,1628.453072,8142.265362,-766.095498
166.409022,2220.617826,7328.038826,-766.095498
166.409342,4441.235652,8216.285956,-229.828649
166.409663,5329.482782,8142.265362,1225.752797
166.409983,5625.565159,7476.080014,1302.362347
166.410304,5625.565159,8142.265362,-153.219100
166.410624,4811.338623,9252.574275,-459.657299
166.410945,4367.215058,9252.574275,0.000000
166.411266,5181.441594,7772.162391,-612.876398
166.411586,6217.729913,7105.977043,-842.705048
166.411907,6661.853478,7328.038826,612.876398
166.412227,6365.771101,7772.162391,995.924147
166.412548,6809.894666,8216.285956,0.000000
166.412869,5699.585753,7994.224174,-1455.581446
166.413189,5033.400406,6883.915261,-1762.019645
166.413510,6069.688724,7031.956449,-459.657299
166.413830,6587.832884,7476.080014,612.876398
166.414151,5477.523971,7624.121203,919.314598
166.414471,5921.647536,7846.182985,-306.438199
166.414792,4367.215058,8364.327145,-1378.971896
166.415113,4145.153275,7994.224174,-2298.286494
166.415433,5329.482782,8290.306550,-1072.533697
166.415754,6365.771101,8734.430116,0.000000
166.416074,5773.606348,8512.368333,229.828649
166.416395,5255.462188,7105.977043,459.657299
166.416715,4737.318029,7105.977043,-766.095498
166.417036,5255.462188,8734.430116,-1149.143247
166.417357,4515.256246,9178.553681,-459.657299
166.417677,4071.132681,6439.791695,0.000000
166.417998,7328.038826,5699.585753,995.924147
166.418318,5995.668130,6957.935855,995.924147
166.418639,3775.050304,7254.018232,-383.047749
166.418959,4663.297435,7624.121203,-1225.752797
166.419280,5403.503377,8290.306550,-766.095498
166.419601,6069.688724,9548.656652,612.876398
166.419921,6069.688724,9548.656652,612.876398
166.420242,5107.421000,9326.594869,-1838.629195
166.420562,3997.112087,9252.574275,-1225.752797
166.420883,3478.967927,8586.388927,1608.800546
166.421203,5329.482782,9104.533087,995.924147
166.421524,4293.194464,7920.203579,-383.047749
166.421845,2072.576638,7994.224174,-1838.629195
166.422165,3849.070898,9030.512492,-1149.143247
166.422486,3330.926739,9400.615463,536.266849
166.422806,3256.906145,8882.471304,306.438199
166.423127,4589.276840,7772.162391,383.047749
166.423448,4885.359217,7624.121203,383.047749
166.423768,3034.844362,8882.471304,919.314598
166.424089,3034.844362,10214.842000,1072.533697
166.424409,3404.947333,9770.718434,-1915.238745
166.424730,5033.400406,8586.388927,-2298.286494
166.425050,5921.647536,7698.141797,0.000000
166.425371,6661.853478,8290.306550,1302.362347
166.425692,5995.668130,8438.347739,536.266849
166.426012,4959.379811,7846.182985,-995.924147
166.426333,4441.235652,7920.203579,-1225.752797
166.426653,5181.441594,6661.853478,1225.752797
166.426974,7476.080014,6883.915261,2451.505594
166.427294,7476.080014,7254.018232,1302.362347
166.427615,6513.812290,6661.853478,-689.485948
166.427936,5181.441594,6809.894666,-995.924147
166.428256,4737.318029,7105.977043,-766.095498
166.428577,5181.441594,7476.080014,306.438199
166.428897,6513.812290,7920.203579,153.219100
166.429218,5773.606348,8142.265362,-612.876398
166.429538,5551.544565,8808.450710,0.000000
166.429859,4589.276840,8808.450710,0.000000
166.430180,4219.173869,7846.182985,-842.705048
166.430500,4737.318029,7105.977043,-1455.581446
166.430821,4737.318029,6809.894666,-229.828649
166.431141,4811.338623,7254.018232,383.047749
166.431462,5773.606348,8364.327145,919.314598
166.431783,5181.441594,7920.203579,-612.876398
166.432103,4589.276840,7846.182985,-1072.533697
166.432424,4589.276840,7846.182985,612.876398
166.432744,4737.318029,6587.832884,1838.629195
166.433065,6735.874072,7031.956449,1685.410096
166.433385,6513.812290,7105.977043,0.000000
166.433706,4293.194464,7105.977043,-1915.238745
166.434027,4959.379811,7254.018232,-459.657299
166.434347,7179.997637,8808.450710,536.266849
166.434668,6587.832884,9400.615463,-306.438199
166.434988,6513.812290,7105.977043,-1072.533697
166.435309,6735.874072,7031.956449,-689.485948
166.435630,4293.194464,8586.388927,76.609550
166.435950,3404.947333,8364.327145,1225.752797
166.436271,4589.276840,7624.121203,-536.266849
166.436592,5995.668130,8512.368333,-1608.800546
166.436912,5255.462188,9104.533087,0.000000
166.437233,3404.947333,9548.656652,76.609550
166.437554,3108.864956,9326.594869,-2068.457845
166.437875,3182.885551,9178.553681,-1072.533697
166.438195,3775.050304,8882.471304,919.314598
166.438516,5403.503377,8438.347739,1455.581446
166.438837,4515.256246,8142.265362,306.438199
166.439158,2812.782580,9030.512492,-1532.190996
166.439478,3552.988522,9770.718434,-1991.848295
166.439799,3256.906145,8438.347739,-383.047749
166.440120,4811.338623,7550.100608,536.266849
166.440440,6735.874072,7624.121203,1455.581446
166.440761,4737.318029,9252.574275,-229.828649
166.441082,3775.050304,10584.944971,-1072.533697
166.441403,3256.906145,8956.491898,0.000000
166.441723,4663.297435,7698.141797,-306.438199
166.442044,6809.894666,7550.100608,536.266849
166.442365,6587.832884,7846.182985,1302.362347
166.442686,4737.318029,7698.141797,-383.047749
166.443006,4515.256246,7624.121203,-459.657299
166.443327,5107.421000,8290.306550,-229.828649
166.443648,5403.503377,7550.100608,-766.095498
166.443968,5773.606348,6439.791695,-306.438199
166.444289,6513.812290,7179.997637,689.485948
166.444610,5477.523971,8660.409521,383.047749
166.444931,4145.153275,8142.265362,0.000000
166.445251,4663.297435,7550.100608,-1608.800546
166.445572,5403.503377,7624.121203,-1149.143247
166.445893,4885.359217,7328.038826,0.000000
166.446213,5551.544565,7994.224174,842.705048
166.446534,5625.565159,7772.162391,-842.705048
166.446855,4737.318029,7920.203579,-1762.019645
166.447176,4367.215058,7476.080014,-306.438199
166.447496,5403.503377,6883.915261,0.000000
166.447817,6365.771101,7624.121203,612.876398
166.448138,5255.462188,7179.997637,612.876398
166.448459,4959.379811,6735.874072,0.000000
166.448779,5995.668130,8142.265362,-306.438199
166.449100,4811.338623,8734.430116,459.657299
166.449421,4959.379811,9178.553681,0.000000
166.449741,5329.482782,8956.491898,-1072.533697
166.450062,4145.153275,8290.306550,229.828649
166.450383,3627.009116,8586.388927,2911.162892
166.450704,5033.400406,8290.306550,2374.896044
166.451024,3997.112087,8290.306550,536.266849
166.451345,3775.050304,8216.285956,-459.657299
166.451666,3701.029710,8586.388927,-229.828649
166.451986,3404.947333,8512.368333,459.657299
166.452307,4145.153275,7105.977043,536.266849
166.452628,6439.791695,7476.080014,0.000000
166.452949,4663.297435,8438.347739,-1072.533697
166.453269,3108.864956,8290.306550,-995.924147
166.453590,5477.523971,8512.368333,0.000000
166.453911,7402.059420,8882.471304,0.000000
166.454232,5921.647536,9104.533087,0.000000
166.454552,4737.318029,8660.409521,-919.314598
166.454873,4811.338623,7846.182985,-2528.115143
166.455194,5625.565159,8586.388927,-995.924147
166.455514,5625.565159,8068.244768,229.828649
166.455835,6143.709319,7179.997637,-536.266849
166.456156,5921.647536,6661.853478,-689.485948
166.456477,4219.173869,7105.977043,-76.609550
166.456797,4737.318029,9474.636058,459.657299
166.457118,4663.297435,9030.512492,-153.219100
166.457439,4441.235652,7254.018232,-459.657299
166.457760,5255.462188,6069.688724,766.095498
166.458080,4293.194464,7698.141797,919.314598
166.458401,4145.153275,9770.718434,612.876398
166.458722,3034.844362,10436.903782,-459.657299
166.459042,2738.761985,8882.471304,-1838.629195
166.459363,4737.318029,7698.141797,0.000000
166.459684,5181.441594,7550.100608,995.924147
166.460005,4737.318029,7550.100608,76.609550
166.460325,3701.029710,7550.100608,-919.314598
166.460646,4515.256246,7698.141797,-919.314598
166.460967,5329.482782,7624.121203,153.219100
166.461287,6661.853478,7402.059420,536.266849
166.461608,7179.997637,7328.038826,-1838.629195
166.461929,6587.832884,8068.244768,-2221.676944
166.462250,6291.750507,8882.471304,-1302.362347
166.462570,7254.018232,8956.491898,-536.266849
166.462891,7031.956449,7698.141797,-459.657299
166.463212,6809.894666,7920.203579,-842.705048
166.463533,5773.606348,9104.533087,-689.485948
166.463853,4737.318029,8734.430116,-153.219100
166.464174,5329.482782,7772.162391,0.000000
166.464495,6587.832884,6661.853478,153.219100
166.464815,5181.441594,6513.812290,536.266849
166.465136,4737.318029,7698.141797,1378.971896
166.465457,4441.235652,8290.306550,1838.629195
166.465778,4293.194464,8586.388927,1302.362347
166.466098,4589.276840,7994.224174,383.047749
166.466419,4959.379811,8364.327145,459.657299
166.466740,3701.029710,8512.368333,1455.581446
166.467060,3330.926739,9252.574275,842.705048
166.467381,3404.947333,9030.512492,153.219100
166.467702,3552.988522,7994.224174,-689.485948
166.468023,3997.112087,7772.162391,-153.219100
166.468343,4589.276840,7624.121203,1225.752797
166.468664,5625.565159,7476.080014,689.485948
166.468985,4663.297435,6883.915261,-383.047749
166.469306,5403.503377,7698.141797,-689.485948
166.469626,5625.565159,7105.977043,-766.095498
166.469947,6661.853478,6513.812290,-383.047749
166.470268,7698.141797,7550.100608,-766.095498
166.470588,6365.771101,7476.080014,-1532.190996
166.470909,5921.647536,6957.935855,-1838.629195
166.471230,6809.894666,7698.141797,-153.219100
166.471551,6513.812290,8068.244768,153.219100
166.471871,6217.729913,7994.224174,0.000000
166.472192,5477.523971,7994.224174,-995.924147
166.472513,3997.112087,7550.100608,-1378.971896
166.472834,3849.070898,7550.100608,689.485948
166.473154,4515.256246,7105.977043,1762.019645
166.473475,4737.318029,7624.121203,306.438199
166.473796,3627.009116,8290.306550,-536.266849
166.474116,2368.659014,9030.512492,0.000000
166.474437,2664.741391,10362.883188,0.000000
166.474758,2368.659014,10510.924376,153.219100
166.475079,2146.597232,9548.656652,536.266849
166.475399,2960.823768,8438.347739,1149.143247
166.475720,2886.803174,8882.471304,1149.143247
166.476041,2812.782580,9918.759623,459.657299
166.476361,2220.617826,9474.636058,-1149.143247
166.476682,2886.803174,8882.471304,-2298.286494
166.477003,4885.359217,8734.430116,-612.876398
166.477324,6587.832884,8808.450710,1072.533697
166.477644,6587.832884,7994.224174,0.000000
166.477965,6735.874072,7550.100608,-1378.971896
166.478286,5477.523971,7624.121203,-1608.800546
166.478607,6143.709319,8734.430116,76.609550
166.478927,7624.121203,8808.450710,229.828649
166.479248,9104.533087,8216.285956,-995.924147
166.479569,8216.285956,8364.327145,-1838.629195
166.479889,6217.729913,7328.038826,-995.924147
166.480210,6365.771101,7328.038826,153.219100
166.480531,6217.729913,7698.141797,995.924147
166.480852,5403.503377,7031.956449,153.219100
166.481172,5699.585753,7179.997637,0.000000
166.481493,5107.421000,7254.018232,0.000000
166.481814,4219.173869,7550.100608,766.095498
166.482134,4293.194464,7920.203579,766.095498
166.482455,4293.194464,7624.121203,0.000000
166.482776,3701.029710,7698.141797,536.266849
166.483097,3182.885551,7105.977043,1378.971896
166.483417,3775.050304,7624.121203,76.609550
166.483738,4885.359217,8734.430116,0.000000
166.484059,3552.988522,8734.430116,-919.314598
166.484380,4811.338623,7476.080014,-1532.190996
166.484700,6735.874072,7402.059420,-459.657299
166.485021,6069.688724,8290.306550,459.657299
166.485342,5477.523971,7994.224174,-689.485948
166.485662,4885.359217,7031.956449,-1378.971896
166.485983,5403.503377,5847.626942,-383.047749
166.486304,7031.956449,6291.750507,995.924147
166.486625,7476.080014,6883.915261,842.705048
166.486945,6735.874072,7550.100608,-766.095498
166.487266,5625.565159,7994.224174,-1302.362347
166.487587,5847.626942,8068.244768,-306.438199
166.487908,7550.100608,7624.121203,229.828649
166.488228,7402.059420,6217.729913,0.000000
166.488549,5181.441594,5847.626942,-612.876398
166.488870,4441.235652,6957.935855,383.047749
166.489190,4367.215058,8438.347739,919.314598
166.489511,3404.947333,9104.533087,-229.828649
166.489832,4959.379811,8364.327145,-1532.190996
166.490153,4737.318029,8734.430116,-1072.533697
166.490473,2442.679609,9474.636058,306.438199
166.490794,2960.823768,9326.594869,842.705048
166.491115,3404.947333,9104.533087,612.876398
166.491435,3330.926739,9326.594869,-689.485948
166.491756,2738.761985,9992.780217,-612.876398
166.492077,2516.700203,10214.842000,-383.047749
166.492398,2886.803174,10436.903782,-919.314598
166.492718,3404.947333,9992.780217,-76.609550
166.493039,4441.235652,9252.574275,-612.876398
166.493360,5255.462188,9252.574275,-612.876398
166.493681,4589.276840,9326.594869,-229.828649
166.494001,4515.256246,9178.553681,-1149.143247
166.494322,4737.318029,8734.430116,-842.705048
166.494643,4959.379811,8364.327145,383.047749
166.494963,5403.503377,8216.285956,1532.190996
166.495284,6143.709319,7698.141797,842.705048
166.495605,6365.771101,7550.100608,-459.657299
166.495926,5033.400406,8660.409521,-1455.581446
166.496246,3997.112087,7105.977043,-1072.533697
166.496567,5403.503377,7254.018232,0.000000
166.496888,6809.894666,6957.935855,842.705048
166.497208,6661.853478,8068.244768,229.828649
166.497529,5921.647536,7846.182985,-76.609550
166.497850,4441.235652,7402.059420,-612.876398
166.498171,4071.132681,7624.121203,-229.828649
166.498491,4737.318029,7402.059420,0.000000
166.498812,5403.503377,6883.915261,-612.876398
166.499133,5995.668130,7105.977043,-1455.581446
166.499454,5255.462188,7402.059420,-1225.752797
166.499774,4959.379811,7846.182985,-536.266849
166.500095,4959.379811,7624.121203,-766.095498
166.500416,4441.235652,7105.977043,-842.705048
166.500736,5033.400406,7031.956449,536.266849
166.501057,6217.729913,8068.244768,842.705048
166.501378,6217.729913,8808.450710,0.000000
166.501699,5847.626942,7994.224174,-1762.019645
166.502019,5847.626942,7179.997637,-2451.505594
166.502340,6365.771101,8142.265362,-995.924147
166.502661,6735.874072,9326.594869,1455.581446
166.502982,4959.379811,8438.347739,919.314598
166.503302,5255.462188,7105.977043,-306.438199
166.503623,4885.359217,6439.791695,612.876398
166.503944,3849.070898,4959.379811,1225.752797
166.504264,5181.441594,5995.668130,766.095498
166.504585,6439.791695,7994.224174,-306.438199
166.504906,4589.276840,8512.368333,-689.485948
166.505227,6217.729913,7920.203579,0.000000
166.505547,6735.874072,8068.244768,153.219100
166.505868,5255.462188,8438.347739,-229.828649
166.506189,4589.276840,9326.594869,-536.266849
166.506509,4737.318029,8808.450710,-1608.800546
166.506830,4145.153275,7846.182985,-995.924147
166.507151,6809.894666,7624.121203,459.657299
166.507472,5625.565159,7994.224174,-842.705048
166.507792,3404.947333,9104.533087,-3370.820191
166.508113,2738.761985,9474.636058,-1149.143247
166.508434,4145.153275,9400.615463,766.095498
166.508755,5625.565159,7920.203579,1302.362347
166.509075,5773.606348,8956.491898,1685.410096
166.509396,2294.638420,10214.842000,-612.876398
166.509717,1406.391290,10436.903782,-1302.362347
166.510037,2664.741391,10584.944971,459.657299
166.510358,5181.441594,9770.718434,612.876398
166.510679,6217.729913,9474.636058,536.266849
166.511000,2516.700203,8512.368333,76.609550
166.511320,740.205942,9400.615463,-1378.971896
166.511641,1480.411884,9400.615463,536.266849
166.511962,2960.823768,7846.182985,1608.800546
166.512282,4737.318029,7031.956449,1378.971896
166.512603,4737.318029,7476.080014,1532.190996
166.512924,4071.132681,9992.780217,766.095498
166.513245,4367.215058,10288.862594,-76.609550
166.513565,4663.297435,7550.100608,-1532.190996
166.513886,6587.832884,5625.565159,-1762.019645
166.514207,6143.709319,5847.626942,153.219100
166.514528,6735.874072,6883.915261,919.314598
166.514848,6217.729913,8290.306550,-612.876398
166.515169,6069.688724,7846.182985,-1608.800546
166.515490,7105.977043,7846.182985,-1378.971896
166.515810,7550.100608,7846.182985,0.000000
166.516131,6365.771101,7031.956449,0.000000
166.516452,7105.977043,6439.791695,-1225.752797
166.516773,6809.894666,6365.771101,-1072.533697
166.517093,5255.462188,7550.100608,0.000000
166.517414,5107.421000,7476.080014,-229.828649
166.517735,6365.771101,7994.224174,-766.095498
166.518056,5773.606348,7772.162391,-536.266849
166.518376,4737.318029,7328.038826,995.924147
166.518697,4071.132681,6809.894666,2374.896044
166.519018,5107.421000,7105.977043,1455.581446
166.519338,4145.153275,7179.997637,0.000000
166.519659,3849.070898,7846.182985,-995.924147
166.519980,5181.441594,7698.141797,-919.314598
166.520301,4959.379811,8586.388927,459.657299
166.520621,5107.421000,9030.512492,1225.752797
166.520942,4367.215058,7624.121203,-459.657299
166.521263,3256.906145,6143.709319,-612.876398
166.521583,3775.050304,6587.832884,383.047749
166.521904,4515.256246,7920.203579,1225.752797
166.522225,4663.297435,8586.388927,0.000000
166.522546,5847.626942,9104.533087,-2068.457845
166.522866,5921.647536,7994.224174,-2528.115143
166.523187,5847.626942,7031.956449,-995.924147
166.523508,6957.935855,8216.285956,306.438199
166.523829,6143.709319,8438.347739,0.000000
166.524149,4959.379811,8438.347739,-1762.019645
166.524470,6587.832884,8660.409521,-1915.238745
166.524791,6661.853478,9178.553681,0.000000
166.525111,5477.523971,9770.718434,0.000000
166.525432,4441.235652,9770.718434,0.000000
166.525753,3923.091493,8734.430116,-919.314598
166.526074,3997.112087,7550.100608,-459.657299
166.526394,3997.112087,7846.182985,842.705048
166.526715,2738.761985,8438.347739,153.219100
166.527036,1258.350101,8956.491898,-612.876398
166.527357,1628.453072,9918.759623,2145.067394
166.527677,3478.967927,10732.986159,2528.115143
166.527998,4367.215058,10807.006753,1455.581446
166.528319,3478.967927,10584.944971,-459.657299
166.528639,2442.679609,10584.944971,-1838.629195
166.528960,1110.308913,8882.471304,-919.314598
166.529281,2442.679609,8068.244768,689.485948
166.529602,5255.462188,7105.977043,766.095498
166.529922,4441.235652,6513.812290,383.047749
166.530243,4367.215058,8290.306550,0.000000
166.530564,4737.318029,9844.739029,-1149.143247
166.530884,5033.400406,9326.594869,-2221.676944
166.531205,7031.956449,6957.935855,-1608.800546
166.531526,9474.636058,5329.482782,0.000000
166.531847,8882.471304,5773.606348,536.266849
166.532167,7476.080014,8734.430116,536.266849
166.532488,6143.709319,9178.553681,-1378.971896
166.532809,7031.956449,8364.327145,-2451.505594
166.533130,7846.182985,7328.038826,0.000000
166.533450,7254.018232,7031.956449,1991.848295
166.533771,6069.688724,6069.688724,842.705048
166.534092,5181.441594,5403.503377,-919.314598
166.534412,3404.947333,6291.750507,-536.266849
166.534733,2960.823768,6365.771101,612.876398
166.535054,4145.153275,6513.812290,1915.238745
166.535375,5033.400406,7920.203579,1455.581446
166.535695,4589.276840,8586.388927,459.657299
166.536016,4441.235652,8586.388927,153.219100
166.536337,4219.173869,8142.265362,0.000000
166.536657,3552.988522,7328.038826,76.609550
166.536978,4811.338623,7550.100608,76.609550
166.537299,6143.709319,8216.285956,-612.876398
166.537620,5551.544565,9030.512492,-459.657299
166.537940,4737.318029,8956.491898,-383.047749
166.538261,5847.626942,7624.121203,-919.314598
166.538582,6069.688724,6883.915261,-766.095498
166.538902,5329.482782,5773.606348,-383.047749
166.539223,5699.585753,5699.585753,153.219100
166.539544,6069.688724,7328.038826,689.485948
166.539864,5181.441594,9326.594869,306.438199
166.540185,5773.606348,10066.800811,76.609550
166.540506,6587.832884,9474.636058,-383.047749
166.540827,6513.812290,8290.306550,153.219100
166.541147,5995.668130,7772.162391,0.000000
166.541468,5625.565159,7179.997637,-919.314598
166.541789,4737.318029,8068.244768,-919.314598
166.542109,4737.318029,8882.471304,229.828649
166.542430,6143.709319,9178.553681,995.924147
166.542751,6143.709319,9400.615463,536.266849
166.543071,5773.606348,9030.512492,689.485948
166.543392,5255.462188,8142.265362,1302.362347
166.543713,4663.297435,6365.771101,689.485948
166.544033,5551.544565,5477.523971,459.657299
166.544354,6587.832884,5995.668130,-383.047749
166.544675,6957.935855,6809.894666,-1302.362347
166.544995,8290.306550,7105.977043,-766.095498
166.545316,8956.491898,6809.894666,0.000000
166.545637,10288.862594,7031.956449,0.000000
166.545957,10288.862594,7328.038826,0.000000
166.546278,8956.491898,7179.997637,-1685.410096
166.546599,9918.759623,5773.606348,-1532.190996
166.546919,9252.574275,4811.338623,-1608.800546
166.547240,9030.512492,4885.359217,-1302.362347
166.547561,9030.512492,4811.338623,-612.876398
166.547881,7328.038826,5329.482782,-153.219100
166.548202,6587.832884,6143.709319,0.000000
166.548523,7402.059420,5551.544565,0.000000
166.548844,7402.059420,5699.585753,-689.485948
166.549164,7254.018232,6809.894666,-76.609550
166.549485,6513.812290,7254.018232,1225.752797
166.549806,6217.729913,7476.080014,919.314598
166.550126,7698.141797,6365.771101,689.485948
166.550447,8660.409521,5921.647536,612.876398
166.550768,7846.182985,5403.503377,76.609550
166.551088,7402.059420,5181.441594,76.609550
166.551409,9474.636058,4663.297435,153.219100
166.551730,11621.233289,3182.885551,-536.266849
166.552050,12657.521608,2368.659014,612.876398
166.552371,12287.418637,3256.906145,919.314598
166.552692,11029.068536,3478.967927,0.000000
166.553012,10732.986159,2442.679609,-842.705048
166.553333,15470.304188,3034.844362,-1302.362347
166.553654,16580.613101,5181.441594,-842.705048
166.553974,13915.871710,4811.338623,-1608.800546
166.554295,13175.665768,4515.256246,-2451.505594
166.554616,12065.356855,3775.050304,-2451.505594
166.554936,11695.253884,3182.885551,0.000000
166.555257,11917.315666,3997.112087,1455.581446
166.555578,9918.759623,5403.503377,-153.219100
166.555899,7328.038826,5773.606348,-1532.190996
166.556219,7402.059420,5329.482782,-229.828649
166.556540,8586.388927,4589.276840,1302.362347
166.556861,8216.285956,5403.503377,2221.676944
166.557181,6217.729913,7105.977043,842.705048
166.557502,5551.544565,8808.450710,-1915.238745
166.557823,4959.379811,8290.306550,-842.705048
166.558143,5995.668130,6513.812290,2757.943793
166.558464,7994.224174,6809.894666,3524.039291
166.558785,7328.038826,7476.080014,1225.752797
166.559105,4811.338623,7328.038826,-842.705048
166.559426,6143.709319,5921.647536,-383.047749
166.559747,8364.327145,3034.844362,842.705048
166.560067,10807.006753,2738.761985,1838.629195
166.560388,10955.047942,4589.276840,383.047749
166.560709,11399.171507,6513.812290,-2757.943793
166.561029,11769.274478,7476.080014,-2604.724693
166.561350,12435.459826,5107.421000,-153.219100
166.561671,13323.706956,3627.009116,842.705048
166.561991,13175.665768,4589.276840,306.438199
166.562312,10658.965565,5995.668130,-2681.334243
166.562633,9992.780217,7328.038826,-3524.039291
166.562953,9548.656652,6439.791695,-2298.286494
166.563274,10066.800811,4589.276840,76.609550
166.563595,8586.388927,4367.215058,1915.238745
166.563916,5773.606348,4811.338623,536.266849
166.564236,4145.153275,5699.585753,-1838.629195
166.564557,4885.359217,6735.874072,-2068.457845
166.564878,6365.771101,7772.162391,0.000000
166.565198,5995.668130,8808.450710,2374.896044
166.565519,5477.523971,9770.718434,2068.457845
166.565840,4589.276840,10066.800811,842.705048
166.566160,3701.029710,8290.306550,536.266849
166.566481,4441.235652,4737.318029,995.924147
166.566802,6513.812290,3182.885551,1225.752797
166.567122,7846.182985,4589.276840,1455.581446
166.567443,8660.409521,6735.874072,306.438199
166.567764,9548.656652,7105.977043,-766.095498
166.568084,12287.418637,5107.421000,-153.219100
166.568405,13101.645173,2812.782580,1762.019645
166.568726,12435.459826,444.123565,1608.800546
166.569046,14211.954086,222.061783,-306.438199
166.569367,15692.365970,2516.700203,-1915.238745
166.569688,16358.551318,5181.441594,-2374.896044
166.570008,16654.633695,6365.771101,-2374.896044
166.570329,16062.468941,5181.441594,-2987.772442
166.570650,14063.912898,3330.926739,-2374.896044
166.570971,11695.253884,2812.782580,-383.047749
166.571291,10140.821405,2442.679609,-383.047749
166.571612,9844.739029,2294.638420,-766.095498
166.571933,8734.430116,2442.679609,-689.485948
166.572253,9474.636058,5255.462188,-612.876398
166.572574,7624.121203,7698.141797,-306.438199
166.572895,6513.812290,8438.347739,0.000000
166.573215,6291.750507,7402.059420,0.000000
166.573536,5699.585753,5995.668130,1225.752797
166.573857,5033.400406,4959.379811,2681.334243
166.574177,4219.173869,5329.482782,2451.505594
166.574498,4811.338623,6291.750507,536.266849
166.574819,6587.832884,7402.059420,-306.438199
166.575139,8142.265362,8142.265362,-459.657299
166.575460,9548.656652,8364.327145,-459.657299
166.575781,10140.821405,7105.977043,0.000000
166.576101,10214.842000,4811.338623,1072.533697
166.576422,10584.944971,3404.947333,842.705048
166.576743,10881.027347,2812.782580,229.828649
166.577063,11103.089130,2960.823768,-1225.752797
166.577384,11843.295072,3997.112087,-1762.019645
166.577705,12287.418637,5033.400406,-1991.848295
166.578025,12139.377449,5995.668130,-2757.943793
166.578346,12213.398043,7624.121203,-2757.943793
166.578667,11325.150913,7624.121203,-1532.190996
166.578988,10066.800811,6143.709319,0.000000
166.579308,9400.615463,5403.503377,1149.143247
166.579629,8512.368333,5477.523971,1225.752797
166.579950,7105.977043,6661.853478,-229.828649
166.580270,6809.894666,7624.121203,-1685.410096
166.580591,6809.894666,6883.915261,-1685.410096
166.580912,7254.018232,5403.503377,-766.095498
166.581232,7476.080014,4737.318029,1072.533697
166.581553,7031.956449,5181.441594,1762.019645
166.581874,6291.750507,6587.832884,1149.143247
166.582194,6661.853478,7550.100608,1378.971896
166.582515,7698.141797,6809.894666,1455.581446
166.582836,9178.553681,6143.709319,1225.752797
166.583156,9252.574275,6143.709319,995.924147
166.583477,8808.450710,7031.956449,0.000000
166.583798,9326.594869,7328.038826,-1378.971896
166.584118,9548.656652,6883.915261,-1149.143247
166.584439,10584.944971,5255.462188,229.828649
166.584760,10658.965565,3404.947333,1838.629195
166.585080,9992.780217,1850.514855,2298.286494
166.585401,9474.636058,1184.329507,1072.533697
166.585722,10510.924376,962.267725,153.219100
166.586043,11843.295072,1332.370696,-689.485948
166.586363,12657.521608,1776.494261,-1608.800546
166.586684,13027.624579,3256.906145,-1378.971896
166.587005,13323.706956,4811.338623,-2221.676944
166.587325,12805.562797,5551.544565,-2834.553343
166.587646,12435.459826,6439.791695,-2681.334243
166.587967,12213.398043,6217.729913,-2987.772442
166.588287,11177.109724,5921.647536,-1685.410096
166.588608,10066.800811,5625.565159,229.828649
166.588929,9178.553681,5625.565159,919.314598
166.589249,7994.224174,5625.565159,1455.581446
166.589570,6513.812290,5107.421000,1762.019645
166.589891,6439.791695,4737.318029,1762.019645
166.590211,6439.791695,4293.194464,1915.238745
166.590532,6513.812290,4071.132681,1762.019645
166.590853,7105.977043,4145.153275,1378.971896
166.591173,7846.182985,5847.626942,536.266849
166.591494,8660.409521,7328.038826,766.095498
166.591815,9474.636058,8290.306550,383.047749
166.592135,10288.862594,8290.306550,229.828649
166.592456,10510.924376,7550.100608,689.485948
166.592777,10436.903782,6957.935855,612.876398
166.593098,10362.883188,6439.791695,76.609550
166.593418,9844.739029,4737.318029,0.000000
166.593739,9844.739029,3552.988522,-383.047749
166.594060,10362.883188,2590.720797,-536.266849
166.594380,10955.047942,3256.906145,-612.876398
166.594701,10214.842000,4811.338623,-995.924147
166.595022,10436.903782,6809.894666,-536.266849
166.595342,10584.944971,8068.244768,-383.047749
166.595663,9844.739029,8586.388927,306.438199
166.595984,7624.121203,8364.327145,842.705048
166.596304,6661.853478,8512.368333,995.924147
166.596625,4811.338623,8364.327145,0.000000
166.596946,4071.132681,7698.141797,-76.609550
166.597266,3997.112087,7105.977043,-612.876398
166.597587,4293.194464,7402.059420,-766.095498
166.597908,3849.070898,7920.203579,306.438199
166.598228,3330.926739,9474.636058,1762.019645
166.598549,3256.906145,10510.924376,2987.772442
166.598870,4663.297435,11029.068536,4136.915689
166.599190,5699.585753,10288.862594,4903.011187
166.599511,5255.462188,8956.491898,4519.963438
166.599832,4737.318029,8068.244768,4290.134789
166.600152,4589.276840,7846.182985,3907.087040
166.600473,4885.359217,7624.121203,3370.820191
166.600794,6217.729913,8290.306550,3294.210641
166.601115,7105.977043,8586.388927,3064.381992
166.601435,7105.977043,8512.368333,4213.525239
166.601756,7254.018232,7772.162391,4826.401637
166.602077,7402.059420,7105.977043,5132.839837
166.602397,7846.182985,7105.977043,4673.182538
166.602718,8290.306550,7179.997637,4596.572988
166.603039,7920.203579,7402.059420,4290.134789
166.603359,7846.182985,7846.182985,4136.915689
166.603680,8512.368333,8734.430116,5362.668486
166.604001,8068.244768,8882.471304,6511.811733
166.604321,7328.038826,7994.224174,7354.516781
166.604642,7328.038826,7105.977043,6971.469032
166.604963,5995.668130,6661.853478,6588.421283
166.605283,5403.503377,5181.441594,6894.859482
166.605604,4959.379811,4885.359217,7354.516781
166.605925,5255.462188,5625.565159,7431.126331
166.606245,6069.688724,6809.894666,6818.249932
166.606566,5551.544565,7920.203579,7048.078582
166.606887,4811.338623,7698.141797,6894.859482
166.607207,4441.235652,7254.018232,7507.735880
166.607528,4219.173869,7105.977043,7814.174080
166.607849,3330.926739,6809.894666,8044.002729
166.608170,3256.906145,6291.750507,7124.688131
166.608490,2812.782580,6069.688724,6665.030833
166.608811,2590.720797,6439.791695,6052.154434
166.609132,2294.638420,6291.750507,6205.373534
166.609452,2072.576638,5995.668130,5822.325785
166.609773,2664.741391,5995.668130,5975.544884
166.610094,3330.926739,6513.812290,6205.373534
166.610414,3775.050304,7254.018232,6588.421283
166.610735,3849.070898,7402.059420,6281.983084
166.611056,4145.153275,7624.121203,5822.325785
166.611376,4663.297435,7550.100608,4979.620737
166.611697,4293.194464,7402.059420,4519.963438
166.612018,3923.091493,6587.832884,4213.525239
166.612338,3775.050304,5625.565159,4213.525239
166.612659,3923.091493,5329.482782,3830.477490
166.612980,3552.988522,5847.626942,3370.820191
166.613300,3478.967927,6365.771101,2451.505594
166.613621,5255.462188,7624.121203,2451.505594
166.613942,5329.482782,8882.471304,2451.505594
166.614262,5995.668130,9918.759623,3140.991542
166.614583,6439.791695,11325.150913,2987.772442
166.614904,6883.915261,11843.295072,3217.601092
166.615224,7105.977043,11029.068536,4903.011187
166.615545,7105.977043,10732.986159,6894.859482
166.615866,5255.462188,10436.903782,7124.688131
166.616187,4589.276840,9918.759623,6665.030833
166.616507,3627.009116,8290.306550,6435.202183
166.616828,2960.823768,6661.853478,5362.668486
166.617149,2368.659014,3034.844362,3217.601092
166.617469,3404.947333,888.247130,1608.800546
166.617790,4811.338623,3478.967927,689.485948
166.618111,6365.771101,8512.368333,-306.438199
166.618431,8216.285956,13471.748144,-1685.410096
166.618752,10214.842000,16950.716072,-2298.286494
166.619073,11177.109724,18209.066173,-995.924147
166.619393,10881.027347,17542.880825,2451.505594
166.619714,9104.533087,14137.933492,4903.011187
166.620035,6809.894666,8956.491898,5822.325785
166.620355,5921.647536,6661.853478,6511.811733
166.620676,3404.947333,5773.606348,6741.640382
166.620997,888.247130,5773.606348,5132.839837
166.621317,888.247130,5773.606348,4519.963438
166.621638,2590.720797,5699.585753,4519.963438
166.621959,3330.926739,5033.400406,4519.963438
166.622279,4737.318029,5921.647536,4903.011187
166.622600,5773.606348,7994.224174,4213.525239
166.622921,5773.606348,12139.377449,3140.991542
166.623242,5551.544565,14359.995275,2298.286494
166.623562,7105.977043,14730.098246,1532.190996
166.623883,9178.553681,14063.912898,2451.505594
166.624204,6957.935855,11621.233289,4136.915689
166.624524,4293.194464,7031.956449,5822.325785
166.624845,4589.276840,3997.112087,7431.126331
166.625166,1480.411884,3701.029710,7048.078582
166.625486,2294.638420,5107.421000,5362.668486
166.625807,3701.029710,6513.812290,3830.477490
166.626128,4515.256246,7031.956449,3983.696590
166.626448,4589.276840,5847.626942,7277.907231
166.626769,7476.080014,7105.977043,10418.898773
166.627090,7105.977043,10436.903782,10342.289223
166.627410,2664.741391,12435.459826,6971.469032
166.627731,2072.576638,10732.986159,4673.182538
166.628052,3923.091493,6957.935855,3370.820191
166.628372,4219.173869,3256.906145,6511.811733
166.628693,4737.318029,5255.462188,9806.022374
166.629014,3404.947333,8216.285956,8503.660028
166.629334,-222.061783,10510.924376,3907.087040
166.629655,1110.308913,9548.656652,3600.648841
166.629976,3404.947333,5773.606348,6511.811733
166.630296,3997.112087,2960.823768,8044.002729
166.630617,5033.400406,3627.009116,9193.145976
166.630938,5921.647536,8216.285956,7354.516781
166.631259,5033.400406,11769.274478,5362.668486
166.631579,3997.112087,10510.924376,5056.230287
166.631900,5181.441594,6809.894666,5056.230287
166.632221,4515.256246,4145.153275,6205.373534
166.632541,1998.556043,2886.803174,8197.221829
166.632862,4293.194464,5403.503377,9346.365076
166.633183,5329.482782,8586.388927,8733.488677
166.633503,3478.967927,11695.253884,5669.106685
166.633824,4663.297435,11917.315666,3294.210641
166.634145,6957.935855,11621.233289,2374.896044
166.634465,4293.194464,8364.327145,4136.915689
166.634786,4367.215058,4811.338623,6281.983084
166.635107,6957.935855,3775.050304,7584.345430
166.635427,5699.585753,6069.688724,7890.783629
166.635748,2072.576638,6365.771101,6358.592633
166.636069,3997.112087,6365.771101,3830.477490
166.636389,6439.791695,9178.553681,4213.525239
166.636710,3478.967927,10584.944971,6205.373534
166.637031,5551.544565,9992.780217,6894.859482
166.637351,8290.306550,9030.512492,5515.887586
166.637672,7105.977043,9178.553681,3140.991542
166.637993,3701.029710,7550.100608,1149.143247
166.638314,4071.132681,5847.626942,0.000000
166.638634,5773.606348,7550.100608,3677.258390
166.638955,4885.359217,9918.759623,8580.269578
166.639276,5329.482782,10658.965565,7584.345430
166.639597,6217.729913,10881.027347,4060.306139
166.639917,3627.009116,11695.253884,2374.896044
166.640238,3330.926739,10807.006753,3524.039291
166.640559,5033.400406,8882.471304,4979.620737
166.640879,4737.318029,6957.935855,5056.230287
166.641200,4071.132681,7328.038826,5515.887586
166.641521,4589.276840,9474.636058,5209.449386
166.641842,4663.297435,10807.006753,3447.429741
166.642162,3404.947333,10362.883188,2987.772442
166.642483,5847.626942,9844.739029,3753.867940
166.642804,8660.409521,9548.656652,5669.106685
166.643124,7105.977043,9326.594869,7048.078582
166.643445,4663.297435,7994.224174,5439.278036
166.643766,4293.194464,7772.162391,2987.772442
166.644087,4367.215058,6587.832884,1455.581446
166.644407,5403.503377,6809.894666,2451.505594
166.644728,6957.935855,6809.894666,3830.477490
166.645049,7179.997637,7698.141797,3677.258390
166.645369,5995.668130,9474.636058,2757.943793
166.645690,4367.215058,10140.821405,2298.286494
166.646011,2664.741391,7179.997637,2451.505594
166.646332,5551.544565,4737.318029,4519.963438
166.646652,6809.894666,5329.482782,5975.544884
166.646973,4367.215058,6883.915261,4213.525239
166.647294,1332.370696,7402.059420,1608.800546
166.647614,2072.576638,8882.471304,842.705048
166.647935,2738.761985,7698.141797,2451.505594
166.648256,4441.235652,7179.997637,3370.820191
166.648577,7254.018232,8512.368333,2681.334243
166.648897,3552.988522,9622.677246,1608.800546
166.649218,1184.329507,9104.533087,4366.744339
166.649539,3552.988522,6513.812290,5209.449386
166.649860,3923.091493,3627.009116,3140.991542
166.650180,3997.112087,4367.215058,1072.533697
166.650501,5847.626942,8068.244768,842.705048
166.650822,4959.379811,10140.821405,459.657299
166.651142,4515.256246,9474.636058,3217.601092
166.651463,7328.038826,8734.430116,4290.134789
166.651784,7698.141797,8216.285956,3600.648841
166.652105,4959.379811,9548.656652,3677.258390
166.652425,4145.153275,10066.800811,3064.381992
166.652746,4737.318029,8660.409521,2451.505594
166.653067,6143.709319,6217.729913,3370.820191
166.653387,6217.729913,4811.338623,3677.258390
166.653708,5033.400406,7105.977043,2221.676944
166.654029,3627.009116,9474.636058,2298.286494
166.654350,3182.885551,9030.512492,995.924147
166.654670,4811.338623,7105.977043,-383.047749
166.654991,5477.523971,6439.791695,1532.190996
166.655312,5995.668130,8660.409521,3907.087040
166.655632,6143.709319,10732.986159,3140.991542
166.655953,4663.297435,10658.965565,0.000000
166.656274,4367.215058,9474.636058,-2145.067394
166.656595,5847.626942,8808.450710,-612.876398
166.656915,6513.812290,10140.821405,3064.381992
166.657236,5181.441594,10066.800811,4136.915689
166.657557,4293.194464,8512.368333,1302.362347
166.657877,3330.926739,5699.585753,-842.705048
166.658198,3182.885551,5107.421000,919.314598
166.658519,3997.112087,6735.874072,3370.820191
166.658840,4219.173869,8660.409521,1378.971896
166.659160,3997.112087,9400.615463,-1455.581446
166.659481,3182.885551,7254.018232,-3064.381992
166.659802,5403.503377,7402.059420,0.000000
166.660123,7328.038826,9622.677246,4596.572988
166.660443,4811.338623,10140.821405,2451.505594
166.660764,3404.947333,8438.347739,-3140.991542
166.661085,4515.256246,7698.141797,-4060.306139
166.661405,6217.729913,7920.203579,919.314598
166.661726,6957.935855,8068.244768,3907.087040
166.662047,7105.977043,7772.162391,919.314598
166.662368,4737.318029,6735.874072,-3447.429741
166.662688,4367.215058,6143.709319,-3370.820191
166.663009,6365.771101,5625.565159,76.609550
166.663330,7328.038826,5995.668130,2068.457845
166.663650,6439.791695,7402.059420,1302.362347
166.663971,6439.791695,8808.450710,-2068.457845
166.664292,6587.832884,8660.409521,-2757.943793
166.664613,5181.441594,7772.162391,-383.047749
166.664933,6439.791695,8364.327145,612.876398
166.665254,5329.482782,8512.368333,-612.876398
166.665575,3182.885551,7994.224174,-1991.848295
166.665895,4589.276840,8512.368333,-919.314598
166.666216,5773.606348,8512.368333,689.485948
166.666537,4737.318029,7550.100608,612.876398
166.666858,3849.070898,7031.956449,-919.314598
166.667178,2886.803174,7772.162391,-2987.772442
166.667499,3627.009116,8808.450710,-2374.896044
166.667820,5255.462188,8290.306550,0.000000
166.668140,6143.709319,8068.244768,-536.266849
166.668461,5329.482782,8068.244768,-536.266849
166.668782,4219.173869,9474.636058,-383.047749
166.669103,4589.276840,10066.800811,-1608.800546
166.669423,4959.379811,8216.285956,-2451.505594
166.669744,5329.482782,6365.771101,-1991.848295
166.670065,6439.791695,7031.956449,-1838.629195
166.670386,6735.874072,7994.224174,-766.095498
166.670706,5255.462188,8438.347739,-919.314598
166.671027,5699.585753,7476.080014,-1838.629195
166.671348,6069.688724,7254.018232,-2451.505594
166.671668,5773.606348,8438.347739,-766.095498
166.671989,5995.668130,8586.388927,-383.047749
166.672310,6365.771101,7698.141797,-1685.410096
166.672631,6439.791695,7254.018232,-3677.258390
166.672951,5255.462188,6957.935855,-2604.724693
166.673272,5921.647536,9104.533087,-842.705048
166.673593,6735.874072,11843.295072,1072.533697
166.673913,4293.194464,10807.006753,-306.438199
166.674234,2812.782580,7698.141797,-2221.676944
166.674555,4959.379811,7105.977043,-1378.971896
166.674876,5107.421000,7698.141797,1608.800546
166.675196,4367.215058,8364.327145,2374.896044
166.675517,5699.585753,8956.491898,-1072.533697
166.675838,3849.070898,8586.388927,-4213.525239
166.676158,2812.782580,8512.368333,-1225.752797
166.676479,6143.709319,8956.491898,3370.820191
166.676800,7254.018232,9252.574275,3064.381992
166.677121,5181.441594,9104.533087,-76.609550
166.677441,5033.400406,7920.203579,-1685.410096
166.677762,5181.441594,7402.059420,-1532.190996
166.678083,3997.112087,6661.853478,1532.190996
166.678403,4293.194464,6217.729913,1455.581446
166.678724,5921.647536,7994.224174,-1915.238745
166.679045,5329.482782,8586.388927,-2451.505594
166.679366,5921.647536,8808.450710,-229.828649
166.679686,7402.059420,8438.347739,919.314598
166.680007,6513.812290,8216.285956,842.705048
166.680328,4515.256246,7179.997637,-536.266849
166.680649,5255.462188,7402.059420,-689.485948
166.680969,5477.523971,6957.935855,76.609550
166.681290,6587.832884,6957.935855,1149.143247
166.681611,6069.688724,7328.038826,229.828649
166.681931,4071.132681,7698.141797,-1762.019645
166.682252,2368.659014,7624.121203,-689.485948
166.682573,3775.050304,6957.935855,1378.971896
166.682894,4737.318029,5699.585753,1302.362347
166.683214,3552.988522,4219.173869,0.000000
166.683535,3478.967927,5107.421000,-919.314598
166.683856,3182.885551,7105.977043,-1532.190996
166.684176,3552.988522,7624.121203,-2604.724693
166.684497,5403.503377,7402.059420,-2528.115143
166.684818,6365.771101,7179.997637,-1915.238745
166.685139,5995.668130,7476.080014,-229.828649
166.685459,5403.503377,8956.491898,459.657299
166.685780,4145.153275,7698.141797,-1838.629195
166.686101,4515.256246,6883.915261,-3447.429741
166.686421,6735.874072,7476.080014,-2221.676944
166.686742,5551.544565,7624.121203,-1149.143247
166.687063,4515.256246,6587.832884,-995.924147
166.687384,5403.503377,6587.832884,-2221.676944
166.687704,4441.235652,6883.915261,-3600.648841
166.688025,4441.235652,7920.203579,-2298.286494
166.688346,6365.771101,10288.862594,-919.314598
166.688666,5847.626942,9992.780217,-1685.410096
166.688987,4663.297435,7994.224174,-2451.505594
166.689308,6365.771101,9252.574275,-2528.115143
166.689629,5699.585753,10658.965565,-1378.971896
166.689949,5255.462188,11843.295072,-229.828649
166.690270,7254.018232,11769.274478,-612.876398
166.690591,6217.729913,10066.800811,-1302.362347
166.690912,4589.276840,8808.450710,0.000000
166.691232,5107.421000,8438.347739,3294.210641
166.691553,4663.297435,8068.244768,1762.019645
166.691874,3552.988522,7105.977043,-919.314598
166.692194,3997.112087,6587.832884,-2757.943793
166.692515,5995.668130,7624.121203,-3983.696590
166.692836,5921.647536,8956.491898,-1455.581446
166.693157,6291.750507,10510.924376,-229.828649
166.693477,6809.894666,10436.903782,-2834.553343
166.693798,7550.100608,10658.965565,-2911.162892
166.694119,6365.771101,10510.924376,-536.266849
166.694439,6439.791695,10214.842000,-383.047749
166.694760,5921.647536,9696.697840,-1608.800546
166.695081,5033.400406,8438.347739,-2298.286494
166.695402,5995.668130,8142.265362,-2145.067394
166.695722,6217.729913,7698.141797,-153.219100
166.696043,5181.441594,7105.977043,689.485948
166.696364,4145.153275,6661.853478,919.314598
166.696684,3775.050304,6143.709319,459.657299
166.697005,3552.988522,6217.729913,1072.533697
166.697326,4367.215058,6143.709319,2298.286494
166.697647,5403.503377,7476.080014,766.095498
166.697967,3923.091493,7550.100608,-1072.533697
166.698288,3552.988522,7402.059420,-1072.533697
166.698609,4959.379811,7772.162391,-459.657299
166.698929,5033.400406,7402.059420,-153.219100
166.699250,3923.091493,6735.874072,-1838.629195
166.699571,3478.967927,6439.791695,-2604.724693
166.699892,3775.050304,7476.080014,-766.095498
166.700212,3997.112087,8882.471304,2068.457845
166.700533,4293.194464,7846.182985,1532.190996
166.700854,3923.091493,6217.729913,-1532.190996
166.701175,3997.112087,6809.894666,-1685.410096
166.701495,3997.112087,7402.059420,383.047749
166.701816,4663.297435,7179.997637,612.876398
166.702137,6143.709319,7476.080014,-306.438199
166.702457,4885.359217,6957.935855,-612.876398
166.702778,4959.379811,7476.080014,459.657299
166.703099,5995.668130,9178.553681,1991.848295
166.703420,5107.421000,9770.718434,1149.143247
166.703740,4441.235652,8290.306550,-766.095498
166.704061,5625.565159,7105.977043,-1608.800546
166.704382,4959.379811,6513.812290,-229.828649
166.704702,4737.318029,6883.915261,2451.505594
166.705023,7179.997637,8512.368333,1532.190996
166.705344,5625.565159,9326.594869,-1532.190996
166.705665,3404.947333,9178.553681,-1455.581446
166.705985,6439.791695,8956.491898,1225.752797
166.706306,7402.059420,9252.574275,2911.162892
166.706627,5329.482782,8216.285956,2834.553343
166.706947,4441.235652,7031.956449,229.828649
166.707268,4293.194464,8216.285956,-2604.724693
166.707589,3182.885551,8808.450710,-1378.971896
166.707910,3627.009116,7550.100608,306.438199
166.708230,5625.565159,6661.853478,-1532.190996
166.708551,5403.503377,8512.368333,-2068.457845
166.708872,3849.070898,10436.903782,-306.438199
166.709192,4367.215058,9474.636058,-1302.362347
166.709513,5699.585753,8142.265362,-1608.800546
166.709834,4589.276840,7846.182985,-842.705048
166.710155,4885.359217,8512.368333,-842.705048
166.710475,5847.626942,9548.656652,-919.314598
166.710796,5477.523971,10436.903782,-536.266849
166.711117,5329.482782,9622.677246,-76.609550
166.711438,6069.688724,7772.162391,-1072.533697
166.711758,3849.070898,6661.853478,-842.705048
166.712079,3701.029710,6957.935855,842.705048
166.712400,5181.441594,7254.018232,1455.581446
166.712720,4959.379811,6365.771101,383.047749
166.713041,3997.112087,6587.832884,-229.828649
166.713362,5699.585753,8364.327145,-459.657299
166.713683,5255.462188,9770.718434,-306.438199
166.714003,4737.318029,8660.409521,-1608.800546
166.714324,4811.338623,7105.977043,-3064.381992
166.714645,5847.626942,8290.306550,-2834.553343
166.714965,5773.606348,9326.594869,766.095498
166.715286,5181.441594,9548.656652,1532.190996
166.715607,5255.462188,9474.636058,0.000000
166.715928,5699.585753,10214.842000,-766.095498
166.716248,5181.441594,10807.006753,76.609550
166.716569,5181.441594,9474.636058,919.314598
166.716890,4885.359217,7698.141797,1532.190996
166.717210,4811.338623,5773.606348,1149.143247
166.717531,3775.050304,4737.318029,459.657299
166.717852,3923.091493,5921.647536,76.609550
166.718173,3627.009116,7772.162391,0.000000
166.718493,4441.235652,9622.677246,76.609550
166.718814,5255.462188,9844.739029,0.000000
166.719135,5847.626942,9622.677246,-229.828649
166.719455,5921.647536,9992.780217,919.314598
166.719776,6439.791695,10732.986159,2681.334243
166.720097,5403.503377,9474.636058,2451.505594
166.720418,4663.297435,8216.285956,919.314598
166.720738,4737.318029,8438.347739,536.266849
166.721059,4145.153275,7772.162391,2757.943793
166.721380,5107.421000,6883.915261,4290.134789
166.721701,4441.235652,5551.544565,2987.772442
166.722021,3404.947333,4737.318029,536.266849
166.722342,2368.659014,4959.379811,0.000000
166.722663,3330.926739,5625.565159,459.657299
166.722983,4663.297435,7105.977043,1149.143247
166.723304,6069.688724,9178.553681,459.657299
166.723625,6957.935855,10658.965565,-1225.752797
166.723946,6069.688724,10807.006753,-842.705048
166.724266,5255.462188,10584.944971,1072.533697
166.724587,5255.462188,9252.574275,1762.019645
166.724908,4589.276840,7920.203579,766.095498
166.725228,3627.009116,6809.894666,-229.828649
166.725549,4515.256246,6735.874072,459.657299
166.725870,4441.235652,6587.832884,1915.238745
166.726191,3404.947333,6513.812290,2528.115143
166.726511,4515.256246,5773.606348,1455.581446
166.726832,3997.112087,5773.606348,1149.143247
166.727153,3775.050304,5921.647536,1532.190996
166.727473,4219.173869,5181.441594,1838.629195
166.727794,4885.359217,6143.709319,689.485948
166.728115,5773.606348,8586.388927,-76.609550
166.728436,5921.647536,10732.986159,-383.047749
166.728756,4663.297435,9770.718434,-1762.019645
166.729077,3478.967927,6365.771101,-2374.896044
166.729398,4663.297435,6143.709319,-1072.533697
166.729718,5625.565159,8068.244768,-383.047749
166.730039,3997.112087,8882.471304,-1225.752797
166.730360,3404.947333,8068.244768,-2221.676944
166.730681,4737.318029,8290.306550,-1838.629195
166.731001,4737.318029,7624.121203,536.266849
166.731322,3923.091493,7179.997637,842.705048
166.731643,4737.318029,7846.182985,-1072.533697
166.731964,4811.338623,8956.491898,-2681.334243
166.732284,4885.359217,8956.491898,-2604.724693
166.732605,6587.832884,8882.471304,-842.705048
166.732926,7105.977043,10955.047942,383.047749
166.733246,6661.853478,12657.521608,1455.581446
166.733567,4293.194464,10658.965565,0.000000
166.733888,3923.091493,7328.038826,-1762.019645
166.734209,5773.606348,6291.750507,-612.876398
166.734529,6587.832884,7624.121203,1072.533697
166.734850,5551.544565,8660.409521,689.485948
166.735171,5921.647536,9696.697840,-1991.848295
166.735491,6587.832884,11103.089130,-2834.553343
166.735812,6957.935855,11029.068536,0.000000
166.736133,7031.956449,9696.697840,3064.381992
166.736454,6217.729913,8586.388927,2757.943793
166.736774,5181.441594,8438.347739,766.095498
166.737095,4663.297435,7920.203579,-229.828649
166.737416,5329.482782,8290.306550,-1302.362347
166.737737,5625.565159,9030.512492,0.000000
166.738057,4219.173869,9104.533087,229.828649
166.738378,4737.318029,8808.450710,0.000000
166.738699,5995.668130,8882.471304,-689.485948
166.739020,4737.318029,7994.224174,76.609550
166.739341,3997.112087,6291.750507,459.657299
166.739661,4663.297435,7550.100608,-76.609550
166.739982,4959.379811,9696.697840,-153.219100
166.740303,4145.153275,9992.780217,766.095498
166.740624,6365.771101,10362.883188,1225.752797
166.740944,4885.359217,9400.615463,842.705048
166.741265,2886.803174,7846.182985,2221.676944
166.741586,2664.741391,5625.565159,2451.505594
166.741907,3404.947333,5107.421000,1838.629195
166.742228,1924.535449,4071.132681,1302.362347
166.742548,2442.679609,4515.256246,995.924147
166.742869,4737.318029,6291.750507,536.266849
166.743190,4885.359217,8438.347739,1302.362347
166.743511,4737.318029,8882.471304,1302.362347
166.743832,5181.441594,7254.018232,-1532.190996
166.744152,4589.276840,6217.729913,-1762.019645
166.744473,4811.338623,5699.585753,842.705048
166.744794,5255.462188,5551.544565,1532.190996
166.745115,5551.544565,7402.059420,-1378.971896
166.745435,3923.091493,8364.327145,-2987.772442
166.745756,4811.338623,8290.306550,-1838.629195
166.746077,6365.771101,7846.182985,0.000000
166.746398,5403.503377,6735.874072,1838.629195
166.746719,3627.009116,5181.441594,919.314598
166.747039,4367.215058,4959.379811,-612.876398
166.747360,4293.194464,7031.956449,-306.438199
166.747681,4811.338623,8586.388927,1532.190996
166.748002,6069.688724,8882.471304,459.657299
166.748322,5329.482782,7920.203579,-1455.581446
166.748643,4071.132681,7994.224174,-1608.800546
166.748964,4737.318029,9030.512492,919.314598
166.749285,5995.668130,9844.739029,1072.533697
166.749606,4663.297435,9104.533087,-306.438199
166.749926,3552.988522,8512.368333,-1455.581446
166.750247,4885.359217,9252.574275,-689.485948
166.750568,5329.482782,9918.759623,1149.143247
166.750889,5329.482782,10140.821405,995.924147
166.751210,5773.606348,8956.491898,-1762.019645
166.751530,4737.318029,7698.141797,-2604.724693
166.751851,4737.318029,7328.038826,0.000000
166.752172,6661.853478,7105.977043,2145.067394
166.752493,7105.977043,8882.471304,0.000000
166.752813,5551.544565,10066.800811,-3983.696590
166.753134,5773.606348,11103.089130,-3907.087040
166.753455,7105.977043,10658.965565,-1225.752797
166.753776,8734.430116,9992.780217,1378.971896
166.754097,7402.059420,9252.574275,153.219100
166.754417,4663.297435,8142.265362,-3140.991542
166.754738,3330.926739,7772.162391,-2834.553343
166.755059,4367.215058,9104.533087,383.047749
166.755380,6365.771101,9178.553681,1072.533697
166.755701,5329.482782,7846.182985,-766.095498
166.756021,3923.091493,6957.935855,-2068.457845
166.756342,4293.194464,7402.059420,-1225.752797
166.756663,4811.338623,8216.285956,1302.362347
166.756984,5255.462188,8142.265362,229.828649
166.757304,4885.359217,7105.977043,-1455.581446
166.757625,5255.462188,7476.080014,-1072.533697
166.757946,5625.565159,9474.636058,842.705048
166.758267,5181.441594,9474.636058,1455.581446
166.758588,5107.421000,7846.182985,-612.876398
166.758908,4219.173869,5847.626942,-1608.800546
166.759229,3256.906145,5847.626942,-919.314598
166.759550,4293.194464,6365.771101,612.876398
166.759871,4219.173869,6217.729913,-995.924147
166.760191,4219.173869,5403.503377,-3447.429741
166.760512,5255.462188,7624.121203,-2834.553343
166.760833,5477.523971,9992.780217,-536.266849
166.761154,5551.544565,10214.842000,766.095498
166.761475,6217.729913,8808.450710,842.705048
166.761795,4737.318029,6883.915261,0.000000
166.762116,2738.761985,6439.791695,-842.705048
166.762437,3701.029710,7105.977043,-76.609550
166.762758,4293.194464,7031.956449,0.000000
166.763079,4367.215058,6587.832884,-919.314598
166.763399,4737.318029,6587.832884,-1608.800546
166.763720,3849.070898,7105.977043,-1149.143247
166.764041,4515.256246,8290.306550,1532.190996
166.764362,6587.832884,9548.656652,1532.190996
166.764682,5625.565159,9178.553681,-306.438199
166.765003,4441.235652,7624.121203,-689.485948
166.765324,6439.791695,8290.306550,1149.143247
166.765645,5255.462188,7550.100608,1225.752797
166.765966,3182.885551,6143.709319,-1378.971896
166.766286,4515.256246,7476.080014,-3524.039291
166.766607,5847.626942,8586.388927,-2451.505594
166.766928,6365.771101,8586.388927,536.266849
166.767249,6883.915261,9474.636058,1532.190996
166.767570,5403.503377,8956.491898,-383.047749
166.767890,4145.153275,8512.368333,-766.095498
166.768211,5773.606348,8438.347739,1685.410096
166.768532,6957.935855,8364.327145,919.314598
166.768853,6143.709319,7254.018232,-689.485948
166.769173,5625.565159,7476.080014,-2681.334243
166.769494,4885.359217,7994.224174,-2374.896044
166.769815,4811.338623,9326.594869,383.047749
166.770136,6883.915261,10955.047942,1149.143247
166.770457,5403.503377,9474.636058,-1225.752797
166.770777,2812.782580,7179.997637,-1915.238745
166.771098,4589.276840,8290.306550,1608.800546
166.771419,4959.379811,9326.594869,2681.334243
166.771740,3627.009116,8068.244768,766.095498
166.772060,4441.235652,7179.997637,-1915.238745
166.772381,5255.462188,7105.977043,-2221.676944
166.772702,4737.318029,7994.224174,612.876398
166.773023,4737.318029,8586.388927,2068.457845
166.773344,5107.421000,7698.141797,-306.438199
166.773664,4737.318029,8290.306550,-1991.848295
166.773985,5329.482782,9474.636058,229.828649
166.774306,5773.606348,9474.636058,995.924147
166.774627,6217.729913,8882.471304,842.705048
166.774948,5995.668130,8290.306550,0.000000
166.775268,4071.132681,7994.224174,-1378.971896
166.775589,3701.029710,7920.203579,-459.657299
166.775910,5181.441594,7698.141797,1149.143247
166.776231,5477.523971,6513.812290,612.876398
166.776551,4071.132681,5625.565159,-1225.752797
166.776872,3256.906145,6735.874072,-1225.752797
166.777193,4219.173869,7476.080014,-1072.533697
166.777514,4737.318029,8142.265362,689.485948
166.777835,5181.441594,7476.080014,153.219100
166.778155,5847.626942,7698.141797,-1225.752797
166.778476,6143.709319,9474.636058,-1149.143247
166.778797,3701.029710,8438.347739,-76.609550
166.779118,5329.482782,7698.141797,-536.266849
166.779439,6513.812290,7254.018232,-689.485948
166.779759,3849.070898,7105.977043,-1072.533697
166.780080,3701.029710,6069.688724,153.219100
166.780401,5329.482782,6957.935855,0.000000
166.780722,3256.906145,6217.729913,-1762.019645
166.781042,1924.535449,4737.318029,-2757.943793
166.781363,5477.523971,6143.709319,-2221.676944
166.781684,6217.729913,9178.553681,-842.705048
166.782005,4663.297435,9844.739029,-766.095498
166.782326,4515.256246,7031.956449,-3753.867940
166.782646,4737.318029,6143.709319,-5515.887586
166.782967,6143.709319,10140.821405,-1532.190996
166.783288,6587.832884,12361.439231,1225.752797
166.783609,6513.812290,10658.965565,-1302.362347
166.783929,5847.626942,8734.430116,-3447.429741
166.784250,4737.318029,8290.306550,-1532.190996
166.784571,4737.318029,6661.853478,1072.533697
166.784892,3627.009116,5625.565159,1838.629195
166.785213,5181.441594,6809.894666,-153.219100
166.785533,5477.523971,8364.327145,-2604.724693
166.785854,6217.729913,9548.656652,-2298.286494
166.786175,6291.750507,10362.883188,536.266849
166.786496,7402.059420,12213.398043,2987.772442
166.786817,7105.977043,11621.233289,1149.143247
166.787137,6365.771101,10140.821405,-2145.067394
166.787458,5107.421000,8882.471304,-1838.629195
166.787779,5699.585753,7994.224174,612.876398
166.788100,6587.832884,9400.615463,1532.190996
166.788420,4589.276840,9918.759623,-766.095498
166.788741,3849.070898,9622.677246,-1991.848295
166.789062,4885.359217,8808.450710,-306.438199
166.789383,5181.441594,7254.018232,1991.848295
166.789704,3478.967927,5921.647536,2221.676944
166.790024,4367.215058,7846.182985,76.609550
166.790345,4589.276840,9770.718434,-459.657299
166.790666,4811.338623,10362.883188,0.000000
166.790987,7624.121203,10584.944971,1302.362347
166.791308,6809.894666,9474.636058,2068.457845
166.791628,3404.947333,7772.162391,2374.896044
166.791949,3404.947333,7846.182985,1455.581446
166.792270,2812.782580,7476.080014,306.438199
166.792591,1998.556043,5033.400406,-229.828649
166.792911,4145.153275,4145.153275,612.876398
166.793232,5033.400406,5181.441594,766.095498
166.793553,3330.926739,7772.162391,1072.533697
166.793874,4367.215058,8882.471304,459.657299
166.794195,5551.544565,8438.347739,-1302.362347
166.794515,4811.338623,6069.688724,229.828649
166.794836,6587.832884,5995.668130,3447.429741
166.795157,7328.038826,7031.956449,3217.601092
166.795478,3404.947333,5995.668130,459.657299
166.795798,3775.050304,5329.482782,-766.095498
166.796119,6883.915261,6587.832884,-766.095498
166.796440,6069.688724,7476.080014,536.266849
166.796761,4663.297435,6513.812290,1762.019645
