#time,accel_x,accel_y,accel_z
188.161094,5107.421000,7994.224174,-229.828649
188.161415,5107.421000,8438.347739,-459.657299
188.161735,5033.400406,8068.244768,153.219100
188.162056,5107.421000,7920.203579,-383.047749
188.162377,4811.338623,7994.224174,0.000000
188.162698,4811.338623,7994.224174,0.000000
188.163018,4885.359217,7994.224174,-306.438199
188.163339,4959.379811,8068.244768,0.000000
188.163660,4885.359217,8068.244768,0.000000
188.163981,4885.359217,8142.265362,0.000000
188.164301,5033.400406,7920.203579,0.000000
188.164622,5107.421000,8290.306550,-229.828649
188.164943,5181.441594,7994.224174,-306.438199
188.165264,5033.400406,7846.182985,-306.438199
188.165584,4885.359217,8216.285956,-153.219100
188.165905,4959.379811,7994.224174,0.000000
188.166226,5181.441594,7994.224174,0.000000
188.166547,4959.379811,7994.224174,-229.828649
188.166867,5181.441594,7994.224174,-383.047749
188.167188,4811.338623,7994.224174,-229.828649
188.167509,5033.400406,8216.285956,0.000000
188.167829,5329.482782,7994.224174,-536.266849
188.168150,4885.359217,7994.224174,-459.657299
188.168471,5033.400406,8216.285956,0.000000
188.168792,4737.318029,8216.285956,76.609550
188.169112,4959.379811,8142.265362,-383.047749
188.169433,4959.379811,7994.224174,0.000000
188.169754,5107.421000,8216.285956,-306.438199
188.170075,5033.400406,7994.224174,0.000000
188.170395,5181.441594,7846.182985,-153.219100
188.170716,4959.379811,8068.244768,0.000000
188.171037,5033.400406,8216.285956,-76.609550
188.171358,5033.400406,7846.182985,0.000000
188.171678,4885.359217,7846.182985,-459.657299
188.171999,4589.276840,7698.141797,-689.485948
188.172320,4071.132681,7328.038826,-306.438199
188.172641,4515.256246,8216.285956,-306.438199
188.172961,4589.276840,9400.615463,-766.095498
188.173282,4589.276840,9918.759623,-1149.143247
188.173603,4737.318029,9918.759623,-1532.190996
188.173924,4441.235652,9400.615463,-842.705048
188.174244,3775.050304,8808.450710,0.000000
188.174565,2886.803174,8956.491898,766.095498
188.174886,2812.782580,9326.594869,1072.533697
188.175207,2590.720797,9252.574275,459.657299
188.175527,2886.803174,8290.306550,-306.438199
188.175848,3330.926739,8364.327145,-919.314598
188.176169,3108.864956,9178.553681,0.000000
188.176490,3034.844362,9770.718434,229.828649
188.176810,2590.720797,9474.636058,459.657299
188.177131,2738.761985,9178.553681,459.657299
188.177452,2516.700203,9030.512492,229.828649
188.177773,2072.576638,10140.821405,-689.485948
188.178093,1850.514855,11547.212695,-1685.410096
188.178414,1110.308913,11769.274478,-1685.410096
188.178735,1332.370696,11547.212695,-1608.800546
188.179056,1036.288319,11251.130318,-1455.581446
188.179376,0.000000,11473.192101,-1072.533697
188.179697,-1036.288319,12435.459826,-306.438199
188.180018,-1702.473667,13101.645173,229.828649
188.180339,-2072.576638,12509.480420,766.095498
188.180659,-1702.473667,11251.130318,1532.190996
188.180980,-814.226536,11177.109724,1991.848295
188.181301,-1628.453072,11843.295072,1455.581446
188.181622,-2442.679609,11251.130318,459.657299
188.181942,-2146.597232,10955.047942,-995.924147
188.182263,-1258.350101,9918.759623,-536.266849
188.182584,-592.164754,9844.739029,995.924147
188.182905,0.000000,10584.944971,1302.362347
188.183225,222.061783,10955.047942,612.876398
188.183546,370.102971,11473.192101,-995.924147
188.183867,1554.432478,11325.150913,-1149.143247
188.184188,2072.576638,10510.924376,-842.705048
188.184508,2516.700203,10066.800811,-153.219100
188.184829,2812.782580,9992.780217,-689.485948
188.185150,2294.638420,9326.594869,-2298.286494
188.185471,1998.556043,9474.636058,-2374.896044
188.185791,2220.617826,9696.697840,-1225.752797
188.186112,2368.659014,10066.800811,0.000000
188.186433,1702.473667,10066.800811,76.609550
188.186753,962.267725,10362.883188,-229.828649
188.187074,740.205942,10658.965565,-229.828649
188.187395,74.020594,10881.027347,229.828649
188.187716,-222.061783,10584.944971,383.047749
188.188036,-444.123565,10362.883188,229.828649
188.188357,0.000000,10584.944971,689.485948
188.188678,-444.123565,10732.986159,1149.143247
188.188999,-1184.329507,10881.027347,1608.800546
188.189319,-592.164754,11029.068536,1149.143247
188.189640,222.061783,11251.130318,1149.143247
188.189961,740.205942,11177.109724,536.266849
188.190282,1258.350101,10807.006753,-229.828649
188.190602,1776.494261,10881.027347,-919.314598
188.190923,1628.453072,10510.924376,-1149.143247
188.191244,1776.494261,9770.718434,-536.266849
188.191565,1480.411884,8882.471304,153.219100
188.191885,2368.659014,8660.409521,0.000000
188.192206,2442.679609,9548.656652,76.609550
188.192527,2368.659014,9992.780217,0.000000
188.192848,2738.761985,10732.986159,-995.924147
188.193168,3034.844362,10288.862594,-1225.752797
188.193489,3404.947333,9770.718434,-1302.362347
188.193810,3478.967927,9696.697840,-995.924147
188.194131,3404.947333,9918.759623,-842.705048
188.194451,1924.535449,10955.047942,-153.219100
188.194772,1184.329507,10955.047942,-459.657299
188.195093,814.226536,10881.027347,-383.047749
188.195414,962.267725,10732.986159,-919.314598
188.195734,518.144159,9992.780217,-1915.238745
188.196055,-740.205942,9474.636058,-1532.190996
188.196376,-1628.453072,9030.512492,-536.266849
188.196697,-1406.391290,9548.656652,842.705048
188.197017,0.000000,11547.212695,1991.848295
188.197338,148.041188,12731.542202,2834.553343
188.197659,222.061783,12879.583391,1608.800546
188.197980,222.061783,12879.583391,612.876398
188.198300,0.000000,11769.274478,-383.047749
188.198621,814.226536,10881.027347,0.000000
188.198942,740.205942,10510.924376,-536.266849
188.199263,666.185348,9918.759623,-1225.752797
188.199583,444.123565,9770.718434,-2068.457845
188.199904,-814.226536,9770.718434,-2145.067394
188.200225,-1628.453072,10140.821405,-2221.676944
188.200546,-222.061783,11325.150913,0.000000
188.200866,592.164754,12583.501014,766.095498
188.201187,962.267725,12731.542202,612.876398
188.201508,518.144159,12509.480420,-229.828649
188.201829,-148.041188,12879.583391,-919.314598
188.202149,-592.164754,13175.665768,-766.095498
188.202470,222.061783,11695.253884,-689.485948
188.202791,1036.288319,8660.409521,-689.485948
188.203112,1924.535449,8290.306550,0.000000
188.203432,814.226536,9770.718434,1532.190996
188.203753,-296.082377,11399.171507,1378.971896
188.204074,-962.267725,11621.233289,1225.752797
188.204395,-222.061783,10066.800811,536.266849
188.204715,888.247130,8290.306550,76.609550
188.205036,1702.473667,8216.285956,842.705048
188.205357,2072.576638,10732.986159,-153.219100
188.205677,222.061783,12657.521608,-1608.800546
188.205998,-370.102971,12805.562797,-2528.115143
188.206319,962.267725,12287.418637,-1608.800546
188.206640,1702.473667,12361.439231,-229.828649
188.206960,1480.411884,12879.583391,1302.362347
188.207281,444.123565,12065.356855,766.095498
188.207602,-370.102971,11103.089130,383.047749
188.207923,0.000000,9474.636058,306.438199
188.208243,-370.102971,8734.430116,766.095498
188.208564,-518.144159,8290.306550,383.047749
188.208885,-1184.329507,8290.306550,1225.752797
188.209206,-518.144159,8956.491898,995.924147
188.209526,296.082377,9326.594869,153.219100
188.209847,1554.432478,10881.027347,0.000000
188.210168,2664.741391,13027.624579,0.000000
188.210489,2368.659014,12879.583391,-1149.143247
188.210809,1332.370696,10510.924376,-1915.238745
188.211130,2146.597232,7846.182985,-2451.505594
188.211451,3182.885551,7105.977043,-459.657299
188.211772,2812.782580,9030.512492,1608.800546
188.212092,1924.535449,11769.274478,612.876398
188.212413,1702.473667,13175.665768,-2145.067394
188.212734,1480.411884,12139.377449,-3447.429741
188.213055,592.164754,9400.615463,-3064.381992
188.213375,666.185348,7254.018232,-1225.752797
188.213696,148.041188,7254.018232,383.047749
188.214017,74.020594,10658.965565,383.047749
188.214338,0.000000,14211.954086,459.657299
188.214658,-2072.576638,15396.283594,229.828649
188.214979,-1924.535449,14878.139434,536.266849
188.215300,-888.247130,14359.995275,919.314598
188.215621,-1924.535449,12435.459826,1225.752797
188.215941,-1998.556043,10584.944971,229.828649
188.216262,-888.247130,10288.862594,0.000000
188.216583,-296.082377,11029.068536,612.876398
188.216904,-1036.288319,10510.924376,1762.019645
188.217224,-444.123565,10140.821405,1455.581446
188.217545,444.123565,9696.697840,766.095498
188.217866,1258.350101,9474.636058,1225.752797
188.218187,3404.947333,10955.047942,689.485948
188.218507,4737.318029,11473.192101,-995.924147
188.218828,4589.276840,10658.965565,-2221.676944
188.219149,4441.235652,10658.965565,-2911.162892
188.219470,3256.906145,9770.718434,-3217.601092
188.219790,1480.411884,8290.306550,-2068.457845
188.220111,2738.761985,9030.512492,-995.924147
188.220432,3849.070898,11251.130318,995.924147
188.220753,1998.556043,12805.562797,153.219100
188.221073,666.185348,12139.377449,-1455.581446
188.221394,-666.185348,10362.883188,-2374.896044
188.221715,-2590.720797,8660.409521,-689.485948
188.222036,-2294.638420,9548.656652,2298.286494
188.222357,-1258.350101,10436.903782,1685.410096
188.222677,-74.020594,12287.418637,-689.485948
188.222998,-740.205942,14063.912898,-306.438199
188.223319,-3182.885551,13915.871710,-383.047749
188.223640,-3108.864956,12435.459826,766.095498
188.223961,-666.185348,10510.924376,3294.210641
188.224282,0.000000,10140.821405,2987.772442
188.224602,-296.082377,10288.862594,1302.362347
188.224923,-666.185348,10584.944971,-612.876398
188.225244,-962.267725,10584.944971,-995.924147
188.225565,888.247130,10066.800811,1149.143247
188.225886,2516.700203,7476.080014,2068.457845
188.226206,3404.947333,6291.750507,536.266849
188.226527,3627.009116,7994.224174,-689.485948
188.226848,3034.844362,12065.356855,-1532.190996
188.227169,2664.741391,12731.542202,-2451.505594
188.227490,4367.215058,11029.068536,-2451.505594
188.227810,5403.503377,9326.594869,-1302.362347
188.228131,3775.050304,7772.162391,-1532.190996
188.228452,1702.473667,7846.182985,-1685.410096
188.228773,1110.308913,10510.924376,-1838.629195
188.229094,-74.020594,12879.583391,-1685.410096
188.229415,74.020594,13101.645173,-2298.286494
188.229735,2072.576638,11251.130318,-919.314598
188.230056,-518.144159,9548.656652,306.438199
188.230377,-2294.638420,10510.924376,2451.505594
188.230698,-3478.967927,12879.583391,2374.896044
188.231019,-2738.761985,13397.727550,1378.971896
188.231339,-2072.576638,11251.130318,459.657299
188.231660,74.020594,10214.842000,842.705048
188.231981,74.020594,11399.171507,1378.971896
188.232302,-1850.514855,12435.459826,1378.971896
188.232623,-1628.453072,13397.727550,612.876398
188.232944,0.000000,11399.171507,-536.266849
188.233264,2220.617826,10214.842000,229.828649
188.233585,1258.350101,9400.615463,995.924147
188.233906,1850.514855,9622.677246,459.657299
188.234227,2442.679609,11029.068536,-612.876398
188.234548,1628.453072,10214.842000,-1302.362347
188.234868,3256.906145,8660.409521,-1608.800546
188.235189,6513.812290,10140.821405,-689.485948
188.235510,4145.153275,10140.821405,-842.705048
188.235831,1850.514855,10362.883188,-2221.676944
188.236152,2516.700203,9622.677246,-2451.505594
188.236473,2886.803174,8882.471304,-1685.410096
188.236793,3256.906145,9918.759623,-1072.533697
188.237114,3034.844362,11769.274478,-1762.019645
188.237435,148.041188,13249.686362,-2068.457845
188.237756,-1184.329507,12805.562797,-1225.752797
188.238077,-740.205942,11177.109724,-383.047749
188.238397,-2368.659014,8660.409521,842.705048
188.238718,-1184.329507,10584.944971,2911.162892
188.239039,-2294.638420,13471.748144,3294.210641
188.239360,-4663.297435,13323.706956,383.047749
188.239681,-1998.556043,12435.459826,-153.219100
188.240001,0.000000,12065.356855,919.314598
188.240322,-1110.308913,11177.109724,2528.115143
188.240643,-1258.350101,10658.965565,3217.601092
188.240964,-1480.411884,9844.739029,2528.115143
188.241285,-962.267725,9474.636058,995.924147
188.241606,1628.453072,9326.594869,2298.286494
188.241926,3404.947333,8512.368333,919.314598
188.242247,3034.844362,7698.141797,-1455.581446
188.242568,5107.421000,7698.141797,-689.485948
188.242889,6957.935855,7698.141797,0.000000
188.243210,6587.832884,6957.935855,0.000000
188.243530,7476.080014,6513.812290,-1225.752797
188.243851,8142.265362,7031.956449,-3524.039291
188.244172,7920.203579,7254.018232,-4060.306139
188.244493,8586.388927,7550.100608,-1685.410096
188.244814,7476.080014,6809.894666,-1685.410096
188.245135,6513.812290,6957.935855,-2145.067394
188.245455,5551.544565,8068.244768,-1838.629195
188.245776,4737.318029,8512.368333,-1762.019645
188.246097,5477.523971,7105.977043,-2068.457845
188.246418,5181.441594,8142.265362,-1532.190996
188.246739,2738.761985,7698.141797,-76.609550
188.247059,2368.659014,8586.388927,2451.505594
188.247380,2664.741391,7846.182985,4290.134789
188.247701,1776.494261,8364.327145,3600.648841
188.248022,3997.112087,8808.450710,2451.505594
188.248343,1554.432478,7846.182985,1455.581446
188.248664,1406.391290,7328.038826,306.438199
188.248984,4441.235652,9030.512492,1762.019645
188.249305,4219.173869,8808.450710,1762.019645
188.249626,4885.359217,6587.832884,-689.485948
188.249947,7550.100608,5625.565159,-766.095498
188.250268,5995.668130,6291.750507,-2757.943793
188.250588,4885.359217,7920.203579,-3217.601092
188.250909,7624.121203,7920.203579,-1685.410096
188.251230,10436.903782,11029.068536,-995.924147
188.251551,9844.739029,11991.336260,0.000000
188.251872,7920.203579,10584.944971,-2374.896044
188.252192,8364.327145,8216.285956,-5362.668486
188.252513,6587.832884,7105.977043,-3294.210641
188.252834,5181.441594,6809.894666,-306.438199
188.253155,5329.482782,4071.132681,-1455.581446
188.253476,4293.194464,3775.050304,-1915.238745
188.253797,4145.153275,8068.244768,153.219100
188.254117,2294.638420,11473.192101,1685.410096
188.254438,2146.597232,11251.130318,76.609550
188.254759,4441.235652,13027.624579,-842.705048
188.255080,3775.050304,13397.727550,0.000000
188.255401,3256.906145,11695.253884,76.609550
188.255721,2886.803174,8956.491898,689.485948
188.256042,3627.009116,8956.491898,0.000000
188.256363,2368.659014,8216.285956,-383.047749
188.256684,1776.494261,7698.141797,0.000000
188.257005,2590.720797,9400.615463,689.485948
188.257326,5403.503377,13101.645173,2834.553343
188.257646,3478.967927,9104.533087,2451.505594
188.257967,4737.318029,4663.297435,-536.266849
188.258288,6735.874072,3627.009116,0.000000
188.258609,1480.411884,2516.700203,-612.876398
188.258930,4737.318029,4441.235652,-766.095498
188.259250,9400.615463,7031.956449,-459.657299
188.259571,9474.636058,9992.780217,-1532.190996
188.259892,11695.253884,10140.821405,-1378.971896
188.260213,10658.965565,8586.388927,-3064.381992
188.260534,7105.977043,7550.100608,-4519.963438
188.260855,9252.574275,8290.306550,-612.876398
188.261175,7476.080014,5255.462188,229.828649
188.261496,6069.688724,2294.638420,-1991.848295
188.261817,7031.956449,3552.988522,-1302.362347
188.262138,3775.050304,7476.080014,-1378.971896
188.262459,2072.576638,10436.903782,-1455.581446
188.262779,4663.297435,10362.883188,612.876398
188.263100,4885.359217,9696.697840,1302.362347
188.263421,3034.844362,7328.038826,3064.381992
188.263742,2442.679609,6291.750507,3983.696590
188.264063,1850.514855,7846.182985,2298.286494
188.264383,1036.288319,8586.388927,1685.410096
188.264704,2738.761985,8142.265362,1072.533697
188.265025,5033.400406,7846.182985,0.000000
188.265346,5403.503377,9178.553681,842.705048
188.265667,4737.318029,9696.697840,2911.162892
188.265988,3849.070898,8882.471304,306.438199
188.266308,3404.947333,6513.812290,-1915.238745
188.266629,5625.565159,5773.606348,-1762.019645
188.266950,5773.606348,5995.668130,-612.876398
188.267271,7105.977043,8586.388927,536.266849
188.267592,5847.626942,9770.718434,1838.629195
188.267912,4885.359217,9104.533087,-536.266849
188.268233,5995.668130,8364.327145,-2298.286494
188.268554,6439.791695,8068.244768,-1991.848295
188.268875,5995.668130,8142.265362,-1378.971896
188.269196,6513.812290,8586.388927,-459.657299
188.269517,6217.729913,7105.977043,-689.485948
188.269837,5181.441594,5699.585753,-459.657299
188.270158,5181.441594,5921.647536,-153.219100
188.270479,3552.988522,7772.162391,0.000000
188.270800,4737.318029,9474.636058,0.000000
188.271121,3997.112087,9104.533087,-459.657299
188.271441,4145.153275,7105.977043,-1608.800546
188.271762,4589.276840,7179.997637,-1225.752797
188.272083,3478.967927,7624.121203,459.657299
188.272404,2294.638420,8882.471304,153.219100
188.272725,4589.276840,9030.512492,153.219100
188.273046,3923.091493,9400.615463,229.828649
188.273366,5181.441594,9548.656652,0.000000
188.273687,6217.729913,11029.068536,766.095498
188.274008,4959.379811,9844.739029,-153.219100
188.274329,6661.853478,8364.327145,-1455.581446
188.274650,7624.121203,7624.121203,306.438199
188.274970,5033.400406,5921.647536,-536.266849
188.275291,4959.379811,5255.462188,0.000000
188.275612,6365.771101,6735.874072,1378.971896
188.275933,6883.915261,8364.327145,766.095498
188.276254,6513.812290,7031.956449,0.000000
188.276575,7328.038826,6587.832884,-2145.067394
188.276895,6217.729913,6735.874072,-2987.772442
188.277216,5255.462188,7179.997637,-383.047749
188.277537,7105.977043,7402.059420,919.314598
188.277858,7105.977043,7772.162391,-1455.581446
188.278179,7031.956449,9326.594869,-1608.800546
188.278499,7698.141797,10214.842000,-1455.581446
188.278820,5995.668130,9474.636058,-1225.752797
188.279141,6809.894666,7994.224174,306.438199
188.279462,5107.421000,6513.812290,383.047749
188.279783,3923.091493,6365.771101,-306.438199
188.280103,4071.132681,9474.636058,229.828649
188.280424,1406.391290,11029.068536,0.000000
188.280745,2220.617826,9992.780217,-383.047749
188.281066,3627.009116,7402.059420,1608.800546
188.281387,2072.576638,6217.729913,1838.629195
188.281708,814.226536,6957.935855,1225.752797
188.282028,2072.576638,8956.491898,1378.971896
188.282349,1184.329507,9622.677246,536.266849
188.282670,3182.885551,8882.471304,995.924147
188.282991,6957.935855,9400.615463,2528.115143
188.283312,5847.626942,9474.636058,76.609550
188.283632,4293.194464,9622.677246,-995.924147
188.283953,6143.709319,8660.409521,-995.924147
188.284274,6957.935855,6587.832884,-536.266849
188.284595,6883.915261,3701.029710,-229.828649
188.284916,8068.244768,3849.070898,-689.485948
188.285237,7031.956449,6143.709319,-1149.143247
188.285557,6439.791695,8216.285956,-995.924147
188.285878,6587.832884,7772.162391,-459.657299
188.286199,6143.709319,4959.379811,-1302.362347
188.286520,6439.791695,4737.318029,-1149.143247
188.286841,7328.038826,6735.874072,1455.581446
188.287161,5773.606348,6957.935855,459.657299
188.287482,6217.729913,5995.668130,-1608.800546
188.287803,8586.388927,6143.709319,-1455.581446
188.288124,7328.038826,6661.853478,-1072.533697
188.288445,6735.874072,7624.121203,-229.828649
188.288766,7772.162391,7994.224174,0.000000
188.289086,7105.977043,8438.347739,-689.485948
188.289407,6957.935855,7920.203579,-306.438199
188.289728,5181.441594,7550.100608,-536.266849
188.290049,3182.885551,9030.512492,-1532.190996
188.290370,2368.659014,9178.553681,-766.095498
188.290690,3108.864956,8882.471304,-153.219100
188.291011,3330.926739,8068.244768,-536.266849
188.291332,3108.864956,9104.533087,536.266849
188.291653,1258.350101,10881.027347,1838.629195
188.291974,1702.473667,12065.356855,1915.238745
188.292294,2072.576638,10955.047942,2681.334243
188.292615,2812.782580,9104.533087,2145.067394
188.292936,4737.318029,7550.100608,383.047749
188.293257,4737.318029,8216.285956,-1302.362347
188.293578,5921.647536,10732.986159,-1915.238745
188.293899,4885.359217,9696.697840,-1608.800546
188.294219,5329.482782,7772.162391,-689.485948
188.294540,5921.647536,7105.977043,1608.800546
188.294861,5995.668130,9400.615463,1455.581446
188.295182,3182.885551,9696.697840,-1532.190996
188.295503,4885.359217,8660.409521,-4213.525239
188.295823,6217.729913,7105.977043,-2757.943793
188.296144,5181.441594,7476.080014,-919.314598
188.296465,5625.565159,8808.450710,689.485948
188.296786,5773.606348,9918.759623,919.314598
188.297107,3997.112087,9622.677246,0.000000
188.297428,3775.050304,8364.327145,0.000000
188.297748,4663.297435,6735.874072,-1072.533697
188.298069,4219.173869,5403.503377,-1762.019645
188.298390,4071.132681,7920.203579,995.924147
188.298711,5551.544565,9178.553681,2451.505594
188.299032,5403.503377,7476.080014,306.438199
188.299352,3404.947333,6143.709319,-1532.190996
188.299673,2442.679609,5995.668130,-2298.286494
188.299994,2886.803174,7772.162391,153.219100
188.300315,3552.988522,7920.203579,1532.190996
188.300636,6069.688724,8364.327145,306.438199
188.300957,6439.791695,7846.182985,-383.047749
188.301277,4441.235652,8734.430116,-766.095498
188.301598,3108.864956,9178.553681,229.828649
188.301919,3849.070898,9178.553681,995.924147
188.302240,5181.441594,7105.977043,612.876398
188.302561,7476.080014,5847.626942,153.219100
188.302881,8068.244768,7179.997637,-153.219100
188.303202,5699.585753,8808.450710,-229.828649
188.303523,4367.215058,8068.244768,-536.266849
188.303844,5995.668130,7031.956449,-689.485948
188.304165,6735.874072,6661.853478,-76.609550
188.304485,6143.709319,4959.379811,306.438199
188.304806,5921.647536,6809.894666,-1225.752797
188.305127,5625.565159,8142.265362,-2068.457845
188.305448,4885.359217,9918.759623,-689.485948
188.305769,6217.729913,8882.471304,229.828649
188.306090,7031.956449,7328.038826,1685.410096
188.306410,6587.832884,7846.182985,1838.629195
188.306731,5625.565159,8660.409521,1225.752797
188.307052,4219.173869,7994.224174,-1378.971896
188.307373,6809.894666,7105.977043,-1608.800546
188.307694,7698.141797,7105.977043,-459.657299
188.308014,5033.400406,5699.585753,1072.533697
188.308335,4885.359217,7846.182985,2528.115143
188.308656,3404.947333,10214.842000,1302.362347
188.308977,1702.473667,10584.944971,-1532.190996
188.309298,4293.194464,7105.977043,-2451.505594
188.309619,4885.359217,5773.606348,-3217.601092
188.309939,4589.276840,7624.121203,-766.095498
188.310260,4071.132681,10140.821405,1991.848295
188.310581,2664.741391,12139.377449,2068.457845
188.310902,1924.535449,11325.150913,842.705048
188.311223,2664.741391,10362.883188,0.000000
188.311543,4219.173869,8882.471304,-536.266849
188.311864,4145.153275,8512.368333,-1838.629195
188.312185,3775.050304,7994.224174,-383.047749
188.312506,4885.359217,8068.244768,536.266849
188.312827,4071.132681,7698.141797,536.266849
188.313148,2664.741391,6883.915261,1608.800546
188.313468,2664.741391,8142.265362,1072.533697
188.313789,2664.741391,9844.739029,76.609550
188.314110,3034.844362,9622.677246,-2068.457845
188.314431,5477.523971,7254.018232,-3217.601092
188.314752,5107.421000,6513.812290,-1685.410096
188.315072,5551.544565,7698.141797,612.876398
188.315393,4589.276840,9696.697840,1225.752797
188.315714,3552.988522,9326.594869,-766.095498
188.316035,5181.441594,9326.594869,-2374.896044
188.316356,6291.750507,8142.265362,-1608.800546
188.316676,7179.997637,7402.059420,-229.828649
188.316997,8290.306550,8882.471304,919.314598
188.317318,6069.688724,8068.244768,-229.828649
188.317639,3923.091493,7328.038826,-2451.505594
188.317960,4737.318029,7328.038826,-766.095498
188.318281,3997.112087,7994.224174,383.047749
188.318601,4219.173869,8882.471304,1072.533697
188.318922,5403.503377,9326.594869,153.219100
188.319243,4885.359217,8068.244768,-1455.581446
188.319564,3552.988522,8882.471304,536.266849
188.319885,2886.803174,8438.347739,2681.334243
188.320205,2516.700203,8438.347739,2451.505594
188.320526,2664.741391,8882.471304,1762.019645
188.320847,5107.421000,9474.636058,689.485948
188.321167,6735.874072,8438.347739,-383.047749
188.321488,6809.894666,5773.606348,-383.047749
188.321809,6587.832884,6291.750507,612.876398
188.322129,5847.626942,8216.285956,995.924147
188.322450,3997.112087,7254.018232,0.000000
188.322771,5921.647536,7031.956449,-919.314598
188.323091,8142.265362,6661.853478,-689.485948
188.323412,6809.894666,5995.668130,-2145.067394
188.323732,6735.874072,5477.523971,-2374.896044
188.324053,7624.121203,6735.874072,-1455.581446
188.324374,6809.894666,8734.430116,-229.828649
188.324694,6735.874072,9104.533087,612.876398
188.325015,6735.874072,8660.409521,-383.047749
188.325336,5773.606348,8364.327145,-995.924147
188.325656,6143.709319,7698.141797,459.657299
188.325977,5255.462188,6957.935855,-383.047749
188.326298,5477.523971,5847.626942,-2145.067394
188.326618,4441.235652,7476.080014,-919.314598
188.326939,2664.741391,7550.100608,536.266849
188.327259,2664.741391,8882.471304,2068.457845
188.327580,2664.741391,9474.636058,1378.971896
188.327901,2072.576638,9178.553681,-842.705048
188.328221,2146.597232,8216.285956,-1762.019645
188.328542,3775.050304,8364.327145,-1378.971896
188.328863,3552.988522,9770.718434,689.485948
188.329183,3256.906145,9474.636058,766.095498
188.329504,4071.132681,10066.800811,0.000000
188.329824,2886.803174,9918.759623,766.095498
188.330145,3182.885551,10732.986159,1072.533697
188.330466,5403.503377,9918.759623,766.095498
188.330786,4959.379811,8068.244768,-612.876398
188.331107,6069.688724,8142.265362,-1072.533697
188.331428,5921.647536,8068.244768,153.219100
188.331748,3256.906145,7624.121203,-306.438199
188.332069,5181.441594,8216.285956,766.095498
188.332390,6069.688724,9474.636058,536.266849
188.332710,5033.400406,8364.327145,-1991.848295
188.333031,6143.709319,7328.038826,-2987.772442
188.333351,5033.400406,6439.791695,-2298.286494
188.333672,5477.523971,7624.121203,306.438199
188.333993,5847.626942,8660.409521,2681.334243
188.334313,5699.585753,9400.615463,1455.581446
188.334634,6809.894666,10214.842000,-1072.533697
188.334955,5329.482782,8290.306550,-1608.800546
188.335275,4145.153275,5921.647536,-1378.971896
188.335596,6735.874072,5255.462188,383.047749
188.335917,7105.977043,7031.956449,1838.629195
188.336237,4145.153275,8512.368333,76.609550
188.336558,4959.379811,8660.409521,-766.095498
188.336878,4441.235652,8142.265362,0.000000
188.337199,4737.318029,9104.533087,612.876398
188.337520,4071.132681,7105.977043,612.876398
188.337840,5181.441594,6365.771101,-1455.581446
188.338161,5255.462188,5921.647536,-2221.676944
188.338482,4367.215058,7328.038826,0.000000
188.338802,3997.112087,9104.533087,919.314598
188.339123,3923.091493,9400.615463,919.314598
188.339443,4441.235652,9770.718434,1378.971896
188.339764,6513.812290,8808.450710,995.924147
188.340085,6809.894666,7105.977043,-689.485948
188.340405,6365.771101,4367.215058,-919.314598
188.340726,6883.915261,6365.771101,-306.438199
188.341047,4959.379811,5847.626942,995.924147
188.341367,5329.482782,6143.709319,0.000000
188.341688,6883.915261,6957.935855,-689.485948
188.342009,5995.668130,8364.327145,-612.876398
188.342329,5773.606348,8808.450710,-1225.752797
188.342650,5847.626942,7105.977043,-1225.752797
188.342970,5107.421000,6809.894666,-1532.190996
188.343291,6809.894666,7328.038826,0.000000
188.343612,5255.462188,8142.265362,842.705048
188.343932,4515.256246,9622.677246,-229.828649
188.344253,3923.091493,11103.089130,-842.705048
188.344574,3404.947333,8216.285956,-995.924147
188.344894,5773.606348,6587.832884,-689.485948
188.345215,5921.647536,6365.771101,1608.800546
188.345536,3330.926739,7994.224174,689.485948
188.345856,3108.864956,9622.677246,306.438199
188.346177,2072.576638,10066.800811,-306.438199
188.346497,3404.947333,10214.842000,-995.924147
188.346818,4737.318029,8512.368333,229.828649
188.347139,4663.297435,8290.306550,0.000000
188.347459,3775.050304,8956.491898,-383.047749
188.347780,3478.967927,10955.047942,0.000000
188.348101,2886.803174,10807.006753,0.000000
188.348421,5773.606348,10288.862594,842.705048
188.348742,3701.029710,9104.533087,1149.143247
188.349063,3552.988522,8290.306550,689.485948
188.349383,3849.070898,8068.244768,0.000000
188.349704,4737.318029,7698.141797,-536.266849
188.350024,4663.297435,7328.038826,-536.266849
188.350345,5995.668130,6587.832884,919.314598
188.350666,5477.523971,8216.285956,842.705048
188.350986,4515.256246,8660.409521,306.438199
188.351307,4959.379811,9104.533087,-229.828649
188.351628,5995.668130,7254.018232,-1072.533697
188.351948,6735.874072,6365.771101,-1991.848295
188.352269,6957.935855,7179.997637,-1915.238745
188.352589,6957.935855,8586.388927,-1378.971896
188.352910,5107.421000,8734.430116,-459.657299
188.353231,6513.812290,9178.553681,1072.533697
188.353551,6143.709319,7846.182985,919.314598
188.353872,4811.338623,5625.565159,-153.219100
188.354193,5329.482782,5255.462188,-459.657299
188.354513,5551.544565,6735.874072,0.000000
188.354834,5403.503377,7550.100608,1225.752797
188.355155,6439.791695,6735.874072,1302.362347
188.355475,5181.441594,7105.977043,153.219100
188.355796,4885.359217,7846.182985,0.000000
188.356116,5551.544565,9178.553681,306.438199
188.356437,4367.215058,7772.162391,-1378.971896
188.356758,5699.585753,5773.606348,-2221.676944
188.357078,7772.162391,6957.935855,-153.219100
188.357399,5551.544565,8438.347739,383.047749
188.357720,4885.359217,10214.842000,459.657299
188.358040,2886.803174,8808.450710,383.047749
188.358361,2442.679609,5625.565159,-1532.190996
188.358682,5847.626942,4885.359217,1149.143247
188.359002,6143.709319,5995.668130,2068.457845
188.359323,4737.318029,7624.121203,153.219100
188.359643,6365.771101,10362.883188,0.000000
188.359964,5551.544565,10807.006753,-842.705048
188.360285,5551.544565,9326.594869,-306.438199
188.360605,6661.853478,8438.347739,1225.752797
188.360926,6513.812290,7846.182985,0.000000
188.361247,5477.523971,7772.162391,-995.924147
188.361567,4367.215058,7105.977043,-1532.190996
188.361888,6143.709319,8734.430116,-2451.505594
188.362208,5477.523971,9030.512492,-459.657299
188.362529,3552.988522,9400.615463,1149.143247
188.362850,3256.906145,8512.368333,1455.581446
188.363170,3923.091493,7254.018232,689.485948
188.363491,2590.720797,6291.750507,76.609550
188.363812,4293.194464,6439.791695,-459.657299
188.364132,5255.462188,7328.038826,-612.876398
188.364453,4737.318029,9992.780217,229.828649
188.364774,4145.153275,10881.027347,383.047749
188.365094,4959.379811,9992.780217,766.095498
188.365415,6809.894666,9918.759623,-306.438199
188.365735,4515.256246,7994.224174,-1302.362347
188.366056,4367.215058,7920.203579,-2451.505594
188.366377,5107.421000,7994.224174,-3140.991542
188.366697,4885.359217,9400.615463,-1838.629195
188.367018,4737.318029,11399.171507,766.095498
188.367339,3775.050304,9548.656652,689.485948
188.367659,2220.617826,6661.853478,-383.047749
188.367980,3552.988522,5625.565159,-306.438199
188.368301,3775.050304,6513.812290,1455.581446
188.368621,3775.050304,6513.812290,612.876398
188.368942,5181.441594,7328.038826,153.219100
188.369262,5625.565159,8216.285956,459.657299
188.369583,6365.771101,8734.430116,76.609550
188.369904,6513.812290,9326.594869,-612.876398
188.370224,6439.791695,8364.327145,-2374.896044
188.370545,6365.771101,8438.347739,-3600.648841
188.370866,7031.956449,7179.997637,-2374.896044
188.371186,7476.080014,7846.182985,-229.828649
188.371507,8438.347739,8734.430116,536.266849
188.371828,3330.926739,9770.718434,-612.876398
188.372148,2368.659014,8290.306550,-1915.238745
188.372469,3330.926739,7994.224174,153.219100
188.372789,5921.647536,6143.709319,2681.334243
188.373110,4663.297435,4811.338623,1838.629195
188.373431,4959.379811,7105.977043,306.438199
188.373751,3108.864956,9844.739029,-919.314598
188.374072,1406.391290,10732.986159,-383.047749
188.374393,4293.194464,9030.512492,1762.019645
188.374713,7476.080014,8512.368333,2068.457845
188.375034,5921.647536,8290.306550,306.438199
188.375354,3627.009116,8364.327145,-2451.505594
188.375675,4663.297435,8512.368333,-3217.601092
188.375996,5699.585753,9030.512492,-2604.724693
188.376316,5699.585753,7328.038826,153.219100
188.376637,5847.626942,6291.750507,995.924147
188.376958,5625.565159,7031.956449,1455.581446
188.377278,4145.153275,8068.244768,1072.533697
188.377599,4367.215058,6735.874072,-689.485948
188.377920,7772.162391,5255.462188,-1838.629195
188.378240,7105.977043,6883.915261,-1072.533697
188.378561,6587.832884,8068.244768,995.924147
188.378881,5551.544565,8216.285956,1455.581446
188.379202,5181.441594,8216.285956,-306.438199
188.379523,5477.523971,9104.533087,-1149.143247
188.379843,4663.297435,7624.121203,-2068.457845
188.380164,4737.318029,6809.894666,-3447.429741
188.380485,5329.482782,8438.347739,-1378.971896
188.380805,5699.585753,11029.068536,536.266849
188.381126,3182.885551,9918.759623,383.047749
188.381447,2072.576638,7031.956449,0.000000
188.381767,4071.132681,6513.812290,229.828649
188.382088,3701.029710,6957.935855,1072.533697
188.382408,3256.906145,6587.832884,306.438199
188.382729,6439.791695,6217.729913,-459.657299
188.383050,6587.832884,8438.347739,0.000000
188.383370,4959.379811,9104.533087,842.705048
188.383691,6217.729913,9696.697840,306.438199
188.384012,4959.379811,9252.574275,-995.924147
188.384332,6217.729913,10881.027347,-2374.896044
188.384653,5477.523971,8956.491898,-2221.676944
188.384973,5921.647536,7254.018232,-2604.724693
188.385294,6957.935855,9178.553681,-995.924147
188.385615,4293.194464,9548.656652,842.705048
188.385935,2590.720797,9548.656652,306.438199
188.386256,2886.803174,8216.285956,383.047749
188.386577,3182.885551,6439.791695,536.266849
188.386897,4737.318029,6365.771101,1302.362347
188.387218,4737.318029,6587.832884,1225.752797
188.387539,3627.009116,8586.388927,-919.314598
188.387859,5773.606348,9548.656652,-689.485948
188.388180,4811.338623,9548.656652,612.876398
188.388500,6143.709319,9622.677246,153.219100
188.388821,5477.523971,10436.903782,-612.876398
188.389142,3701.029710,9844.739029,-1991.848295
188.389462,6069.688724,9030.512492,-2681.334243
188.389783,5847.626942,7105.977043,-1608.800546
188.390104,4293.194464,5551.544565,-459.657299
188.390424,3775.050304,8142.265362,2068.457845
188.390745,2590.720797,9992.780217,1838.629195
188.391066,962.267725,8734.430116,459.657299
188.391386,5699.585753,6735.874072,919.314598
188.391707,7031.956449,5625.565159,536.266849
188.392027,5773.606348,6587.832884,0.000000
188.392348,5773.606348,6143.709319,1532.190996
188.392669,5699.585753,7105.977043,1455.581446
188.392989,5551.544565,7254.018232,1072.533697
188.393310,6291.750507,6957.935855,0.000000
188.393631,7105.977043,7402.059420,-2604.724693
188.393951,6365.771101,8586.388927,-4290.134789
188.394272,5107.421000,8808.450710,-2528.115143
188.394592,6883.915261,8142.265362,-1991.848295
188.394913,6957.935855,7624.121203,-536.266849
188.395234,3034.844362,7772.162391,459.657299
188.395554,1332.370696,9474.636058,383.047749
188.395875,2368.659014,9326.594869,383.047749
188.396196,3552.988522,8216.285956,306.438199
188.396516,5773.606348,8364.327145,1072.533697
188.396837,4589.276840,6143.709319,459.657299
188.397158,3923.091493,7254.018232,689.485948
188.397478,2220.617826,8882.471304,2681.334243
188.397799,2664.741391,10288.862594,1762.019645
188.398119,3552.988522,8512.368333,0.000000
188.398440,6291.750507,8216.285956,-919.314598
188.398761,5255.462188,8438.347739,-1532.190996
188.399081,3775.050304,8586.388927,-1685.410096
188.399402,6069.688724,9030.512492,-1072.533697
188.399723,5921.647536,8660.409521,229.828649
188.400043,3404.947333,6809.894666,383.047749
188.400364,7328.038826,6661.853478,229.828649
188.400685,7476.080014,8586.388927,-689.485948
188.401005,5181.441594,7550.100608,-1685.410096
188.401326,8142.265362,7550.100608,-1455.581446
188.401646,9178.553681,6143.709319,-919.314598
188.401967,7402.059420,5847.626942,-612.876398
188.402288,6513.812290,6291.750507,1685.410096
188.402608,4885.359217,7402.059420,-1762.019645
188.402929,4441.235652,9696.697840,-3064.381992
188.403250,5033.400406,11177.109724,-2374.896044
188.403570,4737.318029,9252.574275,-2604.724693
188.403891,6439.791695,7031.956449,-306.438199
188.404212,4737.318029,8734.430116,2068.457845
188.404532,518.144159,10584.944971,1378.971896
188.404853,-1184.329507,8290.306550,-766.095498
188.405173,888.247130,6365.771101,-1378.971896
188.405494,4071.132681,8290.306550,-76.609550
188.405815,5329.482782,8216.285956,2451.505594
188.406135,4145.153275,8882.471304,1762.019645
188.406456,4737.318029,8956.491898,-919.314598
188.406777,3997.112087,9178.553681,459.657299
188.407097,4737.318029,8438.347739,689.485948
188.407418,6143.709319,7402.059420,-383.047749
188.407738,7328.038826,8586.388927,383.047749
188.408059,6143.709319,10658.965565,-153.219100
188.408380,5551.544565,9326.594869,-2374.896044
188.408700,6143.709319,7846.182985,-3140.991542
188.409021,7179.997637,8956.491898,-1072.533697
188.409342,4071.132681,8586.388927,612.876398
188.409662,3997.112087,7105.977043,459.657299
188.409983,5255.462188,5625.565159,153.219100
188.410304,3775.050304,4959.379811,995.924147
188.410624,4367.215058,7105.977043,1608.800546
188.410945,5551.544565,8512.368333,919.314598
188.411265,4515.256246,9030.512492,-1225.752797
188.411586,4737.318029,8586.388927,-306.438199
188.411907,5255.462188,7031.956449,1455.581446
188.412227,6069.688724,7328.038826,689.485948
188.412548,5773.606348,10066.800811,-459.657299
188.412869,4515.256246,9622.677246,-1915.238745
188.413189,6439.791695,8142.265362,-3370.820191
188.413510,6957.935855,7254.018232,-995.924147
188.413831,6069.688724,8290.306550,919.314598
188.414151,3552.988522,9474.636058,1455.581446
188.414472,1036.288319,7550.100608,-153.219100
188.414792,3404.947333,6661.853478,0.000000
188.415113,4885.359217,5107.421000,1378.971896
188.415434,3478.967927,4663.297435,536.266849
188.415754,3627.009116,5847.626942,76.609550
188.416075,3404.947333,8216.285956,612.876398
188.416396,4441.235652,10288.862594,1302.362347
188.416716,5403.503377,8808.450710,842.705048
188.417037,6143.709319,7772.162391,-995.924147
188.417357,6439.791695,8364.327145,-1302.362347
188.417678,4441.235652,8438.347739,-995.924147
188.417999,7031.956449,7476.080014,-1455.581446
188.418319,8290.306550,8438.347739,-1149.143247
188.418640,6809.894666,7179.997637,306.438199
188.418961,4811.338623,7476.080014,0.000000
188.419281,4885.359217,8142.265362,-306.438199
188.419602,4663.297435,7105.977043,-229.828649
188.419923,5625.565159,5255.462188,842.705048
188.420243,7550.100608,4293.194464,536.266849
188.420564,5403.503377,6587.832884,-612.876398
188.420884,3923.091493,8956.491898,-919.314598
188.421205,4071.132681,9326.594869,459.657299
188.421526,5625.565159,8290.306550,76.609550
188.421846,5625.565159,8882.471304,-153.219100
188.422167,5403.503377,9622.677246,-1532.190996
188.422488,5181.441594,10288.862594,-2681.334243
188.422808,5255.462188,11251.130318,0.000000
188.423129,5773.606348,10807.006753,536.266849
188.423449,5477.523971,8364.327145,-153.219100
188.423770,4811.338623,7105.977043,0.000000
188.424091,3552.988522,8290.306550,383.047749
188.424411,3552.988522,7698.141797,1455.581446
188.424732,4219.173869,7105.977043,2145.067394
188.425052,6217.729913,6291.750507,1915.238745
188.425373,4737.318029,6291.750507,1532.190996
188.425693,5255.462188,8142.265362,1072.533697
188.426014,4737.318029,9770.718434,-306.438199
188.426334,2590.720797,9178.553681,-1225.752797
188.426655,5625.565159,8290.306550,-1455.581446
188.426976,7105.977043,8364.327145,-1915.238745
188.427296,4959.379811,8068.244768,-1838.629195
188.427617,5847.626942,9992.780217,-1762.019645
188.427937,4959.379811,10732.986159,-1225.752797
188.428258,3775.050304,9622.677246,-1455.581446
188.428578,3701.029710,7031.956449,459.657299
188.428899,5625.565159,6069.688724,766.095498
188.429219,6291.750507,5403.503377,842.705048
188.429540,6217.729913,7698.141797,1685.410096
188.429861,4885.359217,8068.244768,0.000000
188.430181,4589.276840,7550.100608,-306.438199
188.430502,4145.153275,6957.935855,2145.067394
188.430822,4589.276840,7105.977043,2374.896044
188.431143,3404.947333,5847.626942,689.485948
188.431463,4959.379811,6883.915261,-1149.143247
188.431784,5921.647536,7994.224174,-2068.457845
188.432104,4737.318029,8290.306550,-1685.410096
188.432425,5181.441594,8438.347739,-612.876398
188.432746,4737.318029,10214.842000,766.095498
188.433066,3330.926739,10584.944971,459.657299
188.433387,3182.885551,8660.409521,229.828649
188.433707,6069.688724,5847.626942,-1072.533697
188.434028,6291.750507,4589.276840,-1225.752797
188.434348,5625.565159,5625.565159,-919.314598
188.434669,4737.318029,6957.935855,0.000000
188.434989,5847.626942,9178.553681,919.314598
188.435310,6069.688724,9474.636058,1225.752797
188.435631,6217.729913,7920.203579,306.438199
188.435951,7550.100608,7402.059420,-842.705048
188.436272,6143.709319,7846.182985,0.000000
188.436592,4145.153275,9178.553681,-1072.533697
188.436913,5773.606348,7994.224174,-919.314598
188.437233,6661.853478,9104.533087,0.000000
188.437554,3330.926739,9326.594869,536.266849
188.437875,2146.597232,8512.368333,-766.095498
188.438195,2664.741391,9030.512492,-229.828649
188.438516,3108.864956,7846.182985,76.609550
188.438836,3997.112087,6735.874072,1378.971896
188.439157,6069.688724,6439.791695,1838.629195
188.439477,4441.235652,7920.203579,459.657299
188.439798,3701.029710,9548.656652,459.657299
188.440118,4441.235652,9104.533087,-995.924147
188.440439,6587.832884,7994.224174,-2451.505594
188.440760,8068.244768,7402.059420,-1455.581446
188.441080,7920.203579,8586.388927,0.000000
188.441401,7476.080014,9400.615463,0.000000
188.441721,5773.606348,9030.512492,-766.095498
188.442042,5699.585753,9918.759623,-766.095498
188.442362,5551.544565,8364.327145,919.314598
188.442683,5699.585753,7105.977043,459.657299
188.443003,5033.400406,5995.668130,0.000000
188.443324,4071.132681,4293.194464,-612.876398
188.443645,5033.400406,5551.544565,0.000000
188.443965,4515.256246,6809.894666,919.314598
188.444286,3775.050304,8660.409521,306.438199
188.444606,4959.379811,9992.780217,306.438199
188.444927,4959.379811,8586.388927,-153.219100
188.445247,4737.318029,7698.141797,-766.095498
188.445568,5403.503377,7179.997637,-689.485948
188.445888,5551.544565,7550.100608,-1915.238745
188.446209,4737.318029,8512.368333,-2987.772442
188.446530,5625.565159,9844.739029,-995.924147
188.446850,6217.729913,10584.944971,919.314598
188.447171,5107.421000,10288.862594,612.876398
188.447491,4663.297435,7105.977043,229.828649
188.447812,5995.668130,6143.709319,383.047749
188.448132,6439.791695,5181.441594,766.095498
188.448453,5773.606348,5995.668130,1532.190996
188.448774,5625.565159,6587.832884,1378.971896
188.449094,3997.112087,6661.853478,229.828649
188.449415,3849.070898,7550.100608,1378.971896
188.449735,5773.606348,7179.997637,919.314598
188.450056,6587.832884,7994.224174,-1302.362347
188.450376,5107.421000,8290.306550,-2757.943793
188.450697,4663.297435,9474.636058,-4060.306139
188.451017,4663.297435,9400.615463,-1685.410096
188.451338,4737.318029,9844.739029,995.924147
188.451659,4885.359217,10288.862594,1685.410096
188.451979,2886.803174,9474.636058,-383.047749
188.452300,3182.885551,9474.636058,-1378.971896
188.452620,4071.132681,7772.162391,-612.876398
188.452941,2812.782580,5033.400406,383.047749
188.453261,4811.338623,6217.729913,1915.238745
188.453582,5995.668130,9474.636058,2604.724693
188.453902,3478.967927,10658.965565,995.924147
188.454223,4145.153275,9400.615463,1072.533697
188.454544,5625.565159,7846.182985,306.438199
188.454864,4959.379811,7105.977043,-1302.362347
188.455185,4367.215058,6883.915261,-1685.410096
188.455505,5403.503377,7624.121203,-1915.238745
188.455826,5699.585753,8808.450710,-1762.019645
188.456146,5477.523971,10214.842000,-766.095498
188.456467,4589.276840,9474.636058,-1225.752797
188.456787,4219.173869,8808.450710,-1991.848295
188.457108,4293.194464,7920.203579,689.485948
188.457429,5995.668130,6587.832884,1685.410096
188.457749,5921.647536,6069.688724,229.828649
188.458070,4071.132681,5181.441594,-689.485948
188.458390,4367.215058,7328.038826,-995.924147
188.458711,3627.009116,8512.368333,0.000000
188.459031,5551.544565,8142.265362,0.000000
188.459352,6809.894666,7846.182985,-766.095498
188.459672,6809.894666,8586.388927,-1302.362347
188.459993,6513.812290,9178.553681,-1378.971896
188.460314,6069.688724,10955.047942,-459.657299
188.460634,3552.988522,10140.821405,-842.705048
188.460955,4663.297435,8734.430116,-306.438199
188.461275,4737.318029,7624.121203,842.705048
188.461596,4071.132681,7698.141797,612.876398
188.461916,3775.050304,7994.224174,0.000000
188.462237,3034.844362,6809.894666,-306.438199
188.462558,3034.844362,6143.709319,0.000000
188.462878,5329.482782,6587.832884,3447.429741
188.463199,4885.359217,8438.347739,3907.087040
188.463519,3923.091493,8808.450710,1302.362347
188.463840,5181.441594,8438.347739,-842.705048
188.464160,5477.523971,8808.450710,-2528.115143
188.464481,6217.729913,7105.977043,-1685.410096
188.464801,6735.874072,7476.080014,-995.924147
188.465122,7698.141797,8290.306550,-919.314598
188.465443,5995.668130,9992.780217,-1072.533697
188.465763,4959.379811,10066.800811,-842.705048
188.466084,4589.276840,8734.430116,-1302.362347
188.466404,3997.112087,6143.709319,-612.876398
188.466725,4959.379811,5033.400406,1455.581446
188.467045,5329.482782,6291.750507,1838.629195
188.467366,4959.379811,7402.059420,842.705048
188.467686,4959.379811,8438.347739,-383.047749
188.468007,4145.153275,8068.244768,-689.485948
188.468328,3627.009116,7550.100608,-612.876398
188.468648,4441.235652,7402.059420,536.266849
188.468969,6513.812290,7994.224174,995.924147
188.469289,5773.606348,8956.491898,-383.047749
188.469610,3552.988522,9548.656652,-1915.238745
188.469930,2368.659014,9474.636058,-1225.752797
188.470251,3997.112087,11029.068536,-766.095498
188.470571,3108.864956,11177.109724,1302.362347
188.470892,3256.906145,8956.491898,536.266849
188.471213,4663.297435,7328.038826,-1225.752797
188.471533,3404.947333,7328.038826,-229.828649
188.471854,1110.308913,6587.832884,1762.019645
188.472174,2294.638420,7179.997637,2528.115143
188.472495,3849.070898,8660.409521,1532.190996
188.472815,3627.009116,9918.759623,0.000000
188.473136,3701.029710,10881.027347,-766.095498
188.473457,5403.503377,9622.677246,-1532.190996
188.473777,6365.771101,9178.553681,-1302.362347
188.474098,5403.503377,7846.182985,153.219100
188.474418,5625.565159,6809.894666,-1608.800546
188.474739,6439.791695,7994.224174,-1302.362347
188.475059,5477.523971,9474.636058,-153.219100
188.475380,5921.647536,9326.594869,-383.047749
188.475700,5995.668130,7476.080014,-842.705048
188.476021,6883.915261,5995.668130,-1225.752797
188.476342,6883.915261,4737.318029,-306.438199
188.476662,5847.626942,5181.441594,229.828649
188.476983,6661.853478,6365.771101,536.266849
188.477303,6217.729913,7698.141797,766.095498
188.477624,5403.503377,8438.347739,-383.047749
188.477944,7179.997637,8660.409521,-1072.533697
188.478265,6439.791695,8068.244768,-766.095498
188.478585,6513.812290,8660.409521,-1302.362347
188.478906,5329.482782,8142.265362,-2298.286494
188.479227,3182.885551,6587.832884,-2757.943793
188.479547,5255.462188,8290.306550,-1685.410096
188.479868,4589.276840,8734.430116,76.609550
188.480188,2812.782580,8586.388927,0.000000
188.480509,3701.029710,9622.677246,76.609550
188.480829,3627.009116,9770.718434,153.219100
188.481150,1776.494261,7920.203579,153.219100
188.481470,5773.606348,5403.503377,766.095498
188.481791,5181.441594,5625.565159,919.314598
188.482112,2590.720797,5995.668130,306.438199
188.482432,3330.926739,6513.812290,766.095498
188.482753,5995.668130,9326.594869,536.266849
188.483073,5921.647536,11103.089130,-1532.190996
188.483394,5995.668130,10584.944971,-1378.971896
188.483714,6661.853478,9252.574275,-2681.334243
188.484035,5403.503377,10066.800811,-2374.896044
188.484355,3330.926739,10881.027347,612.876398
188.484676,3775.050304,10881.027347,689.485948
188.484997,4663.297435,9770.718434,-1838.629195
188.485317,3182.885551,8512.368333,-306.438199
188.485638,2738.761985,8142.265362,1072.533697
188.485958,3923.091493,7105.977043,1225.752797
188.486279,1702.473667,7105.977043,1149.143247
188.486599,2516.700203,6957.935855,1149.143247
188.486920,2072.576638,5847.626942,612.876398
188.487241,4441.235652,7254.018232,-383.047749
188.487561,6587.832884,9548.656652,459.657299
188.487882,4959.379811,10436.903782,-153.219100
188.488202,6735.874072,9622.677246,-2528.115143
188.488523,8660.409521,8586.388927,-2298.286494
188.488843,7254.018232,9178.553681,383.047749
188.489164,6439.791695,9252.574275,842.705048
188.489484,4885.359217,7846.182985,-76.609550
188.489805,5625.565159,8142.265362,-1991.848295
188.490126,5847.626942,7994.224174,383.047749
188.490446,4885.359217,6365.771101,1838.629195
188.490767,5181.441594,4145.153275,-306.438199
188.491087,4219.173869,3923.091493,459.657299
188.491408,3256.906145,5477.523971,1838.629195
188.491728,3330.926739,6735.874072,2451.505594
188.492049,4293.194464,6809.894666,1072.533697
188.492369,6587.832884,9178.553681,-536.266849
188.492690,6809.894666,10288.862594,-536.266849
188.493011,6069.688724,9400.615463,-1455.581446
188.493331,7920.203579,7328.038826,-2221.676944
188.493652,6365.771101,5477.523971,-2145.067394
188.493972,4737.318029,5329.482782,-1762.019645
188.494293,6365.771101,8586.388927,-1302.362347
188.494613,4145.153275,8512.368333,-1762.019645
188.494934,4959.379811,7698.141797,-842.705048
188.495254,9400.615463,5847.626942,1225.752797
188.495575,6365.771101,5847.626942,306.438199
188.495896,4293.194464,7105.977043,0.000000
188.496216,5847.626942,7920.203579,995.924147
188.496537,4589.276840,6735.874072,-459.657299
188.496857,5403.503377,6957.935855,-689.485948
188.497178,5477.523971,8216.285956,153.219100
188.497498,5181.441594,10732.986159,-1685.410096
188.497819,3330.926739,11843.295072,-1608.800546
188.498139,4145.153275,11843.295072,-689.485948
188.498460,4811.338623,11029.068536,-1225.752797
188.498781,1184.329507,8438.347739,766.095498
188.499101,444.123565,7476.080014,1149.143247
188.499422,2368.659014,8882.471304,536.266849
188.499742,1554.432478,9326.594869,459.657299
188.500063,3997.112087,7994.224174,0.000000
188.500383,5033.400406,7624.121203,0.000000
188.500704,5107.421000,9030.512492,-766.095498
188.501025,5033.400406,9400.615463,1302.362347
188.501345,4885.359217,8660.409521,995.924147
188.501666,7698.141797,8364.327145,-766.095498
188.501986,6661.853478,10362.883188,-1225.752797
188.502307,4737.318029,9474.636058,-2451.505594
188.502627,6809.894666,9844.739029,-2451.505594
188.502948,7920.203579,10436.903782,0.000000
188.503268,3775.050304,8438.347739,76.609550
188.503589,4885.359217,7402.059420,229.828649
188.503910,6143.709319,8734.430116,766.095498
188.504230,3330.926739,8882.471304,383.047749
188.504551,3552.988522,6069.688724,1225.752797
188.504871,6513.812290,4737.318029,842.705048
188.505192,5773.606348,4515.256246,-536.266849
188.505512,2960.823768,4959.379811,1608.800546
188.505833,3404.947333,7105.977043,1532.190996
188.506153,5699.585753,8882.471304,-842.705048
188.506474,5403.503377,10436.903782,-383.047749
188.506795,7846.182985,9252.574275,0.000000
188.507115,7328.038826,7105.977043,-2068.457845
188.507436,5551.544565,6809.894666,-1762.019645
188.507756,4663.297435,9548.656652,306.438199
188.508077,3923.091493,9400.615463,76.609550
188.508397,4589.276840,8068.244768,-153.219100
188.508718,7920.203579,8290.306550,536.266849
188.509038,5329.482782,7550.100608,536.266849
188.509359,3478.967927,5107.421000,0.000000
188.509680,4811.338623,4071.132681,1455.581446
188.510000,4145.153275,3256.906145,2298.286494
188.510321,4589.276840,3701.029710,2068.457845
188.510641,4959.379811,4885.359217,1149.143247
188.510962,7179.997637,7846.182985,-1378.971896
188.511282,7179.997637,10510.924376,-459.657299
188.511603,7846.182985,11547.212695,229.828649
188.511924,8142.265362,9770.718434,-3140.991542
188.512244,7476.080014,8142.265362,-3217.601092
188.512565,5329.482782,5255.462188,-1608.800546
188.512885,5477.523971,6439.791695,-612.876398
188.513206,4293.194464,8882.471304,229.828649
188.513526,2516.700203,10658.965565,-689.485948
188.513847,4071.132681,10881.027347,0.000000
188.514167,4441.235652,9844.739029,2298.286494
188.514488,3849.070898,8660.409521,3140.991542
188.514809,1480.411884,5625.565159,2374.896044
188.515129,1850.514855,5329.482782,229.828649
188.515450,2368.659014,7179.997637,-766.095498
188.515770,2146.597232,8512.368333,459.657299
188.516091,5033.400406,10955.047942,995.924147
188.516411,7328.038826,12213.398043,153.219100
188.516732,5477.523971,11843.295072,-1838.629195
188.517052,4885.359217,10362.883188,-2528.115143
188.517373,5181.441594,8142.265362,-2757.943793
188.517694,5699.585753,7328.038826,-995.924147
188.518014,5329.482782,6291.750507,689.485948
188.518335,6069.688724,6513.812290,383.047749
188.518655,7105.977043,8438.347739,-766.095498
188.518976,5551.544565,9770.718434,-919.314598
188.519296,6217.729913,7920.203579,-919.314598
188.519617,7105.977043,7254.018232,-766.095498
188.519937,5551.544565,6809.894666,1072.533697
188.520258,6365.771101,6513.812290,2374.896044
188.520579,4959.379811,5847.626942,536.266849
188.520899,3849.070898,7105.977043,-1838.629195
188.521220,4441.235652,10584.944971,-1762.019645
188.521540,5181.441594,11917.315666,-1991.848295
188.521861,3701.029710,10214.842000,-1991.848295
188.522181,6513.812290,7994.224174,-612.876398
188.522502,5033.400406,7105.977043,-459.657299
188.522823,2368.659014,6143.709319,-1149.143247
188.523143,2886.803174,5255.462188,-459.657299
188.523464,5033.400406,6735.874072,229.828649
188.523784,6365.771101,8142.265362,995.924147
188.524105,6439.791695,9326.594869,1455.581446
188.524426,6513.812290,9326.594869,-153.219100
188.524746,4959.379811,7846.182985,383.047749
188.525067,4811.338623,6661.853478,1455.581446
188.525388,6143.709319,6217.729913,-459.657299
188.525708,6661.853478,6217.729913,-1302.362347
188.526029,4811.338623,6587.832884,-1072.533697
188.526349,6735.874072,9178.553681,0.000000
188.526670,7476.080014,11029.068536,1838.629195
188.526991,5255.462188,10066.800811,1072.533697
188.527311,3627.009116,6883.915261,-1072.533697
188.527632,4293.194464,4737.318029,-1225.752797
188.527953,4885.359217,4959.379811,459.657299
188.528273,4663.297435,5477.523971,1225.752797
188.528594,5699.585753,6513.812290,-1225.752797
188.528914,6143.709319,8956.491898,-2834.553343
188.529235,4367.215058,10658.965565,-1302.362347
188.529556,5625.565159,11103.089130,306.438199
188.529876,4885.359217,10732.986159,919.314598
188.530197,3849.070898,8734.430116,0.000000
188.530518,4737.318029,7105.977043,-229.828649
188.530838,3552.988522,7698.141797,-1149.143247
188.531159,3552.988522,9696.697840,-536.266849
188.531479,4515.256246,9992.780217,1072.533697
188.531800,4219.173869,9178.553681,0.000000
188.532121,3997.112087,7920.203579,306.438199
188.532441,3849.070898,7550.100608,2451.505594
188.532762,4145.153275,6217.729913,2987.772442
188.533083,4737.318029,6661.853478,1915.238745
188.533403,4515.256246,5995.668130,612.876398
188.533724,5625.565159,7476.080014,-153.219100
188.534044,5181.441594,6587.832884,0.000000
188.534365,5181.441594,5329.482782,-612.876398
188.534686,6587.832884,7846.182985,-842.705048
188.535006,6809.894666,10732.986159,-842.705048
188.535327,5181.441594,10510.924376,-1302.362347
188.535647,7772.162391,8364.327145,-1762.019645
188.535968,8290.306550,8216.285956,-1072.533697
188.536289,4367.215058,8364.327145,-306.438199
188.536609,3627.009116,6883.915261,-612.876398
188.536930,5181.441594,7254.018232,536.266849
188.537251,4737.318029,7254.018232,0.000000
188.537571,4737.318029,6069.688724,383.047749
188.537892,4219.173869,6365.771101,-766.095498
188.538212,3775.050304,8290.306550,-383.047749
188.538533,2146.597232,9770.718434,1608.800546
188.538854,3552.988522,8956.491898,1072.533697
188.539174,5773.606348,8364.327145,-1302.362347
188.539495,3330.926739,7920.203579,-76.609550
188.539816,2738.761985,8364.327145,76.609550
188.540136,4219.173869,9696.697840,-229.828649
188.540457,5033.400406,10288.862594,-842.705048
188.540777,6735.874072,11399.171507,-612.876398
188.541098,5329.482782,9104.533087,-153.219100
188.541419,4293.194464,6365.771101,-229.828649
188.541739,5033.400406,6291.750507,1685.410096
188.542060,6069.688724,4959.379811,1762.019645
188.542381,7328.038826,5107.421000,-153.219100
188.542701,7105.977043,6883.915261,-1225.752797
188.543022,5625.565159,7994.224174,-2068.457845
188.543342,6883.915261,9030.512492,-229.828649
188.543663,6291.750507,8142.265362,766.095498
188.543984,5255.462188,7254.018232,-2068.457845
188.544304,7105.977043,7254.018232,-3064.381992
188.544625,5625.565159,9622.677246,-3064.381992
188.544946,4959.379811,10066.800811,-1302.362347
188.545266,6291.750507,10214.842000,842.705048
188.545587,5995.668130,9400.615463,229.828649
188.545907,3997.112087,9474.636058,-459.657299
188.546228,3256.906145,8142.265362,-229.828649
188.546549,3552.988522,7328.038826,-383.047749
188.546869,4663.297435,5477.523971,689.485948
188.547190,5107.421000,6587.832884,2068.457845
188.547510,5181.441594,7698.141797,1455.581446
188.547831,3775.050304,8364.327145,1455.581446
188.548152,3330.926739,8142.265362,919.314598
188.548472,4811.338623,9992.780217,1455.581446
188.548793,4515.256246,9400.615463,995.924147
188.549114,4515.256246,7624.121203,-766.095498
188.549434,7179.997637,7328.038826,-1762.019645
188.549755,5403.503377,9178.553681,-1838.629195
188.550075,4737.318029,9844.739029,-689.485948
188.550396,5329.482782,9252.574275,76.609550
188.550717,5847.626942,7698.141797,-306.438199
188.551037,5255.462188,7105.977043,-306.438199
188.551358,5403.503377,6809.894666,-229.828649
188.551679,5403.503377,6291.750507,-995.924147
188.551999,4959.379811,5403.503377,459.657299
188.552320,5329.482782,6735.874072,1532.190996
188.552640,6661.853478,7402.059420,229.828649
188.552961,4219.173869,7994.224174,-1072.533697
188.553282,2960.823768,7994.224174,-2374.896044
188.553602,6513.812290,9030.512492,-1302.362347
188.553923,5847.626942,10140.821405,-689.485948
188.554244,4737.318029,11325.150913,-383.047749
188.554564,4811.338623,10436.903782,76.609550
188.554885,3330.926739,10288.862594,383.047749
188.555205,1480.411884,10658.965565,2145.067394
188.555526,1554.432478,9252.574275,2451.505594
188.555847,2368.659014,6883.915261,153.219100
188.556167,3849.070898,6069.688724,-536.266849
188.556488,2146.597232,5699.585753,1302.362347
188.556809,3256.906145,7254.018232,2374.896044
188.557129,3034.844362,8512.368333,3064.381992
188.557450,2886.803174,8512.368333,1991.848295
188.557770,5551.544565,8660.409521,0.000000
188.558091,4885.359217,8142.265362,-2068.457845
188.558412,5477.523971,7994.224174,-2451.505594
188.558732,7772.162391,8734.430116,-1378.971896
188.559053,7328.038826,8660.409521,-1532.190996
188.559373,6661.853478,9326.594869,-1991.848295
188.559694,7920.203579,10732.986159,-1685.410096
188.560015,5847.626942,10140.821405,-1762.019645
188.560335,5255.462188,7328.038826,-689.485948
188.560656,6809.894666,4737.318029,1149.143247
188.560977,7920.203579,4589.276840,1378.971896
188.561297,6587.832884,4441.235652,1225.752797
188.561618,4737.318029,3701.029710,306.438199
188.561938,5107.421000,6587.832884,-995.924147
188.562259,4663.297435,8438.347739,383.047749
188.562580,2960.823768,7624.121203,1149.143247
188.562900,7920.203579,7031.956449,-612.876398
188.563221,9030.512492,7105.977043,-1608.800546
188.563542,4515.256246,9474.636058,-2145.067394
188.563862,3701.029710,9696.697840,-1762.019645
188.564183,5847.626942,10362.883188,-306.438199
188.564503,5477.523971,10584.944971,536.266849
188.564824,4959.379811,9548.656652,306.438199
188.565145,4959.379811,9104.533087,-995.924147
188.565465,4663.297435,8586.388927,-1838.629195
188.565786,1998.556043,6217.729913,1455.581446
188.566107,3701.029710,5033.400406,1838.629195
188.566427,4885.359217,6143.709319,1685.410096
188.566748,2368.659014,8290.306550,1685.410096
188.567068,2072.576638,9992.780217,536.266849
188.567389,4293.194464,10584.944971,76.609550
188.567710,5033.400406,9844.739029,-1225.752797
188.568030,6291.750507,8882.471304,-1685.410096
188.568351,5625.565159,8142.265362,-1991.848295
188.568672,4959.379811,9622.677246,-2221.676944
188.568992,5551.544565,11103.089130,-536.266849
188.569313,5625.565159,9178.553681,-459.657299
188.569633,7105.977043,7994.224174,-1532.190996
188.569954,6809.894666,7105.977043,-842.705048
188.570275,5329.482782,6217.729913,-459.657299
188.570595,6513.812290,7476.080014,842.705048
188.570916,6143.709319,6291.750507,1838.629195
188.571236,4145.153275,6809.894666,766.095498
188.571557,4811.338623,7328.038826,919.314598
188.571878,3849.070898,7476.080014,153.219100
188.572198,3997.112087,8512.368333,-842.705048
188.572519,5921.647536,9400.615463,-153.219100
188.572840,3923.091493,9400.615463,-995.924147
188.573160,3330.926739,8956.491898,-1608.800546
188.573481,4071.132681,10881.027347,-229.828649
188.573801,2960.823768,11399.171507,-383.047749
188.574122,1332.370696,10288.862594,0.000000
188.574443,2442.679609,8512.368333,-306.438199
188.574763,4441.235652,7920.203579,842.705048
188.575084,2960.823768,5551.544565,2068.457845
188.575405,1628.453072,4145.153275,1685.410096
188.575725,3552.988522,6661.853478,383.047749
188.576046,3034.844362,9844.739029,1072.533697
188.576366,2516.700203,9104.533087,919.314598
188.576687,7476.080014,7698.141797,-153.219100
188.577008,8290.306550,7624.121203,-536.266849
188.577328,5255.462188,8438.347739,-919.314598
188.577649,4959.379811,7624.121203,-1225.752797
188.577970,6365.771101,8956.491898,-1532.190996
188.578290,6587.832884,10214.842000,-1378.971896
188.578611,5995.668130,9178.553681,-689.485948
188.578931,5403.503377,7105.977043,-1608.800546
188.579252,4885.359217,5921.647536,-919.314598
188.579573,4663.297435,6143.709319,1915.238745
188.579893,5255.462188,6957.935855,1378.971896
188.580214,6291.750507,6661.853478,0.000000
188.580535,4737.318029,5847.626942,842.705048
188.580855,5329.482782,6365.771101,1838.629195
188.581176,4811.338623,5847.626942,2451.505594
188.581496,6291.750507,7476.080014,153.219100
188.581817,6735.874072,8660.409521,-2221.676944
188.582138,6439.791695,8660.409521,-2834.553343
188.582458,7402.059420,8808.450710,-1838.629195
188.582779,7105.977043,9178.553681,-612.876398
188.583100,6069.688724,9030.512492,-612.876398
188.583420,5403.503377,9178.553681,-766.095498
188.583741,5329.482782,8882.471304,-1072.533697
188.584061,4441.235652,8068.244768,-842.705048
188.584382,5625.565159,6957.935855,1225.752797
188.584703,4441.235652,5625.565159,1149.143247
188.585023,3404.947333,6291.750507,842.705048
188.585344,3256.906145,8586.388927,1378.971896
188.585664,4441.235652,9622.677246,1149.143247
188.585985,3627.009116,8882.471304,459.657299
188.586306,4959.379811,7105.977043,1302.362347
188.586626,5625.565159,8512.368333,0.000000
188.586947,2738.761985,8142.265362,-1991.848295
188.587268,3108.864956,8956.491898,-3217.601092
188.587588,7328.038826,10214.842000,-2068.457845
188.587909,5625.565159,11251.130318,-1225.752797
188.588229,5181.441594,9474.636058,-229.828649
188.588550,5403.503377,7846.182985,-689.485948
188.588871,6143.709319,7402.059420,-1149.143247
188.589191,4885.359217,5699.585753,995.924147
188.589512,4441.235652,4811.338623,1072.533697
188.589833,5625.565159,6809.894666,0.000000
188.590153,6439.791695,10658.965565,0.000000
188.590474,2664.741391,8512.368333,306.438199
188.590794,5403.503377,5921.647536,-1991.848295
188.591115,8734.430116,7105.977043,-1455.581446
188.591436,5033.400406,9622.677246,-689.485948
188.591756,3404.947333,9178.553681,-1685.410096
188.592077,6513.812290,8882.471304,-1378.971896
188.592398,7254.018232,9474.636058,-306.438199
188.592718,4589.276840,9178.553681,1608.800546
188.593039,4145.153275,9474.636058,-383.047749
188.593359,3256.906145,9178.553681,-2834.553343
188.593680,1110.308913,8216.285956,-1608.800546
188.594001,3478.967927,6143.709319,1225.752797
188.594321,5255.462188,6291.750507,1915.238745
188.594642,2590.720797,6883.915261,1762.019645
188.594963,2368.659014,10807.006753,1838.629195
188.595283,3552.988522,11621.233289,1378.971896
188.595604,4515.256246,10288.862594,689.485948
188.595924,6513.812290,9178.553681,919.314598
188.596245,4959.379811,7328.038826,-1149.143247
188.596566,3330.926739,6957.935855,-2757.943793
188.596886,4071.132681,8290.306550,-995.924147
188.597207,5107.421000,8216.285956,-689.485948
188.597527,5995.668130,7624.121203,-766.095498
188.597848,6735.874072,7698.141797,-306.438199
188.598169,5625.565159,8808.450710,536.266849
188.598489,5181.441594,7254.018232,919.314598
188.598810,6069.688724,5625.565159,1378.971896
188.599131,7105.977043,4219.173869,459.657299
188.599451,7328.038826,4811.338623,306.438199
188.599772,5181.441594,7550.100608,-306.438199
188.600092,5255.462188,9696.697840,-1685.410096
188.600413,6957.935855,9548.656652,-766.095498
188.600734,7105.977043,9696.697840,-689.485948
188.601054,5551.544565,7179.997637,-1072.533697
188.601375,4737.318029,6587.832884,-1838.629195
188.601696,3849.070898,7105.977043,-689.485948
188.602016,2812.782580,9622.677246,76.609550
188.602337,2886.803174,10510.924376,0.000000
188.602657,5551.544565,9992.780217,0.000000
188.602978,3923.091493,7105.977043,-612.876398
188.603299,1998.556043,5477.523971,612.876398
188.603619,4071.132681,7550.100608,1915.238745
188.603940,2516.700203,6957.935855,1991.848295
188.604261,2516.700203,6883.915261,766.095498
188.604581,8512.368333,8734.430116,459.657299
188.604902,7328.038826,11177.109724,-1149.143247
188.605222,3997.112087,10658.965565,-1225.752797
188.605543,5921.647536,7772.162391,0.000000
188.605864,7105.977043,5773.606348,-306.438199
188.606184,7254.018232,4737.318029,-459.657299
188.606505,6809.894666,6439.791695,-383.047749
188.606826,5625.565159,8586.388927,-3830.477490
188.607146,5181.441594,9918.759623,-3830.477490
188.607467,5329.482782,9548.656652,-229.828649
188.607787,8882.471304,8512.368333,-229.828649
188.608108,7550.100608,6735.874072,229.828649
188.608429,4145.153275,6587.832884,76.609550
188.608749,3997.112087,8512.368333,536.266849
188.609070,2886.803174,8956.491898,1455.581446
188.609390,3701.029710,7920.203579,995.924147
188.609711,6365.771101,8364.327145,0.000000
188.610032,4811.338623,10140.821405,-995.924147
188.610352,3775.050304,11769.274478,-766.095498
188.610673,3256.906145,10214.842000,842.705048
188.610994,2960.823768,7105.977043,0.000000
188.611314,4737.318029,6439.791695,0.000000
188.611635,3034.844362,5995.668130,153.219100
188.611955,3404.947333,8512.368333,-689.485948
188.612276,3849.070898,11399.171507,0.000000
188.612597,4959.379811,10732.986159,-919.314598
188.612917,5403.503377,9104.533087,-1532.190996
188.613238,6439.791695,8364.327145,229.828649
188.613559,5033.400406,9474.636058,1838.629195
188.613879,4219.173869,8956.491898,1532.190996
188.614200,4441.235652,6365.771101,-383.047749
188.614520,6809.894666,6143.709319,-306.438199
188.614841,7698.141797,7698.141797,919.314598
188.615162,7031.956449,7105.977043,1302.362347
188.615482,7105.977043,6735.874072,-76.609550
188.615803,8660.409521,6069.688724,0.000000
188.616124,8142.265362,5995.668130,1455.581446
188.616444,7994.224174,4589.276840,459.657299
188.616765,9104.533087,3256.906145,-1532.190996
188.617085,10214.842000,2664.741391,-1302.362347
188.617406,8882.471304,2664.741391,-153.219100
188.617727,9622.677246,4737.318029,153.219100
188.618047,10362.883188,7624.121203,-1302.362347
188.618368,8808.450710,9326.594869,-2604.724693
188.618689,9252.574275,8216.285956,-1915.238745
188.619009,11473.192101,4959.379811,-306.438199
188.619330,9030.512492,4589.276840,1685.410096
188.619650,6439.791695,5403.503377,1225.752797
188.619971,5551.544565,7031.956449,0.000000
188.620292,5847.626942,7254.018232,-995.924147
188.620612,7328.038826,6883.915261,766.095498
188.620933,7550.100608,6291.750507,2145.067394
188.621253,6217.729913,5625.565159,153.219100
188.621574,5181.441594,6365.771101,0.000000
188.621895,6069.688724,5921.647536,2068.457845
188.622215,8216.285956,5033.400406,2374.896044
188.622536,9474.636058,3627.009116,2068.457845
188.622857,7846.182985,3256.906145,-306.438199
188.623177,10214.842000,5329.482782,-1378.971896
188.623498,11843.295072,7105.977043,229.828649
188.623819,13471.748144,6513.812290,0.000000
188.624139,14508.036463,4737.318029,-459.657299
188.624460,14063.912898,3108.864956,-1225.752797
188.624781,13397.727550,4367.215058,-1225.752797
188.625101,11917.315666,3775.050304,-1149.143247
188.625422,11917.315666,2886.803174,-2221.676944
188.625743,14582.057057,2960.823768,-1455.581446
188.626063,13915.871710,4959.379811,766.095498
188.626384,10214.842000,6143.709319,1532.190996
188.626704,8660.409521,6365.771101,-306.438199
188.627025,8586.388927,4589.276840,-1608.800546
188.627346,8512.368333,4145.153275,-1302.362347
188.627666,7846.182985,4367.215058,0.000000
188.627987,7254.018232,6069.688724,1072.533697
188.628308,7550.100608,8438.347739,383.047749
188.628628,6143.709319,9030.512492,459.657299
188.628949,5995.668130,8586.388927,0.000000
188.629270,5995.668130,7105.977043,-919.314598
188.629590,6439.791695,7105.977043,76.609550
188.629911,6365.771101,7105.977043,1608.800546
188.630232,7550.100608,5477.523971,1378.971896
188.630552,9474.636058,3923.091493,842.705048
188.630873,9326.594869,3330.926739,0.000000
188.631194,8142.265362,4737.318029,-459.657299
188.631514,9844.739029,6439.791695,-536.266849
188.631835,10807.006753,5995.668130,-306.438199
188.632155,13693.809927,4737.318029,919.314598
188.632476,14359.995275,4367.215058,1302.362347
188.632797,12287.418637,5107.421000,-995.924147
188.633117,9696.697840,5329.482782,-2528.115143
188.633438,9326.594869,4885.359217,-2757.943793
188.633759,11251.130318,3849.070898,-1838.629195
188.634079,12953.603985,4219.173869,-153.219100
188.634400,10732.986159,5921.647536,-766.095498
188.634721,8364.327145,6809.894666,-1762.019645
188.635041,7476.080014,6587.832884,-766.095498
188.635362,6513.812290,5773.606348,-153.219100
188.635683,6809.894666,4589.276840,612.876398
188.636003,7179.997637,5477.523971,766.095498
188.636324,6069.688724,7624.121203,0.000000
188.636645,3701.029710,8882.471304,-766.095498
188.636965,4737.318029,7920.203579,-153.219100
188.637286,7179.997637,7402.059420,383.047749
188.637606,7846.182985,7698.141797,1915.238745
188.637927,6439.791695,8438.347739,2298.286494
188.638248,5477.523971,7328.038826,689.485948
188.638568,6217.729913,5033.400406,995.924147
188.638889,9030.512492,4145.153275,2221.676944
188.639210,10658.965565,3478.967927,2068.457845
188.639530,10510.924376,3923.091493,0.000000
188.639851,10288.862594,4145.153275,-1225.752797
188.640172,11547.212695,3256.906145,0.000000
188.640492,13841.851115,2442.679609,995.924147
188.640813,14285.974681,2738.761985,0.000000
188.641134,14582.057057,5403.503377,-1532.190996
188.641454,14285.974681,5625.565159,-2911.162892
188.641775,13693.809927,4441.235652,-2451.505594
188.642096,13767.830521,2368.659014,-766.095498
188.642416,12953.603985,4367.215058,-612.876398
188.642737,9918.759623,6143.709319,-1608.800546
188.643057,8364.327145,6365.771101,-2145.067394
188.643378,9622.677246,5699.585753,-1225.752797
188.643699,9104.533087,3923.091493,689.485948
188.644019,7254.018232,3627.009116,1762.019645
188.644340,4959.379811,4663.297435,1225.752797
188.644661,3775.050304,6661.853478,-306.438199
188.644981,5033.400406,7772.162391,383.047749
188.645302,6439.791695,7254.018232,1608.800546
188.645623,6883.915261,6513.812290,459.657299
188.645943,7031.956449,7328.038826,536.266849
188.646264,6291.750507,8586.388927,-229.828649
188.646585,6143.709319,8956.491898,-842.705048
188.646905,7920.203579,7105.977043,612.876398
188.647226,9696.697840,4589.276840,1378.971896
188.647547,9474.636058,4219.173869,1455.581446
188.647867,8882.471304,4959.379811,459.657299
188.648188,10436.903782,5033.400406,-1378.971896
188.648508,11695.253884,3478.967927,-1532.190996
188.648829,12657.521608,3256.906145,0.000000
188.649150,13915.871710,3775.050304,1225.752797
188.649470,11917.315666,4219.173869,-536.266849
188.649791,11991.336260,4663.297435,-2604.724693
188.650112,12509.480420,5847.626942,-3064.381992
188.650432,12213.398043,5625.565159,-2681.334243
188.650753,12583.501014,5403.503377,-1378.971896
188.651074,11991.336260,5551.544565,-383.047749
188.651394,9918.759623,5921.647536,-76.609550
188.651715,7402.059420,6069.688724,-689.485948
188.652036,6365.771101,5477.523971,-1455.581446
188.652356,7846.182985,4959.379811,-766.095498
188.652677,8956.491898,6143.709319,1608.800546
188.652998,7846.182985,6883.915261,2221.676944
188.653318,5921.647536,7179.997637,1225.752797
188.653639,5329.482782,6809.894666,1072.533697
188.653959,5255.462188,5847.626942,1532.190996
188.654280,6217.729913,4737.318029,1532.190996
188.654601,8586.388927,5551.544565,842.705048
188.654921,9178.553681,7476.080014,0.000000
188.655242,8734.430116,7994.224174,0.000000
188.655563,8734.430116,7105.977043,0.000000
188.655883,10881.027347,5329.482782,536.266849
188.656204,11473.192101,2664.741391,919.314598
188.656525,11103.089130,1998.556043,919.314598
188.656845,10955.047942,1924.535449,-689.485948
188.657166,11843.295072,1998.556043,-1915.238745
188.657487,12953.603985,3108.864956,-1455.581446
188.657807,14656.077652,3997.112087,-459.657299
188.658128,14137.933492,4737.318029,-1302.362347
188.658449,12509.480420,5255.462188,-2451.505594
188.658769,11399.171507,5329.482782,-2221.676944
188.659090,10066.800811,4737.318029,-1072.533697
188.659410,9474.636058,3849.070898,459.657299
188.659731,9252.574275,4293.194464,153.219100
188.660052,7920.203579,5255.462188,-1378.971896
188.660372,6439.791695,6661.853478,-2451.505594
188.660693,7105.977043,7328.038826,-612.876398
188.661014,7402.059420,8068.244768,1302.362347
188.661334,7105.977043,7624.121203,2221.676944
188.661655,6661.853478,6735.874072,2451.505594
188.661976,5773.606348,6217.729913,2374.896044
188.662296,5403.503377,5477.523971,1762.019645
188.662617,5625.565159,5329.482782,1302.362347
188.662938,7105.977043,4885.359217,612.876398
188.663258,8586.388927,6217.729913,-153.219100
188.663579,9548.656652,7550.100608,-995.924147
188.663900,10436.903782,7476.080014,-1072.533697
188.664220,11473.192101,6143.709319,76.609550
188.664541,10955.047942,4441.235652,1378.971896
188.664861,10955.047942,3552.988522,1225.752797
188.665182,10807.006753,3775.050304,-306.438199
188.665503,10658.965565,5107.421000,-1838.629195
188.665823,11177.109724,6291.750507,-2298.286494
188.666144,11843.295072,6217.729913,-2145.067394
188.666465,11547.212695,5477.523971,-2298.286494
188.666785,10436.903782,4885.359217,-995.924147
188.667106,9400.615463,5033.400406,-612.876398
188.667427,8808.450710,5625.565159,459.657299
188.667747,8142.265362,5699.585753,1072.533697
188.668068,8216.285956,5403.503377,995.924147
188.668389,8364.327145,5107.421000,229.828649
188.668709,7994.224174,5699.585753,-689.485948
188.669030,7402.059420,7254.018232,-689.485948
188.669351,7772.162391,7846.182985,-536.266849
188.669671,8290.306550,7179.997637,76.609550
188.669992,8808.450710,5699.585753,919.314598
188.670312,8290.306550,5181.441594,1302.362347
188.670633,7772.162391,4663.297435,1302.362347
188.670954,7920.203579,4589.276840,995.924147
188.671274,8660.409521,3627.009116,995.924147
188.671595,10066.800811,3034.844362,306.438199
188.671916,10584.944971,3404.947333,-383.047749
188.672236,10362.883188,4515.256246,-1072.533697
188.672557,10881.027347,5403.503377,-1455.581446
188.672878,11769.274478,5773.606348,-1532.190996
188.673198,12361.439231,5847.626942,-1608.800546
188.673519,12139.377449,5551.544565,-995.924147
188.673840,11399.171507,4737.318029,-306.438199
188.674160,10436.903782,4737.318029,229.828649
188.674481,10066.800811,4515.256246,689.485948
188.674802,9622.677246,4145.153275,153.219100
188.675122,9696.697840,3849.070898,0.000000
188.675443,9548.656652,4737.318029,-459.657299
188.675763,9178.553681,5107.421000,-153.219100
188.676084,8734.430116,4737.318029,-306.438199
188.676405,9252.574275,4737.318029,-766.095498
188.676725,9474.636058,5477.523971,-919.314598
188.677046,9474.636058,6957.935855,-536.266849
188.677367,9400.615463,7698.141797,229.828649
188.677687,9104.533087,7994.224174,1225.752797
188.678008,8956.491898,7105.977043,1532.190996
188.678329,8512.368333,6217.729913,1991.848295
188.678649,8142.265362,5107.421000,1838.629195
188.678970,7994.224174,4367.215058,1378.971896
188.679291,7994.224174,3775.050304,383.047749
188.679611,8660.409521,3182.885551,306.438199
188.679932,9252.574275,3849.070898,306.438199
188.680253,9178.553681,5699.585753,306.438199
188.680573,9548.656652,7772.162391,0.000000
188.680894,9326.594869,8882.471304,-536.266849
188.681214,8660.409521,8142.265362,76.609550
188.681535,7476.080014,7254.018232,-153.219100
188.681856,6883.915261,6735.874072,-306.438199
188.682176,5551.544565,6661.853478,-689.485948
188.682497,5255.462188,6513.812290,-919.314598
188.682818,5625.565159,6661.853478,-1225.752797
188.683138,5773.606348,7254.018232,-766.095498
188.683459,4811.338623,8364.327145,229.828649
188.683780,5107.421000,9622.677246,1455.581446
188.684100,4959.379811,9918.759623,2834.553343
188.684421,5551.544565,10288.862594,3140.991542
188.684742,5625.565159,9326.594869,2604.724693
188.685062,4959.379811,8512.368333,2451.505594
188.685383,4737.318029,8216.285956,3064.381992
188.685704,4589.276840,8586.388927,3140.991542
188.686024,5107.421000,9178.553681,3600.648841
188.686345,5921.647536,9696.697840,3600.648841
188.686665,6069.688724,9622.677246,3907.087040
188.686986,5847.626942,9474.636058,4519.963438
188.687307,5921.647536,9104.533087,5286.058936
188.687627,6143.709319,8142.265362,4673.182538
188.687948,6513.812290,8216.285956,4673.182538
188.688269,7254.018232,8512.368333,5132.839837
188.688589,7476.080014,9400.615463,5439.278036
188.688910,6883.915261,9474.636058,5822.325785
188.689231,6809.894666,8956.491898,6741.640382
188.689551,6735.874072,8142.265362,6741.640382
188.689872,7031.956449,7254.018232,6818.249932
188.690193,6883.915261,6809.894666,6511.811733
188.690513,6217.729913,5847.626942,5975.544884
188.690834,6513.812290,5477.523971,6128.763984
188.691155,6439.791695,5551.544565,6511.811733
188.691475,7105.977043,6883.915261,6894.859482
188.691796,6883.915261,8142.265362,6894.859482
188.692116,6661.853478,8586.388927,7277.907231
188.692437,6291.750507,8290.306550,7584.345430
188.692758,5625.565159,7402.059420,8810.098227
188.693078,4737.318029,6661.853478,9193.145976
188.693399,3775.050304,6291.750507,8197.221829
188.693720,3256.906145,5625.565159,7890.783629
188.694040,2664.741391,5403.503377,7354.516781
188.694361,2812.782580,4737.318029,7354.516781
188.694682,2368.659014,4663.297435,7354.516781
188.695002,2146.597232,5477.523971,6971.469032
188.695323,1702.473667,6587.832884,6741.640382
188.695644,2738.761985,7105.977043,7048.078582
188.695964,3552.988522,7994.224174,7277.907231
188.696285,3701.029710,8438.347739,7507.735880
188.696606,3701.029710,8660.409521,6894.859482
188.696926,3478.967927,7772.162391,5745.716235
188.697247,3330.926739,6883.915261,5439.278036
188.697567,3775.050304,5773.606348,5362.668486
188.697888,3404.947333,4589.276840,4979.620737
188.698209,3034.844362,3849.070898,4826.401637
188.698529,2812.782580,4293.194464,4366.744339
188.698850,2960.823768,5033.400406,3907.087040
188.699171,4071.132681,6143.709319,2834.553343
188.699491,5255.462188,7031.956449,2451.505594
188.699812,5773.606348,8438.347739,2451.505594
188.700133,6513.812290,10214.842000,2451.505594
188.700453,6883.915261,10881.027347,2374.896044
188.700774,6735.874072,10510.924376,2757.943793
188.701095,6661.853478,9844.739029,4596.572988
188.701415,5773.606348,10510.924376,5439.278036
188.701736,4959.379811,10214.842000,4826.401637
188.702057,4441.235652,9326.594869,4596.572988
188.702377,3552.988522,6587.832884,3294.210641
188.702698,2960.823768,3627.009116,2528.115143
188.703018,3701.029710,2442.679609,2145.067394
188.703339,4737.318029,4145.153275,1149.143247
188.703660,5921.647536,8438.347739,306.438199
188.703980,7772.162391,12361.439231,-612.876398
188.704301,9992.780217,15692.365970,-919.314598
188.704622,10658.965565,17172.777854,612.876398
188.704942,9844.739029,16432.571912,2681.334243
188.705263,8882.471304,13323.706956,4903.011187
188.705584,7031.956449,9918.759623,5132.839837
188.705904,6513.812290,8660.409521,5056.230287
188.706225,3552.988522,7994.224174,4136.915689
188.706546,2812.782580,7772.162391,3217.601092
188.706866,2368.659014,7846.182985,3140.991542
188.707187,3701.029710,6883.915261,3294.210641
188.707508,4663.297435,6365.771101,3677.258390
188.707828,5551.544565,8142.265362,3983.696590
188.708149,5625.565159,11695.253884,3524.039291
188.708469,5329.482782,13619.789333,3524.039291
188.708790,5625.565159,14137.933492,2681.334243
188.709111,7846.182985,14434.015869,2451.505594
188.709431,7476.080014,13323.706956,4136.915689
188.709752,4959.379811,9918.759623,5898.935335
188.710073,5107.421000,7476.080014,6511.811733
188.710393,2368.659014,6365.771101,6358.592633
188.710714,2072.576638,6513.812290,5362.668486
188.711035,3256.906145,6291.750507,4826.401637
188.711355,4959.379811,6069.688724,4749.792088
188.711676,4589.276840,5329.482782,6358.592633
188.711997,6143.709319,5551.544565,8197.221829
188.712317,6513.812290,7698.141797,7814.174080
188.712638,5107.421000,10066.800811,6818.249932
188.712959,4663.297435,10510.924376,5362.668486
188.713279,6069.688724,9474.636058,3907.087040
188.713600,5033.400406,7179.997637,4903.011187
188.713920,4071.132681,5181.441594,7814.174080
188.714241,5403.503377,5625.565159,8963.317327
188.714562,2886.803174,7179.997637,8273.831378
188.714882,518.144159,8438.347739,6511.811733
188.715203,1332.370696,6809.894666,6052.154434
188.715524,2738.761985,4367.215058,7201.297681
188.715844,1554.432478,2220.617826,9422.974625
188.716165,3997.112087,3552.988522,9116.536426
188.716486,5477.523971,7105.977043,7584.345430
188.716806,3330.926739,9844.739029,5056.230287
188.717127,2220.617826,9104.533087,4290.134789
188.717448,4515.256246,7105.977043,5286.058936
188.717768,4737.318029,5699.585753,7124.688131
188.718089,3330.926739,4293.194464,9193.145976
188.718410,5329.482782,6661.853478,9652.803275
188.718730,4811.338623,9696.697840,6741.640382
188.719051,3997.112087,11029.068536,5286.058936
188.719371,4145.153275,9178.553681,4979.620737
188.719692,5847.626942,5699.585753,4136.915689
188.720013,4071.132681,2960.823768,5439.278036
188.720333,4293.194464,2220.617826,6588.421283
188.720654,4737.318029,3775.050304,6588.421283
188.720975,4811.338623,6661.853478,5439.278036
188.721295,4885.359217,8734.430116,4290.134789
188.721616,5329.482782,10584.944971,3524.039291
188.721937,5255.462188,11843.295072,5132.839837
188.722257,5255.462188,12953.603985,6971.469032
188.722578,5699.585753,12509.480420,6665.030833
188.722899,5033.400406,9918.759623,4749.792088
188.723219,3849.070898,7624.121203,3064.381992
188.723540,2442.679609,5181.441594,1685.410096
188.723861,2368.659014,4885.359217,2528.115143
188.724181,3182.885551,7328.038826,4136.915689
188.724502,4293.194464,9474.636058,4366.744339
188.724823,5995.668130,11177.109724,4060.306139
188.725143,7328.038826,11473.192101,4749.792088
188.725464,7550.100608,11917.315666,3677.258390
188.725785,6291.750507,11399.171507,1991.848295
188.726106,5847.626942,9548.656652,2145.067394
188.726426,7105.977043,8068.244768,4519.963438
188.726747,8364.327145,8808.450710,5822.325785
188.727068,7105.977043,9548.656652,4519.963438
188.727389,5255.462188,9696.697840,1915.238745
188.727709,4885.359217,9770.718434,1378.971896
188.728030,4811.338623,7994.224174,3753.867940
188.728351,5847.626942,5107.421000,5669.106685
188.728672,7550.100608,5033.400406,4213.525239
188.728992,5921.647536,8290.306550,1762.019645
188.729313,4589.276840,11251.130318,1762.019645
188.729634,6661.853478,12583.501014,2757.943793
188.729955,8290.306550,12065.356855,3907.087040
188.730275,7179.997637,10288.862594,4979.620737
188.730596,6661.853478,9104.533087,4903.011187
188.730917,4589.276840,8586.388927,4826.401637
188.731238,2960.823768,9400.615463,6052.154434
188.731558,3256.906145,8660.409521,6052.154434
188.731879,3552.988522,6291.750507,4213.525239
188.732200,3256.906145,5699.585753,3830.477490
188.732521,3404.947333,7105.977043,6894.859482
188.732841,3330.926739,9178.553681,8580.269578
188.733162,4145.153275,9326.594869,7277.907231
188.733483,3478.967927,7846.182985,4979.620737
188.733804,4367.215058,6735.874072,4749.792088
188.734124,6069.688724,8068.244768,6894.859482
188.734445,5625.565159,10288.862594,8350.440928
188.734766,3034.844362,9992.780217,5132.839837
188.735087,3404.947333,8660.409521,2987.772442
188.735407,4145.153275,6513.812290,4290.134789
188.735728,4441.235652,5773.606348,7354.516781
188.736049,5107.421000,6735.874072,8197.221829
188.736370,3256.906145,7254.018232,5056.230287
188.736690,962.267725,5403.503377,3064.381992
188.737011,3034.844362,4885.359217,4826.401637
188.737332,6957.935855,7105.977043,8580.269578
188.737653,7476.080014,9474.636058,9193.145976
188.737973,5255.462188,10584.944971,6588.421283
188.738294,4367.215058,10066.800811,3983.696590
188.738615,4737.318029,7254.018232,6052.154434
188.738936,5847.626942,5477.523971,9806.022374
188.739256,6365.771101,6587.832884,10035.851024
188.739577,4737.318029,8216.285956,6281.983084
188.739898,1480.411884,6587.832884,3370.820191
188.740219,2146.597232,3552.988522,2911.162892
188.740540,5551.544565,2664.741391,6818.249932
188.740860,6365.771101,4219.173869,9039.926876
188.741181,2516.700203,4663.297435,4826.401637
188.741502,3923.091493,7105.977043,-229.828649
188.741823,5551.544565,9770.718434,1072.533697
188.742143,7328.038826,9030.512492,5132.839837
188.742464,8882.471304,8216.285956,6128.763984
188.742785,7105.977043,10436.903782,3907.087040
188.743106,3478.967927,11547.212695,2681.334243
188.743426,3478.967927,9178.553681,3830.477490
188.743747,5403.503377,7031.956449,4519.963438
188.744068,4145.153275,5477.523971,4826.401637
188.744389,3701.029710,6809.894666,4443.353888
188.744709,2368.659014,8216.285956,2068.457845
188.745030,1776.494261,7402.059420,2221.676944
188.745351,2960.823768,5995.668130,4749.792088
188.745672,6291.750507,8216.285956,3830.477490
188.745992,3404.947333,9178.553681,1838.629195
188.746313,2886.803174,10881.027347,766.095498
188.746634,6365.771101,12065.356855,1149.143247
188.746955,8290.306550,11695.253884,1532.190996
188.747275,7476.080014,10066.800811,2604.724693
188.747596,7105.977043,10807.006753,3217.601092
188.747917,4441.235652,10362.883188,1991.848295
188.748238,5033.400406,9844.739029,2451.505594
188.748558,7105.977043,8364.327145,2987.772442
188.748879,7476.080014,6661.853478,2604.724693
188.749200,5255.462188,4811.338623,3140.991542
188.749521,5477.523971,4737.318029,2987.772442
188.749841,5699.585753,5847.626942,1455.581446
188.750162,6217.729913,7179.997637,306.438199
188.750483,6809.894666,7846.182985,-689.485948
188.750804,9918.759623,9696.697840,-842.705048
188.751124,8882.471304,12287.418637,536.266849
188.751445,7624.121203,11769.274478,1149.143247
188.751766,6735.874072,8808.450710,-766.095498
188.752087,7105.977043,8438.347739,-842.705048
188.752407,4589.276840,8808.450710,1302.362347
188.752728,4737.318029,7402.059420,919.314598
188.753049,3923.091493,5921.647536,-1455.581446
188.753370,3330.926739,6143.709319,-689.485948
188.753690,3256.906145,6957.935855,2221.676944
188.754011,4589.276840,7698.141797,3753.867940
188.754332,4737.318029,9770.718434,3983.696590
188.754653,3404.947333,9474.636058,2757.943793
188.754973,2960.823768,7105.977043,1762.019645
188.755294,3034.844362,5033.400406,1455.581446
188.755615,3997.112087,7031.956449,2757.943793
188.755936,4737.318029,9400.615463,1149.143247
188.756256,4589.276840,9918.759623,-2528.115143
188.756577,2886.803174,8142.265362,-3907.087040
188.756898,4811.338623,8364.327145,689.485948
188.757219,6809.894666,9548.656652,3753.867940
188.757539,5477.523971,9252.574275,2374.896044
188.757860,3330.926739,7846.182985,-612.876398
188.758181,4737.318029,7254.018232,0.000000
188.758502,5699.585753,7105.977043,2221.676944
188.758822,6291.750507,6883.915261,2451.505594
188.759143,5551.544565,7105.977043,-842.705048
188.759464,3997.112087,7624.121203,-2834.553343
188.759785,4441.235652,6957.935855,0.000000
188.760105,6439.791695,6883.915261,3370.820191
188.760426,7476.080014,6883.915261,2451.505594
188.760747,5181.441594,9030.512492,229.828649
188.761068,3775.050304,9474.636058,-1608.800546
188.761388,4663.297435,8808.450710,-1378.971896
188.761709,7031.956449,7254.018232,-536.266849
188.762030,6069.688724,6809.894666,536.266849
188.762351,4663.297435,6439.791695,-536.266849
188.762671,4071.132681,7772.162391,-842.705048
188.762992,3552.988522,8660.409521,0.000000
188.763313,4811.338623,8216.285956,153.219100
188.763634,5625.565159,7772.162391,1225.752797
188.763954,5477.523971,9326.594869,1838.629195
188.764275,3552.988522,9844.739029,1685.410096
188.764596,2146.597232,7846.182985,689.485948
188.764917,3404.947333,5033.400406,-1149.143247
188.765237,5107.421000,4367.215058,-459.657299
188.765558,3849.070898,5329.482782,0.000000
188.765879,5329.482782,8068.244768,-2451.505594
188.766200,5625.565159,9474.636058,-4443.353888
188.766520,5181.441594,7550.100608,-3907.087040
188.766841,7846.182985,7105.977043,-1455.581446
188.767162,9474.636058,8660.409521,766.095498
188.767483,7402.059420,9696.697840,-229.828649
188.767803,7772.162391,10807.006753,-2604.724693
188.768124,7624.121203,8808.450710,-3217.601092
188.768445,5995.668130,7105.977043,-1532.190996
188.768766,6809.894666,6587.832884,995.924147
188.769086,8808.450710,8808.450710,-459.657299
188.769407,5847.626942,9326.594869,-3140.991542
188.769728,3182.885551,8290.306550,-2451.505594
188.770049,4737.318029,7698.141797,0.000000
188.770369,4515.256246,8290.306550,3217.601092
188.770690,3034.844362,8734.430116,3524.039291
188.771011,4293.194464,10732.986159,0.000000
188.771332,4145.153275,11473.192101,-3294.210641
188.771652,1628.453072,9696.697840,-2681.334243
188.771973,3775.050304,6809.894666,-1072.533697
188.772294,4293.194464,5403.503377,-229.828649
188.772615,2590.720797,6661.853478,-689.485948
188.772935,2590.720797,8808.450710,-2451.505594
188.773256,5551.544565,11473.192101,-3753.867940
188.773577,5403.503377,10807.006753,-3140.991542
188.773898,5773.606348,9474.636058,-842.705048
188.774218,6661.853478,7550.100608,0.000000
188.774539,6069.688724,7105.977043,76.609550
188.774860,4737.318029,7328.038826,-76.609550
188.775181,4737.318029,5995.668130,-2068.457845
188.775501,5625.565159,7624.121203,-2987.772442
188.775822,5995.668130,9992.780217,-995.924147
188.776143,4441.235652,9474.636058,-1149.143247
188.776464,3552.988522,5625.565159,-1378.971896
188.776784,3923.091493,3108.864956,-1072.533697
188.777105,4145.153275,4367.215058,-612.876398
188.777426,4145.153275,5995.668130,-1149.143247
188.777747,4737.318029,8586.388927,-3140.991542
188.778067,7254.018232,9992.780217,-4366.744339
188.778388,8882.471304,12139.377449,-2145.067394
188.778709,8512.368333,12287.418637,612.876398
188.779030,7328.038826,9770.718434,2221.676944
188.779350,6069.688724,5699.585753,1532.190996
188.779671,5625.565159,5699.585753,536.266849
188.779992,4219.173869,5699.585753,0.000000
188.780313,5625.565159,7105.977043,1149.143247
188.780633,7179.997637,9918.759623,2528.115143
188.780954,6957.935855,9918.759623,2298.286494
188.781275,3256.906145,6661.853478,612.876398
188.781596,3923.091493,3849.070898,-459.657299
188.781916,5033.400406,5699.585753,1455.581446
188.782237,4589.276840,7920.203579,1149.143247
188.782558,4737.318029,8734.430116,-1915.238745
188.782879,5403.503377,9474.636058,-3830.477490
188.783199,6439.791695,10362.883188,-2374.896044
188.783520,5921.647536,9844.739029,612.876398
188.783841,5995.668130,9696.697840,-153.219100
188.784162,4441.235652,10732.986159,-2911.162892
188.784483,3923.091493,10732.986159,-1072.533697
188.784803,3997.112087,8068.244768,1991.848295
188.785124,5107.421000,6439.791695,4060.306139
188.785445,3775.050304,7846.182985,3983.696590
188.785766,1554.432478,7698.141797,1991.848295
188.786086,222.061783,5773.606348,-383.047749
188.786407,2516.700203,5033.400406,0.000000
188.786728,3701.029710,6069.688724,2145.067394
188.787049,3404.947333,6661.853478,2068.457845
188.787369,3478.967927,7846.182985,-1302.362347
188.787690,3997.112087,9326.594869,-2221.676944
188.788011,3701.029710,9030.512492,-1378.971896
188.788332,4737.318029,7328.038826,-1378.971896
188.788652,5847.626942,6735.874072,-2911.162892
188.788973,7105.977043,9030.512492,-2757.943793
188.789294,5773.606348,10362.883188,-1838.629195
188.789615,6957.935855,9696.697840,-2374.896044
188.789935,7254.018232,8142.265362,-1455.581446
188.790256,6365.771101,6957.935855,1149.143247
188.790577,4959.379811,4441.235652,1915.238745
188.790898,4589.276840,3552.988522,1378.971896
188.791218,3478.967927,4663.297435,0.000000
188.791539,4737.318029,6143.709319,-1072.533697
188.791860,5403.503377,6291.750507,-2911.162892
188.792181,4737.318029,7624.121203,-2987.772442
188.792501,6661.853478,9548.656652,-1302.362347
188.792822,7105.977043,10066.800811,-1302.362347
188.793143,5625.565159,8882.471304,-3217.601092
188.793464,5329.482782,9178.553681,-2681.334243
188.793784,5699.585753,12287.418637,-1302.362347
188.794105,5699.585753,13175.665768,306.438199
188.794426,4885.359217,12657.521608,1838.629195
188.794747,5181.441594,9992.780217,1378.971896
188.795067,4737.318029,8142.265362,1378.971896
188.795388,1406.391290,5995.668130,459.657299
188.795709,74.020594,4219.173869,-766.095498
188.796030,1628.453072,4071.132681,-153.219100
188.796350,5107.421000,6735.874072,766.095498
188.796671,6143.709319,10658.965565,383.047749
188.796992,5625.565159,11695.253884,-919.314598
188.797313,5847.626942,12065.356855,-1991.848295
188.797633,6809.894666,10510.924376,-995.924147
188.797954,7698.141797,9178.553681,-459.657299
188.798275,7994.224174,9252.574275,-1608.800546
188.798596,7179.997637,9770.718434,-3064.381992
188.798916,5847.626942,9770.718434,-2528.115143
188.799237,6439.791695,10436.903782,306.438199
188.799558,6217.729913,8882.471304,229.828649
188.799879,5033.400406,6143.709319,-689.485948
188.800199,3108.864956,3330.926739,-1072.533697
188.800520,2960.823768,3182.885551,-1378.971896
188.800841,4367.215058,5403.503377,-536.266849
188.801162,5329.482782,7402.059420,766.095498
188.801482,4071.132681,7624.121203,-229.828649
188.801803,4959.379811,7476.080014,-1762.019645
188.802124,5181.441594,9178.553681,-612.876398
188.802445,3478.967927,8364.327145,229.828649
188.802765,5107.421000,7920.203579,-689.485948
188.803086,5921.647536,8586.388927,-1838.629195
188.803407,3478.967927,8512.368333,-1838.629195
188.803728,3182.885551,8660.409521,-1072.533697
188.804048,6439.791695,9252.574275,1225.752797
188.804369,4367.215058,8438.347739,1915.238745
188.804690,3330.926739,7772.162391,1532.190996
188.805011,3997.112087,7550.100608,-689.485948
188.805331,3034.844362,6365.771101,-766.095498
188.805652,2738.761985,6513.812290,2757.943793
188.805973,5255.462188,8512.368333,3447.429741
188.806294,3849.070898,9030.512492,0.000000
188.806614,3034.844362,8956.491898,-842.705048
188.806935,3775.050304,8364.327145,0.000000
188.807256,4885.359217,7476.080014,1149.143247
188.807577,4737.318029,7994.224174,2221.676944
188.807897,5329.482782,9400.615463,689.485948
188.808218,5921.647536,9252.574275,-1532.190996
188.808539,6513.812290,9992.780217,153.219100
188.808860,7179.997637,9844.739029,1685.410096
188.809180,6809.894666,8882.471304,766.095498
188.809501,6217.729913,8142.265362,1608.800546
188.809822,5773.606348,8216.285956,1762.019645
188.810143,5995.668130,7920.203579,1302.362347
188.810463,4885.359217,7031.956449,919.314598
188.810784,4959.379811,7105.977043,842.705048
188.811105,4589.276840,6291.750507,1838.629195
188.811426,4737.318029,7105.977043,1838.629195
188.811746,3775.050304,6587.832884,1149.143247
188.812067,3701.029710,5773.606348,0.000000
188.812388,5033.400406,7105.977043,-536.266849
188.812709,5921.647536,9696.697840,-459.657299
188.813029,4293.194464,10658.965565,-229.828649
188.813350,5181.441594,8438.347739,-995.924147
188.813671,7105.977043,6587.832884,-1762.019645
188.813992,6143.709319,8660.409521,-689.485948
188.814312,4515.256246,11769.274478,766.095498
188.814633,4737.318029,10584.944971,459.657299
188.814954,5033.400406,8808.450710,229.828649
188.815275,2960.823768,6217.729913,2068.457845
188.815595,3256.906145,4885.359217,3370.820191
188.815916,2368.659014,4071.132681,1915.238745
188.816237,1702.473667,6291.750507,536.266849
188.816558,2442.679609,7105.977043,0.000000
188.816878,5403.503377,7624.121203,-2298.286494
188.817199,4959.379811,7402.059420,-1532.190996
188.817520,5699.585753,8512.368333,2145.067394
188.817841,6661.853478,11251.130318,2298.286494
188.818161,6069.688724,11843.295072,-919.314598
188.818482,3775.050304,9696.697840,-3294.210641
188.818803,7105.977043,7105.977043,-2068.457845
188.819124,7328.038826,6883.915261,766.095498
188.819444,4885.359217,7402.059420,1302.362347
188.819765,4293.194464,9696.697840,-2068.457845
188.820086,4367.215058,10436.903782,-3677.258390
188.820407,4071.132681,8808.450710,-536.266849
188.820727,5625.565159,6957.935855,3447.429741
188.821048,6143.709319,6513.812290,3524.039291
188.821369,3478.967927,6143.709319,1455.581446
188.821690,2294.638420,6291.750507,0.000000
188.822010,5033.400406,8660.409521,-1838.629195
188.822331,6439.791695,9030.512492,-1302.362347
188.822652,6809.894666,8882.471304,459.657299
188.822973,8216.285956,8586.388927,0.000000
188.823293,5995.668130,8956.491898,-1072.533697
188.823614,1998.556043,7254.018232,-1762.019645
188.823933,4663.297435,7031.956449,-2911.162892
188.824254,6809.894666,7772.162391,-1838.629195
188.824575,6661.853478,8512.368333,-306.438199
188.824896,5847.626942,10362.883188,-1608.800546
188.825217,6069.688724,11769.274478,-2834.553343
188.825538,4145.153275,9770.718434,-995.924147
188.825858,4293.194464,5181.441594,2987.772442
188.826179,5403.503377,4071.132681,2911.162892
188.826500,2738.761985,4589.276840,919.314598
188.826821,2886.803174,6883.915261,-612.876398
188.827142,4811.338623,8586.388927,-1685.410096
188.827462,5625.565159,8586.388927,-919.314598
188.827783,5181.441594,8364.327145,-229.828649
188.828104,7772.162391,9696.697840,-612.876398
188.828425,6143.709319,9104.533087,-2145.067394
188.828746,4441.235652,8216.285956,-1838.629195
188.829067,7328.038826,9844.739029,-536.266849
188.829387,7105.977043,11695.253884,536.266849
188.829708,5477.523971,10955.047942,612.876398
188.830029,5107.421000,8882.471304,689.485948
188.830350,4441.235652,6809.894666,76.609550
188.830671,1554.432478,4885.359217,1149.143247
188.830991,4145.153275,4885.359217,1532.190996
188.831312,4663.297435,5995.668130,459.657299
188.831633,4145.153275,9178.553681,1455.581446
188.831954,5625.565159,10658.965565,3447.429741
188.832275,7550.100608,9918.759623,2451.505594
188.832596,5551.544565,7328.038826,1685.410096
188.832916,4885.359217,6291.750507,1762.019645
188.833237,6809.894666,7698.141797,-842.705048
188.833558,6143.709319,8438.347739,-1455.581446
188.833879,5921.647536,10436.903782,-1302.362347
188.834200,7846.182985,12139.377449,-153.219100
188.834521,7328.038826,12879.583391,1915.238745
188.834841,2960.823768,10140.821405,2374.896044
188.835162,2294.638420,5551.544565,1455.581446
188.835483,3775.050304,3182.885551,1685.410096
188.835804,2072.576638,3404.947333,3830.477490
188.836125,1110.308913,4737.318029,3140.991542
188.836445,2664.741391,6291.750507,2221.676944
188.836766,4219.173869,7772.162391,1149.143247
188.837087,3627.009116,6809.894666,229.828649
188.837408,5329.482782,8068.244768,0.000000
188.837729,4293.194464,8142.265362,153.219100
188.838050,4145.153275,7402.059420,766.095498
188.838370,5625.565159,7994.224174,76.609550
188.838691,5921.647536,10584.944971,-1225.752797
188.839012,3923.091493,11177.109724,-1915.238745
188.839333,4811.338623,11103.089130,-1149.143247
188.839654,4441.235652,8734.430116,-919.314598
188.839974,3997.112087,6217.729913,536.266849
188.840295,3775.050304,3108.864956,1685.410096
188.840616,3849.070898,1998.556043,1072.533697
188.840937,4293.194464,4959.379811,2298.286494
188.841258,3034.844362,6957.935855,2068.457845
188.841579,4737.318029,6365.771101,-1072.533697
188.841899,8364.327145,6735.874072,-1838.629195
188.842220,8586.388927,7846.182985,306.438199
188.842541,6661.853478,6883.915261,612.876398
188.842862,9030.512492,8068.244768,-1685.410096
188.843183,7550.100608,10881.027347,-3370.820191
188.843503,5477.523971,10436.903782,-3217.601092
188.843824,7846.182985,9548.656652,-2451.505594
188.844145,8512.368333,9918.759623,-2374.896044
188.844466,4737.318029,8586.388927,-1455.581446
188.844787,3923.091493,6513.812290,-1149.143247
188.845108,5625.565159,7179.997637,-1685.410096
188.845428,2516.700203,7105.977043,-306.438199
188.845749,1628.453072,7254.018232,2068.457845
188.846070,4737.318029,7698.141797,766.095498
188.846391,3775.050304,6735.874072,-689.485948
188.846712,4589.276840,9252.574275,-306.438199
188.847032,5033.400406,9622.677246,-2145.067394
188.847353,4367.215058,9252.574275,-4290.134789
188.847674,4663.297435,10436.903782,-2451.505594
188.847995,6513.812290,13767.830521,-1149.143247
188.848316,4441.235652,14063.912898,-1991.848295
188.848637,4885.359217,12657.521608,-1532.190996
188.848957,5477.523971,11029.068536,-1149.143247
188.849278,3849.070898,7698.141797,-1455.581446
188.849599,2368.659014,5699.585753,383.047749
188.849920,3627.009116,6365.771101,0.000000
188.850241,4071.132681,7698.141797,-842.705048
188.850561,3701.029710,7550.100608,1149.143247
188.850882,4737.318029,6439.791695,689.485948
188.851203,5477.523971,5477.523971,-1455.581446
188.851524,5773.606348,7550.100608,-1838.629195
188.851845,7179.997637,8956.491898,-229.828649
188.852166,8882.471304,10288.862594,-1532.190996
188.852486,8734.430116,11695.253884,-2451.505594
188.852807,9474.636058,13693.809927,-2145.067394
188.853128,7846.182985,12435.459826,-919.314598
188.853449,7328.038826,10584.944971,1149.143247
188.853770,7105.977043,7550.100608,2068.457845
188.854090,4441.235652,2294.638420,76.609550
188.854411,2960.823768,592.164754,-1915.238745
188.854732,2368.659014,2516.700203,-153.219100
188.855053,2368.659014,5477.523971,2911.162892
188.855374,4885.359217,8142.265362,2757.943793
188.855695,7328.038826,9400.615463,-306.438199
188.856015,3923.091493,7846.182985,-1378.971896
188.856336,3627.009116,7328.038826,2451.505594
188.856657,5699.585753,8364.327145,2911.162892
188.856978,4293.194464,7698.141797,76.609550
188.857299,3923.091493,8808.450710,-2834.553343
188.857620,5625.565159,10066.800811,-3294.210641
188.857940,5773.606348,11621.233289,383.047749
188.858261,3775.050304,11251.130318,4136.915689
188.858582,4145.153275,10436.903782,2221.676944
188.858903,1332.370696,5477.523971,-1225.752797
188.859224,-370.102971,1776.494261,76.609550
188.859544,1924.535449,1998.556043,3830.477490
188.859865,4885.359217,4367.215058,4826.401637
188.860186,2960.823768,6291.750507,1532.190996
188.860507,4663.297435,7698.141797,-1072.533697
188.860828,6217.729913,8956.491898,-995.924147
188.861149,6587.832884,8660.409521,1455.581446
188.861469,6883.915261,8882.471304,1455.581446
188.861790,6809.894666,7328.038826,-1532.190996
188.862111,4885.359217,7328.038826,-2451.505594
188.862432,4811.338623,8734.430116,-1608.800546
188.862753,7772.162391,10658.965565,-1838.629195
188.863073,7179.997637,11177.109724,-2834.553343
188.863394,4663.297435,8882.471304,-2604.724693
188.863715,2812.782580,6513.812290,-995.924147
188.864036,3849.070898,4071.132681,2374.896044
188.864357,2960.823768,2664.741391,4213.525239
188.864678,2664.741391,2220.617826,612.876398
188.864998,3775.050304,6735.874072,-3447.429741
188.865319,4959.379811,11843.295072,-2681.334243
188.865640,5847.626942,12435.459826,-766.095498
188.865961,7105.977043,9178.553681,-842.705048
188.866282,7624.121203,9474.636058,-995.924147
188.866602,4293.194464,11399.171507,-459.657299
188.866923,3256.906145,12139.377449,612.876398
188.867244,4515.256246,10881.027347,-1915.238745
188.867565,6143.709319,8956.491898,-4749.792088
188.867886,5255.462188,9178.553681,-4596.572988
188.868207,4959.379811,9770.718434,-995.924147
188.868527,5329.482782,9844.739029,1838.629195
188.868848,6587.832884,9030.512492,2298.286494
188.869169,6217.729913,7772.162391,-689.485948
188.869490,3478.967927,4737.318029,-1378.971896
188.869811,4145.153275,4959.379811,2145.067394
188.870131,7328.038826,7772.162391,4366.744339
188.870452,8586.388927,9770.718434,-459.657299
188.870773,5847.626942,9548.656652,-6128.763984
188.871094,6957.935855,9548.656652,-5669.106685
188.871415,8512.368333,10881.027347,-306.438199
188.871736,8142.265362,11251.130318,1915.238745
188.872056,7624.121203,11177.109724,-995.924147
188.872377,5033.400406,9474.636058,-4213.525239
188.872698,5477.523971,9622.677246,-1455.581446
188.873019,4293.194464,8216.285956,3600.648841
188.873340,2960.823768,5551.544565,2911.162892
188.873660,2442.679609,4071.132681,-766.095498
188.873981,2664.741391,5403.503377,-2221.676944
188.874302,592.164754,5551.544565,-766.095498
188.874623,3849.070898,6143.709319,1455.581446
188.874944,5255.462188,7179.997637,1302.362347
188.875265,3923.091493,7402.059420,-229.828649
188.875585,2812.782580,8364.327145,-1225.752797
188.875906,4145.153275,8734.430116,-1302.362347
188.876227,4737.318029,9622.677246,-1685.410096
188.876548,5033.400406,9326.594869,-2374.896044
188.876869,6143.709319,9696.697840,-3524.039291
188.877189,3701.029710,9696.697840,-2068.457845
188.877510,3034.844362,8068.244768,536.266849
188.877831,1184.329507,2960.823768,-689.485948
188.878152,1850.514855,1184.329507,-2528.115143
188.878473,3627.009116,5551.544565,536.266849
188.878794,2664.741391,8068.244768,2451.505594
188.879114,2590.720797,6661.853478,-1072.533697
188.879435,6809.894666,7476.080014,-1455.581446
188.879756,6661.853478,8956.491898,0.000000
188.880077,4959.379811,7105.977043,1455.581446
188.880398,7476.080014,7550.100608,766.095498
188.880718,5773.606348,8808.450710,-2528.115143
188.881039,5995.668130,10288.862594,-4826.401637
188.881360,7846.182985,11473.192101,-2451.505594
188.881681,7920.203579,12583.501014,1072.533697
188.882002,7476.080014,13841.851115,3907.087040
188.882323,6291.750507,11473.192101,1838.629195
188.882643,1850.514855,5921.647536,-3064.381992
188.882964,2072.576638,2368.659014,153.219100
188.883285,5181.441594,6661.853478,6128.763984
188.883606,4293.194464,7476.080014,5515.887586
188.883927,4441.235652,7846.182985,-306.438199
188.884248,7031.956449,10214.842000,-2374.896044
188.884568,7550.100608,11769.274478,1149.143247
188.884889,6217.729913,10732.986159,5822.325785
188.885210,7328.038826,9622.677246,2451.505594
188.885531,5995.668130,9844.739029,-2604.724693
188.885852,4885.359217,9400.615463,-919.314598
188.886172,8438.347739,11917.315666,1608.800546
188.886493,8512.368333,11473.192101,919.314598
188.886814,3256.906145,9400.615463,-1302.362347
188.887135,2812.782580,6957.935855,-1685.410096
188.887456,3701.029710,4811.338623,229.828649
188.887777,2812.782580,3182.885551,3677.258390
188.888097,3849.070898,3330.926739,4136.915689
188.888418,4219.173869,4219.173869,383.047749
188.888739,3701.029710,5995.668130,-1072.533697
188.889060,3478.967927,9326.594869,306.438199
188.889381,4959.379811,9178.553681,-229.828649
188.889701,5477.523971,7254.018232,-2221.676944
188.890022,5403.503377,6069.688724,-842.705048
188.890343,4219.173869,6587.832884,0.000000
188.890664,1776.494261,5995.668130,-1762.019645
188.890985,3330.926739,7328.038826,-3907.087040
188.891306,4589.276840,9622.677246,-4673.182538
188.891626,3849.070898,9474.636058,-2604.724693
188.891947,4515.256246,7698.141797,0.000000
188.892268,5033.400406,6069.688724,842.705048
188.892589,2516.700203,4737.318029,306.438199
188.892910,2516.700203,3034.844362,1225.752797
188.893230,4589.276840,4293.194464,919.314598
188.893551,3849.070898,5699.585753,1532.190996
188.893872,5847.626942,9104.533087,-536.266849
188.894193,7550.100608,10510.924376,-3064.381992
188.894514,5699.585753,10214.842000,-3524.039291
188.894835,4959.379811,10140.821405,76.609550
188.895155,8660.409521,10066.800811,1838.629195
188.895476,5625.565159,8734.430116,-1072.533697
188.895797,3701.029710,7328.038826,-2987.772442
188.896118,5921.647536,9622.677246,-2528.115143
188.896439,7105.977043,12139.377449,-153.219100
188.896759,4737.318029,11103.089130,1532.190996
188.897080,6735.874072,8660.409521,383.047749
188.897401,6069.688724,6809.894666,-2145.067394
188.897722,3552.988522,6661.853478,919.314598
188.898043,5995.668130,9548.656652,2757.943793
188.898364,6365.771101,10362.883188,153.219100
188.898684,6883.915261,10955.047942,-1072.533697
188.899005,7402.059420,11843.295072,919.314598
188.899326,7550.100608,11547.212695,1762.019645
188.899647,4219.173869,9992.780217,2374.896044
188.899968,3552.988522,8956.491898,536.266849
188.900288,3775.050304,7994.224174,-2681.334243
188.900609,4145.153275,7328.038826,-2451.505594
188.900930,5033.400406,9252.574275,229.828649
188.901251,4959.379811,9178.553681,1072.533697
188.901572,3997.112087,8364.327145,1149.143247
188.901893,3404.947333,7772.162391,1302.362347
188.902213,3701.029710,6143.709319,0.000000
188.902534,3108.864956,4663.297435,-459.657299
188.902855,5699.585753,5921.647536,-306.438199
188.903176,6291.750507,8364.327145,-766.095498
188.903497,5773.606348,9178.553681,689.485948
188.903817,7179.997637,9844.739029,76.609550
188.904138,5403.503377,8586.388927,-766.095498
188.904459,2886.803174,6143.709319,-1302.362347
188.904780,2072.576638,4293.194464,-536.266849
188.905101,5255.462188,5847.626942,-383.047749
188.905422,4885.359217,7328.038826,-612.876398
188.905742,4885.359217,8142.265362,-2528.115143
188.906063,3923.091493,8364.327145,-2451.505594
188.906384,3997.112087,7994.224174,2221.676944
188.906705,4663.297435,7179.997637,6128.763984
188.907026,5773.606348,5033.400406,4290.134789
188.907347,3034.844362,4441.235652,-306.438199
188.907667,3478.967927,5625.565159,-1378.971896
188.907988,5773.606348,7476.080014,1608.800546
188.908309,6069.688724,7031.956449,2681.334243
188.908630,6291.750507,8290.306550,842.705048
188.908951,6143.709319,9844.739029,-2068.457845
188.909271,4441.235652,10436.903782,-1991.848295
188.909592,3849.070898,7994.224174,1991.848295
188.909913,7254.018232,7994.224174,2681.334243
188.910234,7179.997637,9326.594869,76.609550
188.910555,4145.153275,9178.553681,-459.657299
188.910876,3627.009116,8290.306550,0.000000
188.911196,5773.606348,8734.430116,2374.896044
188.911517,4663.297435,8808.450710,2987.772442
188.911838,2590.720797,6217.729913,995.924147
188.912159,3849.070898,5847.626942,-919.314598
188.912480,4293.194464,7105.977043,229.828649
188.912800,5255.462188,9104.533087,1302.362347
188.913121,5847.626942,9918.759623,-459.657299
188.913442,5625.565159,10658.965565,-1302.362347
188.913763,4293.194464,10955.047942,919.314598
188.914084,4293.194464,8882.471304,1378.971896
188.914405,4737.318029,7254.018232,-306.438199
188.914725,5329.482782,7105.977043,-2451.505594
188.915046,5551.544565,8882.471304,-2451.505594
188.915367,3775.050304,9104.533087,-612.876398
188.915688,3330.926739,6143.709319,-689.485948
188.916009,4737.318029,5107.421000,-383.047749
188.916329,5033.400406,5847.626942,0.000000
188.916650,2072.576638,6439.791695,-612.876398
188.916971,5255.462188,8586.388927,-1455.581446
188.917292,7698.141797,10584.944971,-2834.553343
188.917613,6809.894666,8660.409521,-1991.848295
188.917934,6587.832884,7772.162391,-995.924147
188.918254,7105.977043,7994.224174,306.438199
188.918575,5847.626942,10066.800811,689.485948
188.918896,4219.173869,8882.471304,-2145.067394
188.919217,5625.565159,7402.059420,-5209.449386
188.919538,6957.935855,7624.121203,-2757.943793
188.919858,6291.750507,9178.553681,2834.553343
188.920179,4293.194464,7254.018232,2911.162892
188.920500,5181.441594,5699.585753,-1225.752797
188.920821,4071.132681,6365.771101,-2987.772442
188.921142,3923.091493,7179.997637,-995.924147
188.921463,4885.359217,8142.265362,2068.457845
188.921783,7105.977043,8956.491898,1991.848295
188.922104,7994.224174,11103.089130,-1378.971896
188.922425,5181.441594,10658.965565,-2374.896044
188.922746,5033.400406,10214.842000,-1302.362347
188.923067,5921.647536,10066.800811,1072.533697
188.923387,5477.523971,10140.821405,1991.848295
188.923708,3997.112087,8808.450710,-995.924147
188.924029,4071.132681,8216.285956,-2451.505594
188.924350,4515.256246,10584.944971,76.609550
188.924671,3997.112087,9770.718434,3217.601092
188.924992,3478.967927,7328.038826,1685.410096
188.925312,3108.864956,4959.379811,-766.095498
188.925633,2886.803174,5699.585753,306.438199
188.925954,2960.823768,5477.523971,3294.210641
188.926275,5551.544565,7105.977043,2221.676944
188.926596,6143.709319,8068.244768,-842.705048
188.926916,7179.997637,11177.109724,-2604.724693
188.927237,6069.688724,11843.295072,-2145.067394
188.927558,6217.729913,9548.656652,76.609550
188.927878,7031.956449,8290.306550,1149.143247
188.928199,5847.626942,6143.709319,689.485948
188.928520,4737.318029,6217.729913,-1225.752797
188.928840,4663.297435,7105.977043,-1378.971896
188.929161,4219.173869,7550.100608,-689.485948
188.929482,4293.194464,5699.585753,995.924147
188.929803,5181.441594,4441.235652,1302.362347
188.930123,3775.050304,4515.256246,1225.752797
188.930444,3997.112087,6661.853478,2145.067394
188.930765,2368.659014,5477.523971,1838.629195
188.931085,5255.462188,5551.544565,-306.438199
188.931406,5921.647536,6735.874072,-153.219100
188.931727,6365.771101,8364.327145,76.609550
188.932048,5551.544565,9844.739029,-766.095498
188.932368,6365.771101,10288.862594,-2681.334243
188.932689,5255.462188,9918.759623,-3064.381992
188.933010,4959.379811,8734.430116,-1302.362347
188.933330,6217.729913,9252.574275,0.000000
188.933651,4219.173869,9326.594869,842.705048
188.933972,3701.029710,8142.265362,842.705048
188.934292,3478.967927,6217.729913,-536.266849
188.934613,3404.947333,4811.338623,0.000000
188.934934,2738.761985,5995.668130,2451.505594
188.935255,4885.359217,7254.018232,2451.505594
188.935575,4441.235652,7772.162391,0.000000
188.935896,4737.318029,6809.894666,-919.314598
188.936217,6587.832884,7402.059420,-995.924147
188.936537,6217.729913,8068.244768,-612.876398
188.936858,6217.729913,9770.718434,-919.314598
188.937179,6291.750507,10584.944971,-3064.381992
188.937499,7105.977043,11843.295072,-5515.887586
188.937820,6143.709319,11473.192101,-3524.039291
188.938141,7624.121203,12065.356855,-229.828649
188.938462,6365.771101,11843.295072,0.000000
188.938782,3997.112087,9252.574275,-1149.143247
188.939103,2664.741391,6439.791695,-1302.362347
188.939424,3108.864956,4145.153275,0.000000
188.939744,2886.803174,4367.215058,1915.238745
188.940065,2960.823768,5773.606348,1685.410096
188.940386,4515.256246,9326.594869,-1532.190996
188.940706,4737.318029,10807.006753,-3983.696590
188.941027,5403.503377,10214.842000,-2221.676944
188.941348,5625.565159,9696.697840,153.219100
188.941669,7254.018232,9696.697840,689.485948
188.941989,6439.791695,11177.109724,689.485948
188.942310,4145.153275,11103.089130,-1302.362347
188.942631,4737.318029,9992.780217,-3907.087040
188.942951,6587.832884,9992.780217,-2145.067394
188.943272,5625.565159,9252.574275,306.438199
188.943593,3330.926739,6217.729913,842.705048
188.943914,4441.235652,5033.400406,-1378.971896
188.944234,1998.556043,3849.070898,-1455.581446
188.944555,2812.782580,4589.276840,995.924147
188.944876,4737.318029,5625.565159,2604.724693
188.945196,6809.894666,7846.182985,1532.190996
188.945517,6365.771101,9622.677246,0.000000
188.945838,7105.977043,11399.171507,-2068.457845
188.946158,7105.977043,9252.574275,-3447.429741
188.946479,5551.544565,6513.812290,-1072.533697
188.946800,7179.997637,8882.471304,1532.190996
188.947121,6439.791695,9474.636058,0.000000
188.947441,3552.988522,9474.636058,-2681.334243
188.947762,3923.091493,8808.450710,-1991.848295
188.948083,4737.318029,9178.553681,0.000000
188.948403,2886.803174,7402.059420,3370.820191
188.948724,3256.906145,4441.235652,3677.258390
188.949045,1850.514855,3034.844362,0.000000
188.949365,2368.659014,4219.173869,306.438199
188.949686,3775.050304,5477.523971,3064.381992
188.950007,6143.709319,6587.832884,3064.381992
188.950328,7994.224174,10955.047942,919.314598
188.950648,6217.729913,12879.583391,-1455.581446
188.950969,5403.503377,8956.491898,-2681.334243
188.951290,6587.832884,5847.626942,76.609550
188.951610,7105.977043,6513.812290,1915.238745
188.951931,3997.112087,7624.121203,-383.047749
188.952252,5625.565159,10288.862594,-3907.087040
188.952572,4589.276840,10362.883188,-4519.963438
188.952893,4293.194464,8438.347739,0.000000
188.953214,6217.729913,7105.977043,3983.696590
188.953535,5181.441594,5329.482782,3447.429741
188.953855,740.205942,4663.297435,536.266849
188.954176,2368.659014,5107.421000,1149.143247
188.954497,5107.421000,6957.935855,1072.533697
188.954817,5033.400406,6069.688724,153.219100
188.955138,6291.750507,7994.224174,-306.438199
188.955459,5477.523971,9178.553681,-995.924147
188.955780,4811.338623,10658.965565,-1532.190996
188.956100,5773.606348,11473.192101,-1532.190996
188.956421,6365.771101,10214.842000,-1838.629195
188.956742,5699.585753,9770.718434,-1302.362347
188.957062,5847.626942,10214.842000,0.000000
188.957383,4293.194464,10658.965565,-919.314598
188.957704,3552.988522,7846.182985,-306.438199
188.958024,4885.359217,7254.018232,995.924147
188.958345,3478.967927,6439.791695,2374.896044
188.958666,2368.659014,5995.668130,3140.991542
188.958987,2960.823768,5921.647536,2298.286494
188.959307,3997.112087,4737.318029,-1302.362347
188.959628,5033.400406,5403.503377,-2298.286494
188.959949,6735.874072,9178.553681,-229.828649
188.960269,6735.874072,11103.089130,-1685.410096
188.960590,6809.894666,11399.171507,-2374.896044
188.960911,8290.306550,11695.253884,-2221.676944
188.961231,6513.812290,10362.883188,-2298.286494
188.961552,6809.894666,10140.821405,-1455.581446
188.961873,7920.203579,11177.109724,-1225.752797
188.962194,6587.832884,10214.842000,-1991.848295
188.962514,3478.967927,7179.997637,-1608.800546
188.962835,3923.091493,5181.441594,383.047749
188.963156,3627.009116,4885.359217,3064.381992
188.963476,2368.659014,3923.091493,3677.258390
188.963797,2516.700203,4885.359217,842.705048
188.964118,4219.173869,5181.441594,-919.314598
188.964438,5033.400406,7994.224174,-842.705048
188.964759,5995.668130,9474.636058,-229.828649
188.965080,7550.100608,11769.274478,-995.924147
188.965401,5625.565159,11621.233289,-1225.752797
188.965721,6291.750507,11547.212695,-612.876398
188.966042,5847.626942,9992.780217,-229.828649
188.966363,4663.297435,8290.306550,383.047749
188.966683,4145.153275,8142.265362,-383.047749
188.967004,3627.009116,7105.977043,-1149.143247
188.967325,1776.494261,5477.523971,-1225.752797
188.967646,2886.803174,5181.441594,-306.438199
188.967966,4219.173869,6513.812290,-383.047749
188.968287,2590.720797,4737.318029,1225.752797
188.968608,5255.462188,5847.626942,2374.896044
188.968928,6217.729913,7846.182985,1378.971896
188.969249,5551.544565,9400.615463,-1302.362347
188.969570,4663.297435,9844.739029,-1991.848295
188.969890,7105.977043,10436.903782,-1915.238745
188.970211,6439.791695,10066.800811,153.219100
188.970532,6439.791695,9400.615463,1685.410096
188.970853,6143.709319,11103.089130,-766.095498
188.971173,3775.050304,11547.212695,-2604.724693
188.971494,2294.638420,9992.780217,0.000000
188.971815,3701.029710,6735.874072,1838.629195
188.972135,4071.132681,3478.967927,1838.629195
188.972456,1924.535449,2146.597232,2145.067394
188.972777,1850.514855,4811.338623,1991.848295
188.973097,3330.926739,6735.874072,919.314598
188.973418,6291.750507,8142.265362,612.876398
188.973739,7994.224174,10436.903782,459.657299
188.974060,8660.409521,11325.150913,-229.828649
188.974380,5699.585753,10584.944971,0.000000
188.974701,5699.585753,7254.018232,612.876398
188.975022,7624.121203,8216.285956,689.485948
188.975342,6143.709319,9104.533087,-153.219100
188.975663,5033.400406,10140.821405,-2604.724693
188.975984,4811.338623,8808.450710,-3064.381992
188.976304,4737.318029,8142.265362,-1072.533697
188.976625,3997.112087,6513.812290,2451.505594
188.976946,6513.812290,5255.462188,3217.601092
188.977267,4293.194464,6069.688724,1685.410096
188.977587,3330.926739,7772.162391,1072.533697
188.977908,4589.276840,9104.533087,1608.800546
188.978229,5403.503377,8142.265362,2528.115143
188.978549,5181.441594,6143.709319,2298.286494
188.978870,4959.379811,6291.750507,1378.971896
