#time,accel_x,accel_y,accel_z
116.585378,4885.359217,8068.244768,-153.219100
116.585699,4959.379811,8142.265362,76.609550
116.586020,4959.379811,8216.285956,-153.219100
116.586340,5033.400406,8142.265362,0.000000
116.586661,5255.462188,7920.203579,-229.828649
116.586982,4811.338623,7920.203579,-229.828649
116.587302,4885.359217,8216.285956,-76.609550
116.587623,5033.400406,8142.265362,-153.219100
116.587944,5329.482782,8734.430116,-612.876398
116.588264,4885.359217,7994.224174,0.000000
116.588585,5107.421000,8216.285956,0.000000
116.588906,4885.359217,8068.244768,0.000000
116.589226,4959.379811,8068.244768,0.000000
116.589547,5403.503377,7994.224174,-153.219100
116.589868,5033.400406,7920.203579,0.000000
116.590188,4959.379811,7994.224174,-383.047749
116.590509,5033.400406,8068.244768,-229.828649
116.590830,4959.379811,7994.224174,-229.828649
116.591150,5107.421000,8216.285956,-229.828649
116.591471,4885.359217,7994.224174,-153.219100
116.591792,5033.400406,8068.244768,-153.219100
116.592112,5033.400406,8142.265362,0.000000
116.592433,4737.318029,8364.327145,306.438199
116.592754,4885.359217,8142.265362,0.000000
116.593074,4811.338623,7994.224174,-229.828649
116.593395,5181.441594,7624.121203,306.438199
116.593716,4885.359217,7994.224174,-306.438199
116.594036,4885.359217,8068.244768,0.000000
116.594357,4811.338623,8142.265362,-306.438199
116.594678,5107.421000,7846.182985,-306.438199
116.594998,4811.338623,7920.203579,0.000000
116.595319,5033.400406,7920.203579,-229.828649
116.595640,5107.421000,7624.121203,-229.828649
116.595960,5033.400406,7994.224174,-153.219100
116.596281,4737.318029,8364.327145,-383.047749
116.596602,4811.338623,7920.203579,153.219100
116.596922,4959.379811,7994.224174,0.000000
116.597243,4959.379811,7920.203579,0.000000
116.597564,5033.400406,8142.265362,0.000000
116.597884,5033.400406,7994.224174,-383.047749
116.598205,5033.400406,7920.203579,-153.219100
116.598526,5033.400406,7994.224174,-229.828649
116.598846,4811.338623,7772.162391,-383.047749
116.599167,4737.318029,8068.244768,-306.438199
116.599487,4737.318029,7624.121203,-229.828649
116.599808,4515.256246,7476.080014,-536.266849
116.600129,3997.112087,7254.018232,-229.828649
116.600449,4589.276840,8660.409521,-229.828649
116.600770,4663.297435,9474.636058,-689.485948
116.601091,4737.318029,10140.821405,-1225.752797
116.601411,4737.318029,9770.718434,-1149.143247
116.601732,4737.318029,9400.615463,-919.314598
116.602053,3478.967927,8438.347739,383.047749
116.602373,2812.782580,8660.409521,766.095498
116.602694,2590.720797,9030.512492,842.705048
116.603015,2590.720797,8956.491898,229.828649
116.603335,2812.782580,8660.409521,-536.266849
116.603656,3478.967927,8808.450710,-612.876398
116.603977,3182.885551,9474.636058,0.000000
116.604297,2960.823768,9696.697840,383.047749
116.604618,2590.720797,9474.636058,383.047749
116.604939,2368.659014,8586.388927,306.438199
116.605259,2368.659014,9252.574275,-459.657299
116.605580,2146.597232,10807.006753,-1149.143247
116.605901,1850.514855,12065.356855,-1608.800546
116.606221,1184.329507,11843.295072,-1762.019645
116.606542,1924.535449,11251.130318,-1225.752797
116.606863,740.205942,11547.212695,-689.485948
116.607183,-592.164754,11843.295072,-919.314598
116.607504,-1332.370696,12287.418637,-383.047749
116.607825,-1258.350101,12731.542202,153.219100
116.608145,-2072.576638,11843.295072,1225.752797
116.608466,-1258.350101,11103.089130,1685.410096
116.608787,-962.267725,11547.212695,1838.629195
116.609107,-1998.556043,12805.562797,1149.143247
116.609428,-3034.844362,11399.171507,-306.438199
116.609749,-1554.432478,10584.944971,-995.924147
116.610069,-1036.288319,10066.800811,-153.219100
116.610390,-518.144159,10066.800811,1302.362347
116.610711,-592.164754,10807.006753,1072.533697
116.611031,-222.061783,11103.089130,-153.219100
116.611352,666.185348,11399.171507,-1378.971896
116.611673,1406.391290,10881.027347,-842.705048
116.611993,2146.597232,9992.780217,-306.438199
116.612314,2960.823768,10288.862594,-229.828649
116.612635,2368.659014,10436.903782,-306.438199
116.612955,1850.514855,9770.718434,-2145.067394
116.613276,2146.597232,9474.636058,-2145.067394
116.613597,1924.535449,9844.739029,-1378.971896
116.613917,2220.617826,10140.821405,-229.828649
116.614238,1924.535449,10510.924376,-76.609550
116.614559,1036.288319,10584.944971,-459.657299
116.614879,666.185348,10881.027347,-306.438199
116.615200,148.041188,10510.924376,0.000000
116.615521,-74.020594,10214.842000,612.876398
116.615841,0.000000,10140.821405,536.266849
116.616162,0.000000,10140.821405,766.095498
116.616483,-518.144159,10214.842000,1378.971896
116.616803,-1184.329507,10362.883188,919.314598
116.617124,-296.082377,11029.068536,1225.752797
116.617445,1036.288319,11325.150913,612.876398
116.617765,1258.350101,11029.068536,0.000000
116.618086,1554.432478,10362.883188,-536.266849
116.618407,1776.494261,10436.903782,-1149.143247
116.618727,2146.597232,9918.759623,-383.047749
116.619048,1924.535449,9400.615463,-306.438199
116.619369,2590.720797,8734.430116,229.828649
116.619689,2664.741391,8882.471304,306.438199
116.620010,2664.741391,9548.656652,-153.219100
116.620331,2368.659014,10362.883188,-153.219100
116.620651,2738.761985,10362.883188,-919.314598
116.620972,2886.803174,10510.924376,-766.095498
116.621293,3627.009116,10288.862594,-995.924147
116.621613,3330.926739,9696.697840,-842.705048
116.621934,2368.659014,9844.739029,-995.924147
116.622255,1480.411884,10362.883188,-689.485948
116.622575,888.247130,11177.109724,-153.219100
116.622896,518.144159,11399.171507,0.000000
116.623217,296.082377,11251.130318,-1302.362347
116.623537,0.000000,11029.068536,-1991.848295
116.623858,-1406.391290,10066.800811,-1532.190996
116.624179,-2072.576638,9474.636058,-306.438199
116.624499,-1702.473667,9770.718434,1378.971896
116.624820,-666.185348,11029.068536,2374.896044
116.625141,-518.144159,11991.336260,2298.286494
116.625461,0.000000,13249.686362,995.924147
116.625782,0.000000,13323.706956,306.438199
116.626103,592.164754,13027.624579,-229.828649
116.626423,1332.370696,11473.192101,-689.485948
116.626744,1184.329507,10658.965565,-1378.971896
116.627065,1554.432478,9696.697840,-842.705048
116.627385,74.020594,9770.718434,-689.485948
116.627706,-1480.411884,9326.594869,-1762.019645
116.628027,-1776.494261,9918.759623,-1302.362347
116.628347,0.000000,11843.295072,-383.047749
116.628668,962.267725,12361.439231,536.266849
116.628989,1924.535449,12435.459826,383.047749
116.629309,1628.453072,12657.521608,229.828649
116.629630,740.205942,12509.480420,-306.438199
116.629951,1184.329507,11695.253884,-459.657299
116.630271,2368.659014,9030.512492,76.609550
116.630592,2664.741391,6957.935855,-153.219100
116.630913,3182.885551,7624.121203,-76.609550
116.631233,2886.803174,9400.615463,0.000000
116.631554,2146.597232,9548.656652,153.219100
116.631875,2368.659014,9326.594869,0.000000
116.632195,3552.988522,7624.121203,459.657299
116.632516,4071.132681,5995.668130,459.657299
116.632837,4441.235652,6883.915261,689.485948
116.633157,3923.091493,8660.409521,0.000000
116.633478,3330.926739,9696.697840,-1838.629195
116.633799,4145.153275,9474.636058,-2221.676944
116.634119,4885.359217,9104.533087,-1915.238745
116.634440,5403.503377,9992.780217,-612.876398
116.634761,4737.318029,10510.924376,76.609550
116.635081,3923.091493,10584.944971,-459.657299
116.635402,3034.844362,9030.512492,-383.047749
116.635723,3330.926739,7550.100608,842.705048
116.636043,3182.885551,6661.853478,1608.800546
116.636364,2590.720797,6735.874072,1149.143247
116.636685,1702.473667,7105.977043,76.609550
116.637005,1998.556043,7328.038826,-842.705048
116.637326,3182.885551,8068.244768,-459.657299
116.637647,4663.297435,9548.656652,459.657299
116.637967,5181.441594,10732.986159,919.314598
116.638288,5403.503377,10881.027347,536.266849
116.638609,5329.482782,9252.574275,-306.438199
116.638929,4367.215058,7550.100608,-1225.752797
116.639250,4959.379811,6661.853478,-459.657299
116.639571,5773.606348,6513.812290,1072.533697
116.639891,5921.647536,7550.100608,229.828649
116.640212,6143.709319,7328.038826,-1532.190996
116.640533,6365.771101,7031.956449,-2221.676944
116.640853,6291.750507,7624.121203,-1838.629195
116.641174,5847.626942,8290.306550,-1149.143247
116.641495,6587.832884,8216.285956,-1378.971896
116.641815,6883.915261,7179.997637,-1762.019645
116.642136,5551.544565,7328.038826,-1302.362347
116.642457,5033.400406,8882.471304,0.000000
116.642777,4145.153275,10732.986159,153.219100
116.643098,2960.823768,11843.295072,-459.657299
116.643419,2812.782580,11473.192101,-612.876398
116.643739,3478.967927,9474.636058,-536.266849
116.644060,3775.050304,8660.409521,-306.438199
116.644381,2442.679609,8734.430116,-153.219100
116.644701,2368.659014,8216.285956,-766.095498
116.645022,2516.700203,7994.224174,459.657299
116.645343,3775.050304,7772.162391,1762.019645
116.645663,4663.297435,8364.327145,2987.772442
116.645984,4959.379811,9030.512492,2451.505594
116.646305,5033.400406,9326.594869,1378.971896
116.646625,6217.729913,9178.553681,-383.047749
116.646946,6217.729913,7698.141797,-2298.286494
116.647267,6735.874072,5773.606348,-3294.210641
116.647587,7105.977043,5107.421000,-1915.238745
116.647908,6365.771101,6143.709319,229.828649
116.648229,6587.832884,8216.285956,1149.143247
116.648549,7476.080014,8512.368333,766.095498
116.648870,7624.121203,8956.491898,-612.876398
116.649190,7920.203579,9770.718434,-842.705048
116.649511,7254.018232,9696.697840,-1302.362347
116.649832,5033.400406,6735.874072,-2528.115143
116.650152,4441.235652,4367.215058,-2911.162892
116.650473,5773.606348,4219.173869,-689.485948
116.650794,4293.194464,5403.503377,689.485948
116.651114,3034.844362,7476.080014,2221.676944
116.651435,3404.947333,9844.739029,1915.238745
116.651756,3701.029710,10732.986159,1762.019645
116.652076,4589.276840,9770.718434,2068.457845
116.652397,4737.318029,7772.162391,1532.190996
116.652718,3330.926739,6069.688724,-842.705048
116.653039,2812.782580,6069.688724,-1455.581446
116.653360,2960.823768,6809.894666,-612.876398
116.653681,2960.823768,7402.059420,0.000000
116.654002,4071.132681,8956.491898,1225.752797
116.654323,5181.441594,11029.068536,1302.362347
116.654644,4219.173869,11991.336260,76.609550
116.654965,3849.070898,11399.171507,-536.266849
116.655286,4293.194464,8734.430116,-766.095498
116.655607,4293.194464,6513.812290,-995.924147
116.655927,4367.215058,5551.544565,-459.657299
116.656248,3997.112087,6365.771101,0.000000
116.656569,3849.070898,7179.997637,153.219100
116.656890,5181.441594,8956.491898,1072.533697
116.657211,6217.729913,9696.697840,995.924147
116.657532,6143.709319,8808.450710,-919.314598
116.657853,6143.709319,7698.141797,-1762.019645
116.658174,6069.688724,7105.977043,-2221.676944
116.658495,5699.585753,6217.729913,-1762.019645
116.658816,5551.544565,6809.894666,-1302.362347
116.659137,5773.606348,7550.100608,-842.705048
116.659458,5107.421000,9474.636058,306.438199
116.659778,5477.523971,10436.903782,766.095498
116.660099,5329.482782,9918.759623,-383.047749
116.660420,4737.318029,8956.491898,-1302.362347
116.660741,4515.256246,7402.059420,-1532.190996
116.661062,4441.235652,7328.038826,-459.657299
116.661383,3849.070898,7105.977043,153.219100
116.661704,4737.318029,7402.059420,1378.971896
116.662025,5107.421000,7994.224174,2604.724693
116.662346,4589.276840,8216.285956,1378.971896
116.662667,4367.215058,9474.636058,153.219100
116.662988,4663.297435,9548.656652,-995.924147
116.663309,5551.544565,8290.306550,-1225.752797
116.663629,6291.750507,7550.100608,0.000000
116.663950,5699.585753,7550.100608,-995.924147
116.664271,5477.523971,8364.327145,-1225.752797
116.664592,4885.359217,9622.677246,306.438199
116.664913,5773.606348,10066.800811,689.485948
116.665234,6735.874072,9622.677246,536.266849
116.665555,6217.729913,8882.471304,0.000000
116.665876,5181.441594,7772.162391,-1685.410096
116.666197,4737.318029,6513.812290,-1838.629195
116.666518,5773.606348,6217.729913,-1225.752797
116.666839,5625.565159,6439.791695,-306.438199
116.667160,5477.523971,6365.771101,612.876398
116.667480,5921.647536,7920.203579,1532.190996
116.667801,5477.523971,9178.553681,1838.629195
116.668122,4959.379811,9178.553681,612.876398
116.668443,5107.421000,7698.141797,-1149.143247
116.668764,4737.318029,6587.832884,-1915.238745
116.669085,5255.462188,6661.853478,-1149.143247
116.669406,4737.318029,6809.894666,-306.438199
116.669727,4589.276840,7402.059420,306.438199
116.670048,5477.523971,8068.244768,1149.143247
116.670369,5477.523971,9030.512492,1302.362347
116.670690,5551.544565,8734.430116,306.438199
116.671011,5403.503377,7179.997637,-612.876398
116.671331,5329.482782,6143.709319,-306.438199
116.671652,5329.482782,5551.544565,-229.828649
116.671973,5329.482782,5773.606348,0.000000
116.672294,5921.647536,6143.709319,0.000000
116.672615,6513.812290,7105.977043,536.266849
116.672936,6587.832884,7920.203579,919.314598
116.673257,6661.853478,9030.512492,842.705048
116.673578,5773.606348,8438.347739,-153.219100
116.673899,5551.544565,7402.059420,-1149.143247
116.674220,5699.585753,6661.853478,-1378.971896
116.674541,5921.647536,6513.812290,-536.266849
116.674861,5181.441594,6883.915261,0.000000
116.675182,4959.379811,7994.224174,612.876398
116.675503,5107.421000,9474.636058,1072.533697
116.675824,5033.400406,9844.739029,842.705048
116.676145,4737.318029,9474.636058,0.000000
116.676466,5255.462188,8142.265362,-919.314598
116.676787,4589.276840,6957.935855,-306.438199
116.677108,4737.318029,6513.812290,76.609550
116.677429,4737.318029,6883.915261,842.705048
116.677750,4885.359217,7550.100608,1225.752797
116.678071,5107.421000,9030.512492,1762.019645
116.678392,5477.523971,9992.780217,1072.533697
116.678712,4737.318029,10140.821405,-306.438199
116.679033,4441.235652,9030.512492,-1072.533697
116.679354,4737.318029,7105.977043,-995.924147
116.679675,4737.318029,6439.791695,-76.609550
116.679996,4737.318029,7698.141797,0.000000
116.680317,4737.318029,9030.512492,-153.219100
116.680638,4737.318029,9622.677246,-536.266849
116.680959,4959.379811,9770.718434,-306.438199
116.681280,5847.626942,10066.800811,459.657299
116.681601,4811.338623,9326.594869,-229.828649
116.681922,3552.988522,7476.080014,-1455.581446
116.682243,4219.173869,5847.626942,-1225.752797
116.682563,3997.112087,5625.565159,-1072.533697
116.682884,3849.070898,6439.791695,-612.876398
116.683205,4885.359217,8068.244768,766.095498
116.683526,5329.482782,9178.553681,689.485948
116.683847,5921.647536,10510.924376,766.095498
116.684168,5403.503377,9770.718434,0.000000
116.684489,4589.276840,7105.977043,-1685.410096
116.684810,4959.379811,6069.688724,-1838.629195
116.685131,5699.585753,6809.894666,-1072.533697
116.685452,6143.709319,7550.100608,-919.314598
116.685773,5995.668130,7846.182985,-612.876398
116.686094,6439.791695,8734.430116,383.047749
116.686414,6513.812290,9770.718434,536.266849
116.686735,5921.647536,10066.800811,1072.533697
116.687056,5403.503377,8216.285956,-459.657299
116.687377,4959.379811,5995.668130,-1378.971896
116.687698,5255.462188,4959.379811,0.000000
116.688019,5329.482782,5477.523971,842.705048
116.688340,5329.482782,6291.750507,383.047749
116.688661,5625.565159,7476.080014,306.438199
116.688982,6365.771101,8956.491898,0.000000
116.689303,6217.729913,8956.491898,0.000000
116.689624,6735.874072,8660.409521,383.047749
116.689945,6217.729913,7624.121203,-383.047749
116.690265,5625.565159,6513.812290,-1149.143247
116.690586,5995.668130,7105.977043,-1302.362347
116.690907,5847.626942,7550.100608,-919.314598
116.691228,5699.585753,8216.285956,-306.438199
116.691549,6291.750507,8956.491898,919.314598
116.691870,6217.729913,9400.615463,995.924147
116.692191,4737.318029,9326.594869,-229.828649
116.692512,3997.112087,7254.018232,-1991.848295
116.692833,3849.070898,6217.729913,-1378.971896
116.693154,4589.276840,5107.421000,76.609550
116.693475,5329.482782,5847.626942,1149.143247
116.693796,5107.421000,7328.038826,995.924147
116.694116,4737.318029,8734.430116,229.828649
116.694437,4737.318029,10214.842000,306.438199
116.694758,5403.503377,9992.780217,306.438199
116.695079,5181.441594,8216.285956,-306.438199
116.695400,5255.462188,6587.832884,-995.924147
116.695721,4737.318029,6513.812290,-1608.800546
116.696042,4071.132681,7328.038826,-1608.800546
116.696363,4145.153275,8512.368333,-612.876398
116.696684,5551.544565,9252.574275,0.000000
116.697005,6365.771101,9696.697840,536.266849
116.697326,5847.626942,9918.759623,383.047749
116.697647,4145.153275,8808.450710,-766.095498
116.697967,4219.173869,7402.059420,-612.876398
116.698288,4367.215058,7105.977043,0.000000
116.698609,4367.215058,6513.812290,76.609550
116.698930,4959.379811,6809.894666,-306.438199
116.699251,4811.338623,7550.100608,0.000000
116.699572,4663.297435,9770.718434,842.705048
116.699893,5255.462188,10066.800811,1455.581446
116.700214,4885.359217,9548.656652,0.000000
116.700535,4959.379811,8216.285956,-612.876398
116.700856,4737.318029,7402.059420,-1225.752797
116.701177,4737.318029,7328.038826,-689.485948
116.701498,4811.338623,8068.244768,-612.876398
116.701818,5033.400406,8956.491898,0.000000
116.702139,5181.441594,9178.553681,459.657299
116.702460,5255.462188,9918.759623,536.266849
116.702781,4737.318029,9918.759623,842.705048
116.703102,4293.194464,9326.594869,0.000000
116.703423,4293.194464,7772.162391,-383.047749
116.703744,3849.070898,6069.688724,0.000000
116.704065,4071.132681,6291.750507,0.000000
116.704386,4811.338623,7328.038826,689.485948
116.704707,4589.276840,8808.450710,1149.143247
116.705028,4589.276840,9548.656652,766.095498
116.705349,4959.379811,9326.594869,-76.609550
116.705669,4441.235652,8068.244768,-612.876398
116.705990,4367.215058,7105.977043,-459.657299
116.706311,5107.421000,7105.977043,-612.876398
116.706632,5477.523971,7179.997637,-1149.143247
116.706953,5033.400406,8142.265362,-1302.362347
116.707274,5403.503377,8512.368333,-689.485948
116.707595,5403.503377,9178.553681,0.000000
116.707916,5699.585753,9104.533087,306.438199
116.708237,5033.400406,8882.471304,-536.266849
116.708558,4441.235652,7994.224174,-1608.800546
116.708879,3923.091493,6291.750507,-1532.190996
116.709199,4885.359217,5699.585753,-689.485948
116.709520,4959.379811,6661.853478,0.000000
116.709841,4589.276840,7846.182985,842.705048
116.710162,4515.256246,8660.409521,1225.752797
116.710483,5033.400406,8734.430116,919.314598
116.710804,5181.441594,8660.409521,306.438199
116.711125,5625.565159,8364.327145,-536.266849
116.711446,4959.379811,7402.059420,-1685.410096
116.711767,4737.318029,6957.935855,-1378.971896
116.712088,5551.544565,7328.038826,-1225.752797
116.712409,5477.523971,7994.224174,-383.047749
116.712730,5477.523971,8512.368333,229.828649
116.713050,6069.688724,9252.574275,383.047749
116.713371,5551.544565,9992.780217,-383.047749
116.713692,5033.400406,9178.553681,-1225.752797
116.714013,5107.421000,8068.244768,-766.095498
116.714334,4737.318029,6957.935855,0.000000
116.714655,4885.359217,6661.853478,383.047749
116.714976,4663.297435,7254.018232,689.485948
116.715297,4145.153275,7550.100608,-153.219100
116.715618,4515.256246,9178.553681,-306.438199
116.715939,4959.379811,10140.821405,612.876398
116.716260,4515.256246,9474.636058,995.924147
116.716581,4589.276840,8290.306550,536.266849
116.716901,4293.194464,7624.121203,-919.314598
116.717222,4293.194464,8216.285956,-1378.971896
116.717543,3775.050304,8512.368333,-1225.752797
116.717864,4219.173869,8586.388927,-1072.533697
116.718185,4663.297435,9104.533087,0.000000
116.718506,4737.318029,9918.759623,1149.143247
116.718827,4441.235652,10881.027347,383.047749
116.719148,3108.864956,9178.553681,-689.485948
116.719469,3330.926739,7328.038826,-1225.752797
116.719790,3997.112087,6513.812290,-383.047749
116.720111,3701.029710,5921.647536,306.438199
116.720432,4293.194464,7105.977043,919.314598
116.720752,4737.318029,9474.636058,766.095498
116.721073,4367.215058,9992.780217,1149.143247
116.721394,3923.091493,9474.636058,-76.609550
116.721715,4367.215058,8512.368333,-1149.143247
116.722036,3997.112087,7772.162391,-383.047749
116.722357,3701.029710,6957.935855,0.000000
116.722678,4145.153275,6735.874072,-306.438199
116.722999,3849.070898,7846.182985,-1225.752797
116.723320,3701.029710,8586.388927,-383.047749
116.723641,4737.318029,9770.718434,0.000000
116.723962,5329.482782,10510.924376,-76.609550
116.724283,4959.379811,9696.697840,-306.438199
116.724603,5551.544565,7772.162391,-153.219100
116.724924,4959.379811,6291.750507,-76.609550
116.725245,4737.318029,5477.523971,0.000000
116.725566,5477.523971,6365.771101,383.047749
116.725887,5847.626942,7105.977043,76.609550
116.726208,5773.606348,7402.059420,153.219100
116.726529,7031.956449,7846.182985,919.314598
116.726850,6883.915261,8586.388927,612.876398
116.727171,5995.668130,8068.244768,153.219100
116.727492,6365.771101,7254.018232,-689.485948
116.727813,6143.709319,6365.771101,-1915.238745
116.728134,5921.647536,6365.771101,-2221.676944
116.728454,6069.688724,7476.080014,-689.485948
116.728775,5995.668130,9400.615463,306.438199
116.729096,6143.709319,10214.842000,766.095498
116.729417,6587.832884,9770.718434,153.219100
116.729738,5403.503377,8290.306550,-842.705048
116.730059,4071.132681,6735.874072,-306.438199
116.730380,4145.153275,6809.894666,0.000000
116.730701,4071.132681,6957.935855,383.047749
116.731022,3997.112087,7105.977043,536.266849
116.731343,5403.503377,7476.080014,919.314598
116.731664,4589.276840,8216.285956,1302.362347
116.731985,4441.235652,9696.697840,842.705048
116.732305,3775.050304,10732.986159,0.000000
116.732626,3552.988522,9030.512492,-1225.752797
116.732947,4441.235652,7105.977043,-1685.410096
116.733268,5625.565159,7179.997637,-766.095498
116.733589,4219.173869,7772.162391,-995.924147
116.733910,3775.050304,9400.615463,-995.924147
116.734231,3849.070898,10732.986159,-306.438199
116.734552,3997.112087,10732.986159,383.047749
116.734873,4441.235652,9622.677246,383.047749
116.735194,4219.173869,8586.388927,-229.828649
116.735515,3182.885551,8660.409521,-995.924147
116.735836,2812.782580,8068.244768,-612.876398
116.736156,3108.864956,7254.018232,-1072.533697
116.736477,3701.029710,6957.935855,-153.219100
116.736798,3627.009116,7698.141797,2068.457845
116.737119,4515.256246,9992.780217,2834.553343
116.737440,4071.132681,10510.924376,842.705048
116.737761,4071.132681,9474.636058,-1762.019645
116.738082,5181.441594,7624.121203,-2145.067394
116.738403,5033.400406,6513.812290,-1378.971896
116.738724,5255.462188,6217.729913,0.000000
116.739045,5255.462188,7624.121203,536.266849
116.739366,5329.482782,9104.533087,0.000000
116.739686,5107.421000,9696.697840,-536.266849
116.740007,5551.544565,9696.697840,-766.095498
116.740328,6661.853478,9252.574275,-306.438199
116.740649,6143.709319,8290.306550,153.219100
116.740970,5551.544565,6513.812290,536.266849
116.741291,5181.441594,4811.338623,-229.828649
116.741612,5255.462188,4737.318029,229.828649
116.741933,5181.441594,6365.771101,995.924147
116.742254,6143.709319,7994.224174,1762.019645
116.742575,6217.729913,8734.430116,995.924147
116.742896,6661.853478,8808.450710,229.828649
116.743217,6513.812290,7328.038826,-306.438199
116.743537,5329.482782,5699.585753,-1072.533697
116.743858,5255.462188,5847.626942,-1378.971896
116.744179,5255.462188,6365.771101,-1225.752797
116.744500,5477.523971,7254.018232,-536.266849
116.744821,6217.729913,8808.450710,0.000000
116.745142,6291.750507,9844.739029,842.705048
116.745463,5847.626942,11251.130318,536.266849
116.745784,4441.235652,9770.718434,-612.876398
116.746105,3701.029710,7698.141797,-2145.067394
116.746426,4071.132681,5847.626942,-1072.533697
116.746747,4663.297435,5181.441594,689.485948
116.747068,4589.276840,5699.585753,2068.457845
116.747388,3849.070898,7476.080014,2374.896044
116.747709,4293.194464,9474.636058,2068.457845
116.748030,4811.338623,9622.677246,919.314598
116.748351,4811.338623,8808.450710,-995.924147
116.748668,4885.359217,6809.894666,-1608.800546
116.748988,5403.503377,6143.709319,-1762.019645
116.749309,6291.750507,7031.956449,-766.095498
116.749630,5477.523971,7550.100608,-766.095498
116.749950,5181.441594,8512.368333,-306.438199
116.750271,5699.585753,10140.821405,-383.047749
116.750592,5403.503377,11325.150913,-76.609550
116.750913,4959.379811,10362.883188,-689.485948
116.751233,5551.544565,8216.285956,-1608.800546
116.751554,5181.441594,6217.729913,-1838.629195
116.751875,4663.297435,5551.544565,-1378.971896
116.752196,4663.297435,6513.812290,0.000000
116.752516,4145.153275,7698.141797,919.314598
116.752837,3849.070898,8438.347739,1838.629195
116.753158,5551.544565,9474.636058,2145.067394
116.753478,6069.688724,9474.636058,689.485948
116.753799,4737.318029,9548.656652,-689.485948
116.754120,5255.462188,8364.327145,-1302.362347
116.754441,4811.338623,7402.059420,-2145.067394
116.754761,4737.318029,7031.956449,-1302.362347
116.755082,4737.318029,7254.018232,-229.828649
116.755403,5699.585753,9252.574275,383.047749
116.755724,5625.565159,10658.965565,1455.581446
116.756044,5403.503377,11103.089130,612.876398
116.756365,5107.421000,9030.512492,-995.924147
116.756686,5181.441594,7179.997637,-1225.752797
116.757006,5107.421000,6661.853478,0.000000
116.757327,5033.400406,6217.729913,459.657299
116.757648,5107.421000,6217.729913,229.828649
116.757969,5773.606348,6661.853478,0.000000
116.758289,5551.544565,7772.162391,1072.533697
116.758610,6513.812290,9104.533087,1149.143247
116.758931,5773.606348,9400.615463,-153.219100
116.759251,5329.482782,7624.121203,-1685.410096
116.759572,6365.771101,6513.812290,-2374.896044
116.759893,6291.750507,5995.668130,-1838.629195
116.760214,4811.338623,5847.626942,-842.705048
116.760534,5477.523971,7846.182985,76.609550
116.760855,5773.606348,9400.615463,1378.971896
116.761176,4737.318029,9548.656652,689.485948
116.761497,5181.441594,8882.471304,-306.438199
116.761817,4811.338623,7846.182985,-766.095498
116.762138,4071.132681,6809.894666,-1072.533697
116.762459,4663.297435,6217.729913,76.609550
116.762779,5255.462188,5847.626942,229.828649
116.763100,4885.359217,6809.894666,612.876398
116.763421,4959.379811,7846.182985,1991.848295
116.763742,5255.462188,8956.491898,1915.238745
116.764062,5551.544565,8438.347739,1608.800546
116.764383,5995.668130,7920.203579,-536.266849
116.764704,5921.647536,6735.874072,-1838.629195
116.765025,5477.523971,6217.729913,-1915.238745
116.765345,5255.462188,6587.832884,-1072.533697
116.765666,5699.585753,7476.080014,-229.828649
116.765987,5329.482782,8660.409521,766.095498
116.766307,5847.626942,9474.636058,1455.581446
116.766628,5847.626942,9696.697840,153.219100
116.766949,5625.565159,8882.471304,-536.266849
116.767270,5033.400406,7772.162391,-612.876398
116.767590,4959.379811,6513.812290,-1378.971896
116.767911,5181.441594,5551.544565,-919.314598
116.768232,5995.668130,6513.812290,0.000000
116.768553,5699.585753,7624.121203,1225.752797
116.768873,5403.503377,8956.491898,1302.362347
116.769194,5995.668130,9474.636058,1378.971896
116.769515,5477.523971,9548.656652,76.609550
116.769835,5329.482782,8882.471304,-1302.362347
116.770156,5181.441594,7624.121203,-1378.971896
116.770477,4885.359217,6809.894666,-1685.410096
116.770798,4367.215058,7476.080014,-995.924147
116.771118,4441.235652,9030.512492,229.828649
116.771439,4219.173869,10362.883188,766.095498
116.771760,4293.194464,10288.862594,1225.752797
116.772081,4293.194464,9474.636058,842.705048
116.772401,3775.050304,8808.450710,-689.485948
116.772722,2442.679609,7698.141797,-1378.971896
116.773043,2516.700203,7698.141797,-1608.800546
116.773363,3478.967927,7846.182985,-766.095498
116.773684,4737.318029,8438.347739,919.314598
116.774005,4589.276840,8734.430116,1838.629195
116.774326,3997.112087,9474.636058,1302.362347
116.774646,3256.906145,10066.800811,153.219100
116.774967,3182.885551,10214.842000,-1149.143247
116.775288,4219.173869,7846.182985,-1455.581446
116.775609,5551.544565,6957.935855,-1378.971896
116.775929,5625.565159,7179.997637,-306.438199
116.776250,4515.256246,7994.224174,-612.876398
116.776571,3849.070898,8512.368333,-153.219100
116.776891,4589.276840,9104.533087,76.609550
116.777212,5625.565159,9178.553681,536.266849
116.777533,6513.812290,8142.265362,306.438199
116.777854,6439.791695,7550.100608,-689.485948
116.778174,5477.523971,7031.956449,-1685.410096
116.778495,5181.441594,5921.647536,-1149.143247
116.778816,5847.626942,5329.482782,-229.828649
116.779137,7105.977043,5921.647536,459.657299
116.779457,6587.832884,7105.977043,1302.362347
116.779778,6883.915261,8142.265362,919.314598
116.780099,7402.059420,8512.368333,536.266849
116.780419,6513.812290,7328.038826,-842.705048
116.780740,6439.791695,5847.626942,-1532.190996
116.781061,6735.874072,5847.626942,-1072.533697
116.781382,6217.729913,6439.791695,-612.876398
116.781702,5403.503377,7402.059420,-689.485948
116.782023,6587.832884,8512.368333,-306.438199
116.782344,5773.606348,8660.409521,229.828649
116.782665,5699.585753,8956.491898,76.609550
116.782985,6439.791695,8364.327145,229.828649
116.783306,4811.338623,7550.100608,-919.314598
116.783627,4293.194464,6439.791695,-1072.533697
116.783947,4885.359217,5921.647536,0.000000
116.784268,4811.338623,6291.750507,229.828649
116.784589,5255.462188,7698.141797,1378.971896
116.784910,5477.523971,9326.594869,1455.581446
116.785230,4737.318029,10140.821405,76.609550
116.785551,4441.235652,9178.553681,-383.047749
116.785872,4515.256246,7920.203579,-1225.752797
116.786193,3997.112087,7031.956449,-1991.848295
116.786513,4441.235652,6957.935855,-766.095498
116.786834,4885.359217,8660.409521,-536.266849
116.787155,4515.256246,9696.697840,-459.657299
116.787475,3701.029710,10288.862594,0.000000
116.787796,3997.112087,10955.047942,842.705048
116.788117,3627.009116,10510.924376,306.438199
116.788438,3330.926739,8882.471304,-459.657299
116.788758,3923.091493,7328.038826,-1455.581446
116.789079,3775.050304,6809.894666,-1685.410096
116.789400,3923.091493,7179.997637,-689.485948
116.789721,4441.235652,8512.368333,995.924147
116.790041,4515.256246,9178.553681,1378.971896
116.790362,4219.173869,9622.677246,689.485948
116.790683,4959.379811,9326.594869,153.219100
116.791003,4663.297435,8586.388927,-995.924147
116.791324,4441.235652,7624.121203,-1225.752797
116.791645,4737.318029,7402.059420,-1302.362347
116.791966,4441.235652,7698.141797,-2221.676944
116.792286,4737.318029,9030.512492,-1302.362347
116.792607,5033.400406,9770.718434,612.876398
116.792928,4737.318029,10510.924376,995.924147
116.793249,4959.379811,10140.821405,1149.143247
116.793569,4811.338623,9326.594869,229.828649
116.793890,4219.173869,7550.100608,-1378.971896
116.794211,4219.173869,6365.771101,-995.924147
116.794531,4811.338623,6439.791695,0.000000
116.794852,4737.318029,6661.853478,459.657299
116.795173,4885.359217,7179.997637,1225.752797
116.795494,5477.523971,8142.265362,1838.629195
116.795814,5995.668130,9474.636058,842.705048
116.796135,5255.462188,8882.471304,536.266849
116.796456,5477.523971,7105.977043,-766.095498
116.796777,4885.359217,5921.647536,-2221.676944
116.797097,5625.565159,6143.709319,-2068.457845
116.797418,5773.606348,7105.977043,-995.924147
116.797739,6217.729913,8660.409521,-536.266849
116.798059,6809.894666,9474.636058,612.876398
116.798380,6513.812290,9770.718434,459.657299
116.798701,5699.585753,7846.182985,306.438199
116.799022,5033.400406,7105.977043,-612.876398
116.799342,4589.276840,6439.791695,-1149.143247
116.799663,4293.194464,5921.647536,-1225.752797
116.799984,5329.482782,5551.544565,-612.876398
116.800305,5181.441594,6957.935855,153.219100
116.800625,4737.318029,7994.224174,766.095498
116.800946,4441.235652,9030.512492,1225.752797
116.801267,4589.276840,9770.718434,842.705048
116.801587,4071.132681,8512.368333,76.609550
116.801908,4515.256246,7328.038826,-766.095498
116.802229,4885.359217,6809.894666,-1685.410096
116.802550,4663.297435,7476.080014,-2604.724693
116.802870,4441.235652,8882.471304,-1302.362347
116.803191,4737.318029,9622.677246,0.000000
116.803512,5107.421000,9696.697840,995.924147
116.803833,5107.421000,9696.697840,1225.752797
116.804153,4589.276840,9252.574275,229.828649
116.804474,3701.029710,8734.430116,-536.266849
116.804795,3552.988522,7624.121203,-1378.971896
116.805115,3923.091493,7031.956449,-1838.629195
116.805436,4441.235652,7179.997637,76.609550
116.805757,5329.482782,8512.368333,1225.752797
116.806078,4663.297435,9474.636058,1455.581446
116.806398,4293.194464,10288.862594,689.485948
116.806719,4885.359217,9696.697840,-229.828649
116.807040,4293.194464,8808.450710,-995.924147
116.807361,4589.276840,7476.080014,-1149.143247
116.807681,4959.379811,7476.080014,-842.705048
116.808002,4959.379811,8808.450710,-766.095498
116.808323,4293.194464,9104.533087,-1149.143247
116.808643,4441.235652,9770.718434,0.000000
116.808964,4663.297435,10140.821405,919.314598
116.809285,5107.421000,9696.697840,1072.533697
116.809606,4589.276840,8512.368333,306.438199
116.809926,4589.276840,7254.018232,-1225.752797
116.810247,3997.112087,7179.997637,-1302.362347
116.810568,4145.153275,7179.997637,-536.266849
116.810889,4737.318029,7920.203579,536.266849
116.811209,5329.482782,8290.306550,842.705048
116.811530,5625.565159,8512.368333,1455.581446
116.811851,5551.544565,8956.491898,995.924147
116.812171,4663.297435,8438.347739,306.438199
116.812492,4219.173869,7402.059420,-1378.971896
116.812813,5107.421000,6957.935855,-1991.848295
116.813134,5033.400406,7105.977043,-1302.362347
116.813454,4737.318029,7031.956449,-536.266849
116.813775,4885.359217,7550.100608,689.485948
116.814096,5181.441594,8290.306550,919.314598
116.814417,4959.379811,9178.553681,689.485948
116.814737,4737.318029,9104.533087,153.219100
116.815058,4737.318029,7624.121203,-995.924147
116.815379,4959.379811,6365.771101,-1608.800546
116.815699,5329.482782,6809.894666,-1149.143247
116.816020,5255.462188,6957.935855,-689.485948
116.816341,5551.544565,7105.977043,-383.047749
116.816662,5699.585753,7550.100608,842.705048
116.816982,6217.729913,8586.388927,1149.143247
116.817303,6143.709319,8734.430116,1225.752797
116.817624,5403.503377,7698.141797,76.609550
116.817945,5921.647536,7105.977043,-1302.362347
116.818265,5847.626942,6365.771101,-1532.190996
116.818586,5551.544565,6069.688724,-1532.190996
116.818907,5699.585753,7402.059420,-383.047749
116.819227,6069.688724,9030.512492,995.924147
116.819548,4737.318029,9770.718434,1149.143247
116.819869,5699.585753,9622.677246,766.095498
116.820190,6143.709319,8808.450710,-766.095498
116.820510,4959.379811,7105.977043,-1225.752797
116.820831,4663.297435,6809.894666,-1608.800546
116.821152,4885.359217,7031.956449,0.000000
116.821473,4441.235652,7328.038826,-306.438199
116.821793,5255.462188,7920.203579,1455.581446
116.822114,5255.462188,8808.450710,1225.752797
116.822435,4071.132681,9548.656652,689.485948
116.822755,4515.256246,9918.759623,76.609550
116.823076,4959.379811,8882.471304,-995.924147
116.823397,4145.153275,7105.977043,-1838.629195
116.823718,4811.338623,6883.915261,-1225.752797
116.824038,4367.215058,8438.347739,-995.924147
116.824359,4367.215058,9474.636058,306.438199
116.824680,4441.235652,10584.944971,842.705048
116.825001,5255.462188,10214.842000,76.609550
116.825321,4515.256246,9252.574275,229.828649
116.825642,4515.256246,8808.450710,0.000000
116.825963,3849.070898,7920.203579,-842.705048
116.826283,3701.029710,7105.977043,-1072.533697
116.826604,3997.112087,7254.018232,-383.047749
116.826925,4367.215058,7254.018232,76.609550
116.827246,4663.297435,8216.285956,1455.581446
116.827566,4811.338623,9770.718434,1685.410096
116.827887,4367.215058,9326.594869,459.657299
116.828208,4885.359217,8290.306550,-536.266849
116.828529,5255.462188,6735.874072,-1608.800546
116.828849,4441.235652,5995.668130,-1915.238745
116.829170,4663.297435,6513.812290,-1378.971896
116.829491,5625.565159,8216.285956,-229.828649
116.829811,5477.523971,9400.615463,0.000000
116.830132,5847.626942,9548.656652,0.000000
116.830453,5773.606348,9992.780217,-306.438199
116.830774,5551.544565,9178.553681,0.000000
116.831094,4959.379811,8438.347739,0.000000
116.831415,5033.400406,5995.668130,-536.266849
116.831736,5033.400406,4515.256246,-689.485948
116.832057,5107.421000,5625.565159,153.219100
116.832377,5921.647536,7402.059420,1608.800546
116.832698,5995.668130,8512.368333,1915.238745
116.833019,6735.874072,8808.450710,1225.752797
116.833339,7105.977043,8290.306550,229.828649
116.833660,6957.935855,6439.791695,-459.657299
116.833981,5625.565159,5625.565159,-689.485948
116.834302,6069.688724,5921.647536,-459.657299
116.834622,6587.832884,7105.977043,-1378.971896
116.834943,6735.874072,8216.285956,-1225.752797
116.835264,6735.874072,8734.430116,-459.657299
116.835585,6291.750507,9696.697840,383.047749
116.835905,5773.606348,9770.718434,842.705048
116.836226,5033.400406,8290.306550,459.657299
116.836547,4737.318029,6069.688724,-383.047749
116.836867,4737.318029,5255.462188,-766.095498
116.837188,4219.173869,5773.606348,-766.095498
116.837509,4145.153275,7105.977043,689.485948
116.837830,4737.318029,8290.306550,1072.533697
116.838150,4885.359217,9030.512492,1378.971896
116.838471,5477.523971,8808.450710,766.095498
116.838792,4959.379811,8364.327145,229.828649
116.839113,4293.194464,7698.141797,-1072.533697
116.839433,4071.132681,7254.018232,-1991.848295
116.839754,4441.235652,7772.162391,-2374.896044
116.840075,4663.297435,8216.285956,-1532.190996
116.840395,5699.585753,9400.615463,153.219100
116.840716,4885.359217,10288.862594,919.314598
116.841037,4071.132681,10658.965565,689.485948
116.841358,3775.050304,9992.780217,0.000000
116.841678,3849.070898,8290.306550,-612.876398
116.841999,3775.050304,7031.956449,-842.705048
116.842320,4071.132681,6587.832884,0.000000
116.842641,4219.173869,7254.018232,229.828649
116.842961,4515.256246,8438.347739,612.876398
116.843282,4145.153275,9178.553681,1149.143247
116.843603,4367.215058,9770.718434,766.095498
116.843923,4811.338623,9696.697840,766.095498
116.844244,4737.318029,8290.306550,153.219100
116.844565,4663.297435,7105.977043,-995.924147
116.844886,4885.359217,6883.915261,-1608.800546
116.845206,5255.462188,7328.038826,-1915.238745
116.845527,5329.482782,8512.368333,-1302.362347
116.845848,5995.668130,9252.574275,-153.219100
116.846169,6587.832884,10140.821405,536.266849
116.846489,6217.729913,10658.965565,995.924147
116.846810,5773.606348,9252.574275,-306.438199
116.847131,5773.606348,7179.997637,-766.095498
116.847451,5255.462188,5699.585753,-995.924147
116.847772,5033.400406,5699.585753,-383.047749
116.848093,5995.668130,6587.832884,536.266849
116.848414,5551.544565,6957.935855,995.924147
116.848734,6069.688724,7994.224174,1762.019645
116.849055,6513.812290,7994.224174,1838.629195
116.849376,6069.688724,7328.038826,612.876398
116.849697,5699.585753,7254.018232,0.000000
116.850017,5625.565159,6587.832884,-1225.752797
116.850338,5551.544565,6957.935855,-2451.505594
116.850659,6513.812290,6439.791695,-1608.800546
116.850979,6735.874072,7476.080014,-919.314598
116.851300,6587.832884,8512.368333,536.266849
116.851621,5995.668130,9548.656652,536.266849
116.851942,5329.482782,9474.636058,612.876398
116.852263,4737.318029,7846.182985,-383.047749
116.852584,5255.462188,6365.771101,153.219100
116.852904,4663.297435,5995.668130,-153.219100
116.853225,4071.132681,5921.647536,-766.095498
116.853546,4367.215058,7105.977043,0.000000
116.853867,5033.400406,7550.100608,1149.143247
116.854188,4885.359217,7994.224174,1378.971896
116.854508,4811.338623,7846.182985,1455.581446
116.854829,4515.256246,8290.306550,-536.266849
116.855150,4145.153275,8364.327145,-1455.581446
116.855471,4515.256246,7698.141797,-1302.362347
116.855792,4737.318029,7550.100608,-2068.457845
116.856112,5403.503377,7920.203579,-1225.752797
116.856433,4959.379811,8882.471304,-536.266849
116.856754,4367.215058,10140.821405,0.000000
116.857075,4145.153275,11103.089130,-229.828649
116.857396,4441.235652,10066.800811,76.609550
116.857717,4515.256246,7920.203579,0.000000
116.858037,4293.194464,7031.956449,-306.438199
116.858358,4145.153275,7328.038826,-306.438199
116.858679,3775.050304,7846.182985,-383.047749
116.859000,4219.173869,8660.409521,0.000000
116.859321,4885.359217,8734.430116,1532.190996
116.859641,4737.318029,8364.327145,2068.457845
116.859962,5181.441594,8956.491898,1455.581446
116.860283,4663.297435,8882.471304,0.000000
116.860604,4441.235652,8882.471304,-2145.067394
116.860925,4441.235652,7698.141797,-2221.676944
116.861245,5181.441594,7624.121203,-1991.848295
116.861566,5551.544565,8586.388927,-536.266849
116.861887,5699.585753,9696.697840,689.485948
116.862208,5033.400406,10807.006753,689.485948
116.862529,4959.379811,10066.800811,76.609550
116.862850,4367.215058,8882.471304,0.000000
116.863170,4441.235652,7179.997637,-459.657299
116.863491,4145.153275,6439.791695,-689.485948
116.863812,4367.215058,6957.935855,-459.657299
116.864133,5107.421000,7105.977043,383.047749
116.864454,5625.565159,7624.121203,612.876398
116.864774,5033.400406,8142.265362,536.266849
116.865095,5033.400406,7846.182985,1685.410096
116.865416,5847.626942,7920.203579,1762.019645
116.865737,6143.709319,7179.997637,153.219100
116.866058,4811.338623,6069.688724,-1685.410096
116.866379,5625.565159,6217.729913,-2834.553343
116.866699,5699.585753,7254.018232,-2145.067394
116.867020,5255.462188,8438.347739,-766.095498
116.867341,5773.606348,8882.471304,153.219100
116.867662,5847.626942,9326.594869,229.828649
116.867983,5255.462188,9252.574275,76.609550
116.868303,4663.297435,8882.471304,76.609550
116.868624,4293.194464,7328.038826,-766.095498
116.868945,3997.112087,5995.668130,-1378.971896
116.869266,4663.297435,5995.668130,-383.047749
116.869587,5107.421000,6143.709319,995.924147
116.869907,4737.318029,6809.894666,1608.800546
116.870228,4885.359217,7920.203579,1149.143247
116.870549,4885.359217,8956.491898,689.485948
116.870870,4885.359217,8142.265362,-306.438199
116.871191,5551.544565,7105.977043,-612.876398
116.871512,6365.771101,7105.977043,-766.095498
116.871832,5477.523971,7624.121203,-1608.800546
116.872153,5551.544565,7920.203579,-1608.800546
116.872474,5625.565159,8956.491898,-1149.143247
116.872795,5551.544565,9696.697840,153.219100
116.873116,6291.750507,9844.739029,842.705048
116.873436,6143.709319,9252.574275,383.047749
116.873757,4737.318029,7920.203579,-306.438199
116.874078,3997.112087,7476.080014,-689.485948
116.874399,3997.112087,7328.038826,-842.705048
116.874720,4219.173869,7550.100608,-383.047749
116.875041,4515.256246,7920.203579,306.438199
116.875361,4737.318029,8142.265362,2298.286494
116.875682,4589.276840,9104.533087,2604.724693
116.876003,4737.318029,9548.656652,1915.238745
116.876324,3775.050304,9104.533087,-229.828649
116.876645,4071.132681,7994.224174,-2068.457845
116.876965,4663.297435,7476.080014,-2221.676944
116.877286,4959.379811,7846.182985,-1608.800546
116.877607,5551.544565,9178.553681,-689.485948
116.877928,5403.503377,9844.739029,-306.438199
116.878249,4737.318029,10584.944971,-229.828649
116.878569,4293.194464,10584.944971,0.000000
116.878890,4071.132681,8956.491898,229.828649
116.879211,3997.112087,7920.203579,-76.609550
116.879532,4071.132681,7031.956449,-766.095498
116.879853,4219.173869,6661.853478,-995.924147
116.880174,4071.132681,6365.771101,-536.266849
116.880494,4219.173869,7031.956449,383.047749
116.880815,4737.318029,8586.388927,1302.362347
116.881136,4737.318029,9400.615463,1455.581446
116.881457,5033.400406,9178.553681,229.828649
116.881778,5477.523971,8216.285956,-536.266849
116.882098,4737.318029,6661.853478,-1608.800546
116.882419,5033.400406,6957.935855,-2221.676944
116.882740,5033.400406,7772.162391,-1532.190996
116.883061,4589.276840,8734.430116,-919.314598
116.883382,5921.647536,9622.677246,76.609550
116.883702,6291.750507,10214.842000,995.924147
116.884023,4663.297435,9178.553681,306.438199
116.884344,4293.194464,8142.265362,0.000000
116.884665,4219.173869,7402.059420,0.000000
116.884986,3923.091493,6217.729913,-842.705048
116.885307,4811.338623,5181.441594,0.000000
116.885627,5773.606348,6735.874072,76.609550
116.885948,4885.359217,8142.265362,1072.533697
116.886269,4737.318029,9474.636058,1838.629195
116.886590,5625.565159,8956.491898,1072.533697
116.886911,5847.626942,7624.121203,-459.657299
116.887231,5477.523971,6957.935855,-383.047749
116.887552,5255.462188,7254.018232,-1302.362347
116.887873,4737.318029,7846.182985,-2451.505594
116.888194,5329.482782,8142.265362,-2145.067394
116.888515,6069.688724,8808.450710,-536.266849
116.888836,5921.647536,9030.512492,919.314598
116.889156,5625.565159,9918.759623,1532.190996
116.889477,4515.256246,9918.759623,536.266849
116.889798,3923.091493,8586.388927,-1532.190996
116.890119,4071.132681,7179.997637,-2068.457845
116.890440,4145.153275,5699.585753,-689.485948
116.890760,4663.297435,5403.503377,766.095498
116.891081,5477.523971,7031.956449,2145.067394
116.891402,4441.235652,8734.430116,2145.067394
116.891723,3627.009116,9622.677246,1072.533697
116.892044,4811.338623,9178.553681,153.219100
116.892364,4811.338623,8438.347739,-536.266849
116.892685,4959.379811,7105.977043,-995.924147
116.893006,5255.462188,6957.935855,-1455.581446
116.893327,4737.318029,7624.121203,-1915.238745
116.893648,4515.256246,8142.265362,-1378.971896
116.893969,4663.297435,9474.636058,0.000000
116.894289,4959.379811,10732.986159,536.266849
116.894610,5181.441594,10658.965565,842.705048
116.894931,5181.441594,8956.491898,612.876398
116.895252,4737.318029,6809.894666,-919.314598
116.895573,3701.029710,5921.647536,-1378.971896
116.895893,3552.988522,6587.832884,-919.314598
116.896214,4145.153275,7105.977043,-383.047749
116.896535,5477.523971,7698.141797,612.876398
116.896856,6365.771101,8808.450710,1455.581446
116.897177,5625.565159,8882.471304,1532.190996
116.897498,5551.544565,8808.450710,229.828649
116.897818,4811.338623,8808.450710,-842.705048
116.898139,4811.338623,7772.162391,-1302.362347
116.898460,5699.585753,6883.915261,-2451.505594
116.898781,6143.709319,7179.997637,-2221.676944
116.899102,5329.482782,8586.388927,-383.047749
116.899422,4885.359217,10436.903782,919.314598
116.899743,4885.359217,11103.089130,995.924147
116.900064,4737.318029,10140.821405,306.438199
116.900385,4885.359217,8364.327145,-459.657299
116.900706,4589.276840,7328.038826,-459.657299
116.901026,3627.009116,6587.832884,-689.485948
116.901347,3701.029710,6957.935855,-153.219100
116.901668,4737.318029,7476.080014,153.219100
116.901989,5107.421000,8290.306550,1608.800546
116.902310,5255.462188,8882.471304,2145.067394
116.902631,4737.318029,9474.636058,1302.362347
116.902951,4367.215058,9104.533087,0.000000
116.903272,3997.112087,7254.018232,-1149.143247
116.903593,4737.318029,6513.812290,-1532.190996
116.903914,5699.585753,6809.894666,-1149.143247
116.904235,5847.626942,7550.100608,-536.266849
116.904555,5773.606348,8808.450710,153.219100
116.904876,5181.441594,9622.677246,459.657299
116.905197,4589.276840,9474.636058,76.609550
116.905518,4959.379811,8290.306550,153.219100
116.905839,5403.503377,7031.956449,-153.219100
116.906159,5551.544565,6439.791695,-919.314598
116.906480,5033.400406,6069.688724,-1072.533697
116.906801,4589.276840,6143.709319,-919.314598
116.907122,4663.297435,6587.832884,-229.828649
116.907443,5625.565159,7920.203579,1149.143247
116.907764,6291.750507,8586.388927,2298.286494
116.908084,5847.626942,8660.409521,689.485948
116.908405,5107.421000,7550.100608,-1072.533697
116.908726,5033.400406,6661.853478,-2451.505594
116.909047,5033.400406,6439.791695,-1915.238745
116.909368,5551.544565,7105.977043,-995.924147
116.909688,5477.523971,7698.141797,-459.657299
116.910009,5403.503377,8808.450710,459.657299
116.910330,5477.523971,10214.842000,536.266849
116.910651,5477.523971,9696.697840,-153.219100
116.910972,5181.441594,8216.285956,0.000000
116.911293,4737.318029,7254.018232,-612.876398
116.911613,5107.421000,6587.832884,-612.876398
116.911934,5107.421000,6661.853478,-842.705048
116.912255,5403.503377,6587.832884,-383.047749
116.912576,6587.832884,7624.121203,1225.752797
116.912897,5921.647536,9104.533087,1685.410096
116.913217,5551.544565,9770.718434,1149.143247
116.913538,5921.647536,9178.553681,-229.828649
116.913859,5403.503377,7846.182985,-1149.143247
116.914180,5847.626942,6957.935855,-1302.362347
116.914501,5625.565159,7105.977043,-1302.362347
116.914821,4959.379811,7550.100608,-1991.848295
116.915142,5403.503377,9326.594869,-306.438199
116.915463,5773.606348,10807.006753,1149.143247
116.915784,5329.482782,10955.047942,1072.533697
116.916105,4441.235652,9918.759623,842.705048
116.916426,4145.153275,8216.285956,-612.876398
116.916746,4071.132681,7105.977043,-1072.533697
116.917067,3552.988522,6513.812290,-689.485948
116.917388,4663.297435,6217.729913,-536.266849
116.917709,5255.462188,7105.977043,459.657299
116.918030,4367.215058,8882.471304,1915.238745
116.918350,4663.297435,10214.842000,1532.190996
116.918671,4737.318029,9548.656652,383.047749
116.918992,5107.421000,8290.306550,-306.438199
116.919313,5625.565159,6809.894666,-612.876398
116.919634,4811.338623,5995.668130,-1378.971896
116.919955,4737.318029,6957.935855,-1838.629195
116.920275,4885.359217,8068.244768,-1378.971896
116.920596,5107.421000,9104.533087,-383.047749
116.920917,5847.626942,9696.697840,76.609550
116.921238,4959.379811,9622.677246,383.047749
116.921559,4737.318029,9030.512492,0.000000
116.921879,4071.132681,7179.997637,0.000000
116.922200,3404.947333,5847.626942,0.000000
116.922521,3256.906145,5847.626942,-689.485948
116.922842,3775.050304,6069.688724,-383.047749
116.923163,4367.215058,7994.224174,76.609550
116.923483,5033.400406,9326.594869,842.705048
116.923804,5181.441594,9474.636058,1072.533697
116.924125,5921.647536,8660.409521,229.828649
116.924446,5921.647536,7179.997637,-383.047749
116.924767,4589.276840,6883.915261,-1149.143247
116.925088,5033.400406,6957.935855,-1762.019645
116.925408,5773.606348,7402.059420,-2145.067394
116.925729,6513.812290,8882.471304,-842.705048
116.926050,7105.977043,9622.677246,612.876398
116.926371,6957.935855,10362.883188,1149.143247
116.926692,5329.482782,10881.027347,536.266849
116.927012,4737.318029,8068.244768,0.000000
116.927333,4367.215058,5181.441594,-536.266849
116.927654,4293.194464,4441.235652,0.000000
116.927975,4811.338623,5625.565159,536.266849
116.928296,5699.585753,7624.121203,306.438199
116.928616,6291.750507,9400.615463,536.266849
116.928937,6809.894666,9326.594869,612.876398
116.929258,6217.729913,9474.636058,766.095498
116.929579,5773.606348,7402.059420,0.000000
116.929900,5773.606348,7031.956449,-612.876398
116.930221,5255.462188,7476.080014,-1225.752797
116.930541,5329.482782,7179.997637,-1838.629195
116.930862,6513.812290,8290.306550,-1608.800546
116.931183,5625.565159,9622.677246,-1149.143247
116.931504,4515.256246,10436.903782,76.609550
116.931825,4811.338623,10510.924376,1302.362347
116.932145,4145.153275,9252.574275,995.924147
116.932466,3701.029710,7105.977043,229.828649
116.932787,3256.906145,6143.709319,-229.828649
116.933108,2886.803174,6365.771101,-1225.752797
116.933429,2664.741391,6957.935855,153.219100
116.933750,4515.256246,7624.121203,995.924147
116.934070,4811.338623,8142.265362,1225.752797
116.934391,5033.400406,8364.327145,842.705048
116.934712,5181.441594,9104.533087,76.609550
116.935033,4737.318029,8808.450710,-1378.971896
116.935354,4885.359217,8290.306550,-1915.238745
116.935674,5625.565159,7476.080014,-2451.505594
116.935995,5625.565159,6809.894666,-2374.896044
116.936316,5847.626942,8142.265362,-995.924147
116.936637,6143.709319,9770.718434,229.828649
116.936958,4737.318029,10140.821405,0.000000
116.937278,5773.606348,9104.533087,-383.047749
116.937599,5551.544565,7179.997637,-383.047749
116.937920,4515.256246,6365.771101,0.000000
116.938241,3849.070898,6143.709319,459.657299
116.938562,3627.009116,6661.853478,-229.828649
116.938883,4737.318029,6957.935855,-995.924147
116.939203,5995.668130,7772.162391,0.000000
116.939524,6439.791695,8808.450710,1225.752797
116.939845,5625.565159,9918.759623,1302.362347
116.940166,5403.503377,8956.491898,229.828649
116.940487,5181.441594,8364.327145,-229.828649
116.940807,5329.482782,7624.121203,-919.314598
116.941128,5403.503377,6883.915261,-1378.971896
116.941449,6217.729913,7772.162391,-1838.629195
116.941770,5847.626942,9030.512492,-919.314598
116.942091,4959.379811,10214.842000,919.314598
116.942412,5403.503377,10140.821405,1838.629195
116.942732,5625.565159,9474.636058,459.657299
116.943053,5329.482782,7772.162391,0.000000
116.943374,3849.070898,7105.977043,0.000000
116.943695,3552.988522,6217.729913,-306.438199
116.944016,3849.070898,5699.585753,-306.438199
116.944336,4737.318029,6143.709319,689.485948
116.944657,5625.565159,7476.080014,1225.752797
116.944978,5477.523971,8808.450710,1072.533697
116.945299,5477.523971,9918.759623,153.219100
116.945620,5255.462188,9178.553681,-995.924147
116.945940,5329.482782,7476.080014,-1378.971896
116.946261,5773.606348,6291.750507,-1685.410096
116.946582,5625.565159,6587.832884,-1149.143247
116.946903,5773.606348,8068.244768,-766.095498
116.947224,5625.565159,9400.615463,-842.705048
116.947545,4589.276840,9696.697840,-1608.800546
116.947865,5477.523971,9696.697840,-459.657299
116.948186,4959.379811,9030.512492,766.095498
116.948507,3775.050304,7105.977043,536.266849
116.948828,3923.091493,6291.750507,0.000000
116.949149,2442.679609,6365.771101,-536.266849
116.949469,2072.576638,6735.874072,-842.705048
116.949790,3997.112087,7846.182985,0.000000
116.950111,4219.173869,9474.636058,995.924147
116.950432,4959.379811,10214.842000,1149.143247
116.950753,5403.503377,10066.800811,842.705048
116.951073,4367.215058,8808.450710,-766.095498
116.951394,3627.009116,7920.203579,-1225.752797
116.951715,4293.194464,7624.121203,-689.485948
116.952036,4663.297435,7846.182985,-842.705048
116.952357,5403.503377,8956.491898,-766.095498
116.952677,5699.585753,10140.821405,-919.314598
116.952998,5551.544565,10362.883188,-689.485948
116.953319,5329.482782,10288.862594,766.095498
116.953640,5403.503377,8734.430116,689.485948
116.953961,4737.318029,7105.977043,0.000000
116.954281,4293.194464,5773.606348,229.828649
116.954602,4589.276840,5995.668130,306.438199
116.954923,5107.421000,7105.977043,306.438199
116.955244,5773.606348,8586.388927,229.828649
116.955565,6143.709319,9548.656652,0.000000
116.955885,6365.771101,9178.553681,-689.485948
116.956206,6513.812290,8438.347739,-383.047749
116.956527,5921.647536,7920.203579,-153.219100
116.956848,4737.318029,7179.997637,0.000000
116.957169,5329.482782,7179.997637,-995.924147
116.957489,5625.565159,7624.121203,-1072.533697
116.957810,5995.668130,8586.388927,-689.485948
116.958131,5329.482782,9400.615463,153.219100
116.958452,5403.503377,9992.780217,153.219100
116.958773,4737.318029,9030.512492,459.657299
116.959093,4441.235652,7105.977043,-383.047749
116.959414,4145.153275,5773.606348,0.000000
116.959735,3923.091493,5329.482782,76.609550
116.960056,3627.009116,5551.544565,383.047749
116.960377,4367.215058,7476.080014,383.047749
116.960697,4441.235652,8660.409521,306.438199
116.961018,4885.359217,8808.450710,0.000000
116.961339,5921.647536,8734.430116,76.609550
116.961660,5995.668130,7920.203579,-689.485948
116.961981,5181.441594,7105.977043,-1762.019645
116.962301,5107.421000,6439.791695,-1225.752797
116.962622,5403.503377,6809.894666,-2298.286494
116.962943,5773.606348,7920.203579,-995.924147
116.963264,5847.626942,10066.800811,-612.876398
116.963585,5995.668130,10955.047942,-306.438199
116.963905,4959.379811,9844.739029,-459.657299
116.964226,4737.318029,8290.306550,-612.876398
116.964547,4219.173869,6439.791695,-229.828649
116.964868,3552.988522,5921.647536,536.266849
116.965189,3478.967927,6809.894666,536.266849
116.965509,3627.009116,7698.141797,-306.438199
116.965830,4515.256246,8586.388927,-306.438199
116.966151,5181.441594,9992.780217,76.609550
116.966472,4663.297435,11103.089130,1225.752797
116.966793,4737.318029,10288.862594,689.485948
116.967113,4737.318029,9030.512492,0.000000
116.967434,4515.256246,8068.244768,-766.095498
116.967755,3701.029710,7920.203579,-1302.362347
116.968076,4145.153275,8290.306550,-1149.143247
116.968397,4811.338623,9548.656652,-536.266849
116.968717,4663.297435,10658.965565,1225.752797
116.969038,5107.421000,10436.903782,919.314598
116.969359,5329.482782,9770.718434,919.314598
116.969680,4367.215058,8956.491898,536.266849
116.970001,3627.009116,7624.121203,0.000000
116.970321,4293.194464,6291.750507,-612.876398
116.970642,4589.276840,5255.462188,-306.438199
116.970963,5181.441594,6439.791695,0.000000
116.971284,5995.668130,8438.347739,612.876398
116.971605,5329.482782,9770.718434,153.219100
116.971925,5329.482782,9696.697840,-383.047749
116.972246,6291.750507,8512.368333,-306.438199
116.972567,5181.441594,7328.038826,-995.924147
116.972888,4811.338623,6365.771101,-1072.533697
116.973209,5033.400406,7031.956449,-1455.581446
116.973529,5255.462188,7254.018232,-995.924147
116.973850,5329.482782,8068.244768,-689.485948
116.974171,5033.400406,8586.388927,0.000000
116.974492,5033.400406,9104.533087,153.219100
116.974813,4811.338623,9030.512492,766.095498
116.975133,4071.132681,7772.162391,612.876398
116.975454,3775.050304,5773.606348,0.000000
116.975775,4219.173869,5551.544565,-229.828649
116.976096,4219.173869,5477.523971,0.000000
116.976417,4811.338623,7105.977043,306.438199
116.976737,5181.441594,8438.347739,612.876398
116.977058,5699.585753,8512.368333,459.657299
116.977379,6513.812290,8290.306550,0.000000
116.977700,6957.935855,7624.121203,0.000000
116.978021,5699.585753,7105.977043,-842.705048
116.978341,5773.606348,6809.894666,-1149.143247
116.978662,6809.894666,6957.935855,-1302.362347
116.978983,6439.791695,8068.244768,-1378.971896
116.979304,6439.791695,8734.430116,-306.438199
116.979625,6809.894666,9696.697840,459.657299
116.979945,5773.606348,9474.636058,766.095498
116.980266,5477.523971,8290.306550,306.438199
116.980587,5033.400406,7328.038826,76.609550
116.980908,3923.091493,6069.688724,-383.047749
116.981229,4145.153275,5847.626942,612.876398
116.981549,5107.421000,7476.080014,689.485948
116.981870,4737.318029,8586.388927,153.219100
116.982191,4737.318029,10214.842000,153.219100
116.982512,5181.441594,10881.027347,459.657299
116.982833,4885.359217,10066.800811,0.000000
116.983153,4441.235652,8808.450710,383.047749
116.983474,4293.194464,7920.203579,-383.047749
116.983795,3849.070898,7994.224174,-1225.752797
116.984116,3627.009116,8512.368333,-1225.752797
116.984437,4663.297435,9622.677246,-383.047749
116.984757,4515.256246,10658.965565,459.657299
116.985078,3849.070898,10881.027347,612.876398
116.985399,4441.235652,10140.821405,459.657299
116.985720,3404.947333,8142.265362,153.219100
116.986041,2812.782580,6809.894666,153.219100
116.986361,3478.967927,5995.668130,995.924147
116.986682,2960.823768,6069.688724,0.000000
116.987003,4145.153275,7772.162391,-306.438199
116.987324,4589.276840,9252.574275,-229.828649
116.987645,4737.318029,9918.759623,-919.314598
116.987965,5551.544565,9622.677246,-383.047749
116.988286,5255.462188,8660.409521,153.219100
116.988607,4071.132681,7254.018232,-306.438199
116.988928,4145.153275,6957.935855,-306.438199
116.989249,4663.297435,6957.935855,-1072.533697
116.989569,4959.379811,7179.997637,-2298.286494
116.989890,5107.421000,7402.059420,-1378.971896
116.990211,5699.585753,8882.471304,0.000000
116.990532,5995.668130,9474.636058,459.657299
116.990853,5699.585753,8512.368333,689.485948
116.991173,5995.668130,7402.059420,-306.438199
116.991494,5255.462188,6069.688724,-612.876398
116.991815,4293.194464,4663.297435,-383.047749
116.992136,5329.482782,5625.565159,229.828649
116.992457,6365.771101,7624.121203,306.438199
116.992777,6291.750507,8660.409521,383.047749
116.993098,6883.915261,8660.409521,153.219100
116.993419,7328.038826,8142.265362,76.609550
116.993740,6365.771101,7402.059420,0.000000
116.994061,5551.544565,6735.874072,0.000000
116.994381,5403.503377,6069.688724,-1149.143247
116.994702,6587.832884,6809.894666,-1149.143247
116.995023,7105.977043,7920.203579,-153.219100
116.995344,6809.894666,9030.512492,-459.657299
116.995665,5995.668130,9548.656652,-842.705048
116.995985,6439.791695,9918.759623,459.657299
116.996306,6143.709319,8586.388927,306.438199
116.996627,5107.421000,6365.771101,229.828649
116.996948,4663.297435,5329.482782,612.876398
116.997269,4293.194464,6217.729913,612.876398
116.997589,4293.194464,7994.224174,76.609550
116.997910,4589.276840,9326.594869,-383.047749
116.998231,4515.256246,9548.656652,-76.609550
116.998552,5995.668130,8956.491898,766.095498
116.998873,5773.606348,8216.285956,1455.581446
116.999193,4441.235652,7328.038826,459.657299
116.999514,3627.009116,7105.977043,-1149.143247
116.999835,3923.091493,7402.059420,-2221.676944
117.000156,4515.256246,8142.265362,-1915.238745
117.000477,5403.503377,9474.636058,-689.485948
117.000797,5403.503377,10807.006753,229.828649
117.001118,4515.256246,10510.924376,-153.219100
117.001439,3627.009116,9770.718434,-612.876398
117.001760,3775.050304,8364.327145,-766.095498
117.002081,3256.906145,7105.977043,0.000000
117.002401,3182.885551,6957.935855,0.000000
117.002722,3775.050304,7550.100608,0.000000
117.003043,3923.091493,9030.512492,-612.876398
117.003364,3404.947333,9548.656652,306.438199
117.003685,4219.173869,9622.677246,306.438199
117.004005,4959.379811,9104.533087,1608.800546
117.004326,4219.173869,7772.162391,1378.971896
117.004647,3478.967927,7031.956449,-306.438199
117.004968,3923.091493,6365.771101,-1532.190996
117.005289,4885.359217,7031.956449,-1149.143247
117.005609,6513.812290,7846.182985,-689.485948
117.005930,7105.977043,8216.285956,-536.266849
117.006251,7031.956449,9030.512492,-306.438199
117.006572,7105.977043,9770.718434,1072.533697
117.006893,5995.668130,9400.615463,0.000000
117.007213,5921.647536,7179.997637,153.219100
117.007534,6365.771101,5625.565159,0.000000
117.007855,5625.565159,4737.318029,-1149.143247
117.008176,5847.626942,5625.565159,-919.314598
117.008497,5847.626942,7105.977043,-612.876398
117.008817,5329.482782,7846.182985,306.438199
117.009138,6735.874072,7920.203579,1838.629195
117.009459,7105.977043,7328.038826,1991.848295
117.009780,5625.565159,7105.977043,612.876398
117.010101,4959.379811,6957.935855,0.000000
117.010421,4663.297435,6587.832884,-1149.143247
117.010742,4737.318029,6661.853478,-1991.848295
117.011063,6587.832884,7179.997637,-1838.629195
117.011384,6661.853478,8956.491898,-383.047749
117.011705,5625.565159,10288.862594,0.000000
117.012025,5551.544565,10881.027347,459.657299
117.012346,4885.359217,9696.697840,689.485948
117.012667,4367.215058,7328.038826,536.266849
117.012988,4811.338623,6439.791695,612.876398
117.013309,4293.194464,5699.585753,-306.438199
117.013629,3849.070898,6661.853478,-536.266849
117.013950,4219.173869,8290.306550,459.657299
117.014271,4145.153275,9326.594869,842.705048
117.014592,4885.359217,9178.553681,1608.800546
117.014913,4811.338623,9104.533087,995.924147
117.015233,3997.112087,8882.471304,-1072.533697
117.015554,3256.906145,7920.203579,-1762.019645
117.015875,3404.947333,7105.977043,-1991.848295
117.016196,4663.297435,7328.038826,-1608.800546
117.016517,5403.503377,9178.553681,-842.705048
117.016837,4959.379811,11473.192101,-536.266849
117.017158,4293.194464,11769.274478,-536.266849
117.017479,4367.215058,10436.903782,-76.609550
117.017800,4885.359217,8586.388927,-689.485948
117.018121,3775.050304,6217.729913,-153.219100
117.018441,3923.091493,5625.565159,-766.095498
117.018762,5033.400406,6735.874072,-689.485948
117.019083,4589.276840,7698.141797,-76.609550
117.019404,4885.359217,9030.512492,229.828649
117.019725,5255.462188,9326.594869,1072.533697
117.020045,4959.379811,9474.636058,1532.190996
117.020366,5329.482782,8734.430116,1378.971896
117.020687,5403.503377,7328.038826,-459.657299
117.021008,5255.462188,6365.771101,-2451.505594
117.021329,4885.359217,6365.771101,-2987.772442
117.021649,5181.441594,7550.100608,-2298.286494
117.021970,5847.626942,9622.677246,-842.705048
117.022291,5921.647536,10955.047942,536.266849
117.022612,6217.729913,10584.944971,1072.533697
117.022933,6587.832884,9030.512492,995.924147
117.023253,4367.215058,6883.915261,-153.219100
117.023574,3701.029710,5699.585753,-766.095498
117.023895,4737.318029,5477.523971,-383.047749
117.024216,5551.544565,5995.668130,0.000000
117.024537,6513.812290,7328.038826,536.266849
117.024857,6291.750507,8290.306550,919.314598
117.025178,5847.626942,9178.553681,919.314598
117.025499,5847.626942,9400.615463,1532.190996
117.025820,5255.462188,7550.100608,383.047749
117.026141,5551.544565,5699.585753,-995.924147
117.026461,6143.709319,5107.421000,-1378.971896
117.026782,6069.688724,6587.832884,-1762.019645
117.027103,6217.729913,8586.388927,-1915.238745
117.027424,5551.544565,10066.800811,-1072.533697
117.027745,5921.647536,10584.944971,459.657299
117.028065,5773.606348,9474.636058,1072.533697
117.028386,5403.503377,7772.162391,995.924147
117.028707,3997.112087,6365.771101,-689.485948
117.029028,2812.782580,5995.668130,-919.314598
117.029349,3256.906145,6365.771101,-1532.190996
117.029669,4441.235652,7179.997637,-612.876398
117.029990,5107.421000,8290.306550,766.095498
117.030311,4737.318029,9548.656652,1838.629195
117.030632,4145.153275,10214.842000,2068.457845
117.030953,3404.947333,9474.636058,612.876398
117.031273,3478.967927,7550.100608,-689.485948
117.031594,4737.318029,6291.750507,-1225.752797
117.031915,5551.544565,6143.709319,-1762.019645
117.032236,5625.565159,7772.162391,-1608.800546
117.032557,5181.441594,9918.759623,-766.095498
117.032877,4885.359217,11325.150913,0.000000
117.033198,5699.585753,10658.965565,536.266849
117.033519,5995.668130,9474.636058,1302.362347
117.033840,5625.565159,7402.059420,153.219100
117.034161,4293.194464,6365.771101,-1532.190996
117.034481,3775.050304,5847.626942,-1762.019645
117.034802,4441.235652,6291.750507,-919.314598
117.035123,4811.338623,7624.121203,229.828649
117.035444,4441.235652,8882.471304,995.924147
117.035765,4515.256246,9696.697840,1378.971896
117.036085,4737.318029,10288.862594,1149.143247
117.036406,4589.276840,8882.471304,76.609550
117.036727,4293.194464,7105.977043,-766.095498
117.037048,4663.297435,6291.750507,-2145.067394
117.037369,4737.318029,7254.018232,-2374.896044
117.037689,4885.359217,8882.471304,-1608.800546
117.038010,5699.585753,10288.862594,-306.438199
117.038331,5625.565159,11325.150913,689.485948
117.038652,5181.441594,10362.883188,919.314598
117.038973,4737.318029,9474.636058,383.047749
117.039293,4293.194464,7328.038826,-306.438199
117.039614,3627.009116,6587.832884,-919.314598
117.039935,4219.173869,5699.585753,-306.438199
117.040256,4293.194464,6143.709319,-383.047749
117.040577,5181.441594,7920.203579,306.438199
117.040897,5477.523971,9622.677246,1225.752797
117.041218,5181.441594,10066.800811,1149.143247
117.041539,4885.359217,9030.512492,612.876398
117.041860,5329.482782,7550.100608,-153.219100
117.042181,4441.235652,5921.647536,-1302.362347
117.042501,5625.565159,5477.523971,-1838.629195
117.042822,5625.565159,7105.977043,-2068.457845
117.043143,5921.647536,8586.388927,-1762.019645
117.043464,6143.709319,10066.800811,-842.705048
117.043785,6513.812290,10510.924376,536.266849
117.044105,5847.626942,9178.553681,612.876398
117.044426,5403.503377,8068.244768,689.485948
117.044747,3849.070898,5921.647536,-536.266849
117.045068,3478.967927,4811.338623,-1455.581446
117.045389,4811.338623,5477.523971,-459.657299
117.045709,5847.626942,7476.080014,0.000000
117.046030,5107.421000,8734.430116,153.219100
117.046351,4959.379811,9326.594869,536.266849
117.046672,5255.462188,9918.759623,536.266849
117.046993,4885.359217,8956.491898,689.485948
117.047313,4663.297435,6809.894666,0.000000
117.047634,5181.441594,6069.688724,-919.314598
117.047955,4737.318029,6365.771101,-1762.019645
117.048276,5181.441594,8438.347739,-1149.143247
117.048597,5477.523971,9474.636058,0.000000
117.048917,5181.441594,10066.800811,0.000000
117.049238,5995.668130,10066.800811,1149.143247
117.049559,5181.441594,9178.553681,842.705048
117.049880,4515.256246,7698.141797,0.000000
117.050201,4293.194464,7031.956449,-383.047749
117.050521,4293.194464,6217.729913,-612.876398
117.050842,4737.318029,6143.709319,-459.657299
117.051163,5033.400406,7105.977043,153.219100
117.051483,4811.338623,8734.430116,919.314598
117.051804,5551.544565,10288.862594,1302.362347
117.052125,5625.565159,10140.821405,612.876398
117.052446,4515.256246,9030.512492,-842.705048
117.052766,4145.153275,6957.935855,-919.314598
117.053087,4663.297435,6957.935855,-612.876398
117.053408,4367.215058,7624.121203,-1072.533697
117.053729,4737.318029,8512.368333,-536.266849
117.054049,5403.503377,9622.677246,-689.485948
117.054370,4885.359217,10584.944971,0.000000
117.054691,4663.297435,10362.883188,842.705048
117.055011,4367.215058,9918.759623,536.266849
117.055332,3923.091493,7105.977043,0.000000
117.055653,3627.009116,6291.750507,76.609550
117.055974,4071.132681,6143.709319,0.000000
117.056294,4145.153275,6883.915261,0.000000
117.056615,4663.297435,9178.553681,229.828649
117.056936,4959.379811,10066.800811,919.314598
117.057257,5403.503377,9622.677246,919.314598
117.057577,5551.544565,8290.306550,383.047749
117.057898,4737.318029,7179.997637,0.000000
117.058219,4367.215058,6513.812290,-459.657299
117.058539,5033.400406,6587.832884,-919.314598
117.058860,5625.565159,7179.997637,-1072.533697
117.059181,6365.771101,8142.265362,-842.705048
117.059502,6513.812290,9770.718434,-306.438199
117.059822,6439.791695,10214.842000,0.000000
117.060143,5773.606348,9474.636058,0.000000
117.060464,5403.503377,7402.059420,-306.438199
117.060785,5181.441594,4885.359217,0.000000
117.061105,4737.318029,4367.215058,0.000000
117.061426,4885.359217,5847.626942,-153.219100
117.061747,5255.462188,7994.224174,-153.219100
117.062067,5477.523971,9326.594869,-153.219100
117.062388,6217.729913,9474.636058,-306.438199
117.062709,6365.771101,8586.388927,229.828649
117.063030,5625.565159,7624.121203,612.876398
117.063350,4663.297435,7105.977043,153.219100
117.063671,4219.173869,7105.977043,-459.657299
117.063992,4219.173869,6957.935855,-919.314598
117.064312,4885.359217,8068.244768,-1532.190996
117.064633,5551.544565,9696.697840,-842.705048
117.064954,5107.421000,10584.944971,995.924147
117.065275,4737.318029,10288.862594,842.705048
117.065595,4811.338623,8586.388927,383.047749
117.065916,3404.947333,6809.894666,229.828649
117.066237,2590.720797,5921.647536,0.000000
117.066558,3627.009116,6143.709319,153.219100
117.066878,4737.318029,7402.059420,76.609550
117.067199,5625.565159,9178.553681,0.000000
117.067520,5477.523971,9474.636058,0.000000
117.067840,5181.441594,9474.636058,0.000000
117.068161,5181.441594,8882.471304,153.219100
117.068482,4663.297435,8216.285956,-229.828649
117.068803,4737.318029,7031.956449,-1149.143247
117.069123,4959.379811,6217.729913,-2068.457845
117.069444,5329.482782,7105.977043,-1838.629195
117.069765,5847.626942,8808.450710,-689.485948
117.070086,5625.565159,10214.842000,76.609550
117.070406,5625.565159,10362.883188,306.438199
117.070727,5921.647536,8808.450710,306.438199
117.071048,5403.503377,7105.977043,-612.876398
117.071368,4145.153275,5699.585753,229.828649
117.071689,4811.338623,6069.688724,459.657299
117.072010,4737.318029,7031.956449,76.609550
117.072331,5477.523971,6883.915261,-612.876398
117.072651,6513.812290,7994.224174,-229.828649
117.072972,6587.832884,9178.553681,229.828649
117.073293,5107.421000,9844.739029,612.876398
117.073614,5255.462188,8512.368333,459.657299
117.073934,6217.729913,7254.018232,-229.828649
117.074255,5107.421000,5995.668130,-306.438199
117.074576,5107.421000,6143.709319,-612.876398
117.074896,5181.441594,7402.059420,-919.314598
117.075217,4219.173869,9252.574275,-1149.143247
117.075538,4885.359217,9992.780217,0.000000
117.075859,6587.832884,9696.697840,612.876398
117.076179,6365.771101,8660.409521,459.657299
117.076500,5181.441594,7624.121203,689.485948
117.076821,3775.050304,7105.977043,229.828649
117.077142,3330.926739,6439.791695,-459.657299
117.077462,3923.091493,5773.606348,-306.438199
117.077783,5477.523971,7179.997637,-76.609550
117.078104,5403.503377,8808.450710,459.657299
117.078424,5107.421000,10140.821405,306.438199
117.078745,4811.338623,9548.656652,-306.438199
117.079066,4589.276840,8142.265362,-919.314598
117.079387,4145.153275,6957.935855,-689.485948
117.079707,4293.194464,6809.894666,-306.438199
117.080028,4293.194464,7550.100608,-919.314598
117.080349,5033.400406,8882.471304,-612.876398
117.080669,5181.441594,10214.842000,-1149.143247
117.080990,4959.379811,10362.883188,-689.485948
117.081311,5107.421000,9474.636058,229.828649
117.081632,4737.318029,8068.244768,612.876398
117.081952,3627.009116,6439.791695,459.657299
117.082273,3552.988522,6069.688724,306.438199
117.082594,3108.864956,6439.791695,0.000000
117.082915,3849.070898,7254.018232,-536.266849
117.083235,5329.482782,8882.471304,0.000000
117.083556,5181.441594,10140.821405,76.609550
117.083877,4959.379811,10436.903782,459.657299
117.084197,5181.441594,8808.450710,0.000000
117.084518,4367.215058,7920.203579,-1149.143247
117.084839,4737.318029,7031.956449,-612.876398
117.085160,5255.462188,6883.915261,76.609550
117.085480,5921.647536,7550.100608,-612.876398
117.085801,6513.812290,8586.388927,-1225.752797
117.086122,5995.668130,9918.759623,-766.095498
117.086443,6069.688724,9844.739029,-306.438199
117.086763,6513.812290,8734.430116,306.438199
117.087084,6439.791695,7105.977043,995.924147
117.087405,5847.626942,5773.606348,536.266849
117.087725,5403.503377,5921.647536,-229.828649
117.088046,5181.441594,6143.709319,-536.266849
117.088367,5699.585753,7105.977043,-1149.143247
117.088688,6513.812290,9104.533087,0.000000
117.089008,6809.894666,8956.491898,306.438199
117.089329,6735.874072,9252.574275,689.485948
117.089650,6439.791695,8438.347739,0.000000
117.089971,5181.441594,7550.100608,-689.485948
117.090291,4219.173869,6439.791695,-459.657299
117.090612,4589.276840,6365.771101,-612.876398
117.090933,5477.523971,7402.059420,-229.828649
117.091253,5477.523971,8734.430116,0.000000
117.091574,5477.523971,9326.594869,76.609550
117.091895,5329.482782,9474.636058,689.485948
117.092216,4737.318029,9252.574275,842.705048
117.092536,3552.988522,7550.100608,0.000000
117.092857,2960.823768,6735.874072,-153.219100
117.093178,3552.988522,6291.750507,306.438199
117.093498,3997.112087,7402.059420,689.485948
117.093819,4589.276840,7994.224174,459.657299
117.094140,4737.318029,9326.594869,0.000000
117.094461,4663.297435,9622.677246,306.438199
117.094781,4663.297435,9326.594869,536.266849
117.095102,4663.297435,7994.224174,76.609550
117.095423,4441.235652,6661.853478,-383.047749
117.095744,3923.091493,6439.791695,-1072.533697
117.096064,4885.359217,6957.935855,-1149.143247
117.096385,5699.585753,8808.450710,-766.095498
117.096706,5403.503377,10362.883188,-919.314598
117.097026,4737.318029,9548.656652,-306.438199
117.097347,5033.400406,9548.656652,0.000000
117.097668,4663.297435,7994.224174,536.266849
117.097989,4441.235652,6735.874072,766.095498
117.098309,4885.359217,5921.647536,306.438199
117.098630,5477.523971,5921.647536,-842.705048
117.098951,5181.441594,7254.018232,-842.705048
117.099272,5477.523971,8956.491898,0.000000
117.099592,6143.709319,9326.594869,766.095498
117.099913,6513.812290,9326.594869,919.314598
117.100234,6957.935855,7846.182985,689.485948
117.100554,5995.668130,7476.080014,-612.876398
117.100875,4737.318029,7105.977043,-1378.971896
117.101196,4515.256246,7328.038826,-1225.752797
117.101517,5255.462188,7920.203579,-1225.752797
117.101837,6291.750507,8586.388927,0.000000
117.102158,5921.647536,9178.553681,383.047749
117.102479,5477.523971,9770.718434,306.438199
117.102800,5181.441594,9770.718434,306.438199
117.103120,4589.276840,7920.203579,-689.485948
117.103441,4515.256246,6291.750507,0.000000
117.103762,5477.523971,5255.462188,459.657299
117.104082,5403.503377,5403.503377,229.828649
117.104403,4737.318029,6661.853478,76.609550
117.104724,4737.318029,9178.553681,0.000000
117.105045,4959.379811,9770.718434,0.000000
117.105365,5625.565159,8882.471304,0.000000
117.105686,6735.874072,7698.141797,-153.219100
117.106007,5255.462188,6957.935855,-766.095498
117.106328,3552.988522,6587.832884,-995.924147
117.106648,4441.235652,7328.038826,-1149.143247
117.106969,5181.441594,8290.306550,-1302.362347
117.107290,5773.606348,9400.615463,-842.705048
117.107610,5995.668130,10362.883188,0.000000
117.107931,5181.441594,10436.903782,-536.266849
117.108252,3997.112087,9030.512492,-766.095498
117.108573,2886.803174,7031.956449,153.219100
117.108893,3627.009116,5773.606348,536.266849
117.109214,4367.215058,5995.668130,459.657299
117.109535,4145.153275,7476.080014,0.000000
117.109855,4441.235652,8734.430116,-229.828649
117.110176,4515.256246,9622.677246,0.000000
117.110497,4885.359217,9770.718434,995.924147
117.110818,5551.544565,8586.388927,919.314598
117.111138,4959.379811,7698.141797,-306.438199
117.111459,4737.318029,7698.141797,-995.924147
117.111780,4589.276840,7772.162391,-1685.410096
117.112101,5107.421000,7994.224174,-1838.629195
117.112421,6143.709319,9104.533087,-1225.752797
117.112742,5773.606348,9918.759623,229.828649
117.113063,5699.585753,10881.027347,689.485948
117.113383,5847.626942,9770.718434,842.705048
117.113704,4663.297435,8290.306550,0.000000
117.114025,3552.988522,7105.977043,-459.657299
117.114346,3552.988522,6143.709319,0.000000
117.114666,3923.091493,6513.812290,766.095498
117.114987,4885.359217,7846.182985,1685.410096
117.115308,4959.379811,8586.388927,1608.800546
117.115629,4367.215058,9474.636058,612.876398
117.115949,4071.132681,9030.512492,0.000000
117.116270,3997.112087,8956.491898,153.219100
117.116591,4663.297435,7846.182985,153.219100
117.116911,4663.297435,6883.915261,-306.438199
117.117232,5329.482782,7031.956449,-995.924147
117.117553,5255.462188,8290.306550,-1532.190996
117.117874,4367.215058,9770.718434,-766.095498
117.118194,4367.215058,10066.800811,306.438199
117.118515,5477.523971,9992.780217,842.705048
117.118836,5699.585753,8216.285956,1072.533697
117.119157,4811.338623,6217.729913,1072.533697
117.119477,3552.988522,5107.421000,-306.438199
117.119798,3478.967927,5403.503377,153.219100
117.120119,4663.297435,6069.688724,0.000000
117.120439,6291.750507,7105.977043,229.828649
117.120760,7031.956449,8142.265362,612.876398
117.121081,7476.080014,8734.430116,1149.143247
117.121402,6661.853478,7328.038826,383.047749
117.121722,5477.523971,6217.729913,-995.924147
117.122043,5329.482782,5773.606348,-1302.362347
117.122364,5625.565159,5551.544565,-1608.800546
117.122685,6513.812290,6143.709319,-2145.067394
117.123005,7550.100608,7994.224174,-1455.581446
117.123326,5921.647536,9918.759623,-1225.752797
117.123647,5255.462188,10288.862594,-842.705048
117.123967,5699.585753,9474.636058,0.000000
117.124288,5329.482782,7772.162391,383.047749
117.124609,4367.215058,6513.812290,229.828649
117.124930,3997.112087,6587.832884,0.000000
117.125250,3330.926739,7031.956449,-459.657299
117.125571,3997.112087,8586.388927,-229.828649
117.125892,5551.544565,9400.615463,689.485948
117.126212,5107.421000,9844.739029,612.876398
117.126533,4885.359217,9844.739029,1225.752797
117.126854,3775.050304,8882.471304,689.485948
117.127175,3330.926739,7846.182985,-612.876398
117.127495,3923.091493,7550.100608,-536.266849
117.127816,4367.215058,8364.327145,-766.095498
117.128137,4737.318029,9400.615463,-1378.971896
117.128458,4959.379811,10510.924376,-995.924147
117.128778,4663.297435,11621.233289,-306.438199
117.129099,4737.318029,10510.924376,459.657299
117.129420,4885.359217,9252.574275,229.828649
117.129740,5107.421000,7772.162391,-306.438199
117.130061,4071.132681,6883.915261,-459.657299
117.130382,3701.029710,7105.977043,-383.047749
117.130703,4737.318029,7105.977043,-383.047749
117.131023,5477.523971,7994.224174,0.000000
117.131344,5625.565159,8808.450710,306.438199
117.131665,5329.482782,9548.656652,383.047749
117.131986,5033.400406,9400.615463,306.438199
117.132306,4959.379811,8734.430116,383.047749
117.132627,3923.091493,7031.956449,-306.438199
117.132948,3849.070898,6365.771101,-1225.752797
117.133268,3997.112087,6809.894666,-1455.581446
117.133589,4737.318029,8216.285956,-919.314598
117.133910,4959.379811,9622.677246,-383.047749
117.134231,4885.359217,10436.903782,0.000000
117.134551,4885.359217,9770.718434,153.219100
117.134872,4737.318029,8290.306550,0.000000
117.135193,3849.070898,6439.791695,0.000000
117.135514,3701.029710,5699.585753,689.485948
117.135834,4145.153275,5329.482782,229.828649
117.136155,4589.276840,6217.729913,0.000000
117.136476,5477.523971,7846.182985,0.000000
117.136796,5921.647536,9030.512492,153.219100
117.137117,6143.709319,8882.471304,766.095498
117.137438,6587.832884,7698.141797,612.876398
117.137759,5773.606348,6439.791695,229.828649
117.138079,5551.544565,5403.503377,-383.047749
117.138400,5773.606348,5699.585753,-1225.752797
117.138721,7105.977043,7402.059420,-1072.533697
117.139042,7105.977043,8956.491898,-1072.533697
117.139362,7105.977043,9918.759623,-689.485948
117.139683,7105.977043,9844.739029,0.000000
117.140004,6513.812290,9030.512492,919.314598
117.140324,5477.523971,7031.956449,383.047749
117.140645,4811.338623,5551.544565,0.000000
117.140966,4515.256246,5551.544565,612.876398
117.141287,4663.297435,5625.565159,153.219100
117.141607,5403.503377,7105.977043,689.485948
117.141928,6291.750507,9548.656652,459.657299
117.142249,5107.421000,10955.047942,306.438199
117.142569,4515.256246,9844.739029,306.438199
117.142890,5699.585753,8512.368333,536.266849
117.143211,4737.318029,7105.977043,459.657299
117.143532,3627.009116,6217.729913,0.000000
117.143852,4293.194464,7105.977043,-919.314598
117.144173,4663.297435,9030.512492,-1532.190996
117.144494,4737.318029,10881.027347,-766.095498
117.144815,4737.318029,11251.130318,-306.438199
117.145135,5033.400406,10436.903782,-306.438199
117.145456,4737.318029,8882.471304,1072.533697
117.145777,2960.823768,7402.059420,995.924147
117.146097,2516.700203,6291.750507,-76.609550
117.146418,2590.720797,6883.915261,-306.438199
117.146739,2812.782580,7031.956449,-919.314598
117.147060,4367.215058,8808.450710,-459.657299
117.147380,5255.462188,10362.883188,0.000000
117.147701,4293.194464,10288.862594,229.828649
117.148022,4737.318029,8808.450710,153.219100
117.148343,4737.318029,7031.956449,0.000000
117.148663,3849.070898,6587.832884,-1072.533697
117.148984,3701.029710,6809.894666,-919.314598
117.149305,5403.503377,7772.162391,-1915.238745
117.149625,5773.606348,9252.574275,-2145.067394
117.149946,5625.565159,10066.800811,-1302.362347
117.150267,6217.729913,10214.842000,-536.266849
117.150588,6143.709319,9474.636058,0.000000
117.150908,5033.400406,7994.224174,842.705048
117.151229,3997.112087,6735.874072,536.266849
117.151550,4441.235652,5625.565159,153.219100
117.151871,4663.297435,6143.709319,76.609550
117.152191,5699.585753,7179.997637,612.876398
117.152512,6439.791695,8512.368333,383.047749
117.152833,5921.647536,9252.574275,0.000000
117.153153,5773.606348,8586.388927,229.828649
117.153474,6143.709319,7698.141797,383.047749
117.153795,5625.565159,6661.853478,76.609550
117.154115,5033.400406,6365.771101,0.000000
117.154436,5255.462188,6883.915261,-995.924147
117.154757,6439.791695,8290.306550,-1991.848295
117.155077,6439.791695,9918.759623,-1455.581446
117.155398,6957.935855,10362.883188,-536.266849
117.155719,6735.874072,9770.718434,459.657299
117.156039,6069.688724,8512.368333,383.047749
117.156360,5107.421000,6809.894666,689.485948
117.156681,4219.173869,5699.585753,229.828649
117.157001,3775.050304,5551.544565,153.219100
117.157322,4737.318029,6661.853478,0.000000
117.157643,5625.565159,7550.100608,0.000000
117.157964,5773.606348,8586.388927,0.000000
117.158284,5181.441594,8808.450710,919.314598
117.158605,5033.400406,8586.388927,1072.533697
117.158926,4959.379811,7476.080014,383.047749
117.159246,4219.173869,6513.812290,0.000000
117.159567,4219.173869,6365.771101,-1532.190996
117.159888,4737.318029,7105.977043,-1838.629195
117.160208,5181.441594,8364.327145,-1915.238745
117.160529,5181.441594,9178.553681,-766.095498
117.160850,5403.503377,9696.697840,0.000000
117.161170,5181.441594,9474.636058,689.485948
117.161491,4737.318029,8438.347739,383.047749
117.161812,3923.091493,7105.977043,-229.828649
117.162132,3108.864956,6069.688724,-689.485948
117.162453,3478.967927,6291.750507,-459.657299
117.162774,4367.215058,7105.977043,-306.438199
117.163094,5329.482782,8512.368333,0.000000
117.163415,5551.544565,10066.800811,76.609550
117.163736,4885.359217,10066.800811,229.828649
117.164056,4737.318029,9104.533087,229.828649
117.164377,4737.318029,7254.018232,306.438199
117.164698,4441.235652,7031.956449,153.219100
117.165018,4663.297435,7328.038826,-229.828649
117.165339,5403.503377,8882.471304,-1225.752797
117.165660,5403.503377,9622.677246,-1455.581446
117.165980,5477.523971,10362.883188,-229.828649
117.166301,5255.462188,10066.800811,766.095498
117.166622,5255.462188,8882.471304,1302.362347
117.166943,5551.544565,7550.100608,1149.143247
117.167263,4589.276840,6513.812290,612.876398
117.167584,3775.050304,6217.729913,-383.047749
117.167905,4219.173869,7105.977043,-1072.533697
117.168225,5551.544565,8216.285956,-459.657299
117.168546,6143.709319,9696.697840,0.000000
117.168867,6291.750507,9770.718434,1149.143247
117.169187,6069.688724,9326.594869,1149.143247
117.169508,5403.503377,7994.224174,612.876398
117.169829,4737.318029,6883.915261,0.000000
117.170149,4737.318029,6513.812290,-536.266849
117.170470,5033.400406,6439.791695,-1302.362347
117.170791,6365.771101,7772.162391,-1225.752797
117.171111,6217.729913,8660.409521,-689.485948
117.171432,5921.647536,9622.677246,0.000000
117.171753,5847.626942,9474.636058,842.705048
117.172073,5329.482782,7624.121203,842.705048
117.172394,4811.338623,5403.503377,306.438199
117.172715,4515.256246,4737.318029,-153.219100
117.173035,4367.215058,5921.647536,-459.657299
117.173356,4663.297435,6809.894666,-919.314598
117.173677,5181.441594,7846.182985,-1225.752797
117.173997,6217.729913,8660.409521,-842.705048
117.174318,5329.482782,9400.615463,0.000000
117.174639,4959.379811,8290.306550,919.314598
117.174959,4737.318029,7402.059420,612.876398
117.175280,4145.153275,6661.853478,-306.438199
117.175601,4071.132681,6365.771101,-383.047749
117.175922,4737.318029,7105.977043,-1149.143247
117.176242,4737.318029,7994.224174,-1685.410096
117.176563,5181.441594,9178.553681,-383.047749
117.176884,4811.338623,9918.759623,612.876398
117.177204,5181.441594,9326.594869,612.876398
117.177525,4367.215058,7772.162391,536.266849
117.177846,4293.194464,6661.853478,0.000000
117.178166,3849.070898,7105.977043,-536.266849
117.178487,4219.173869,7476.080014,-306.438199
117.178808,5255.462188,8142.265362,-612.876398
117.179128,6217.729913,8882.471304,-306.438199
117.179449,6069.688724,10066.800811,459.657299
117.179770,5255.462188,10288.862594,1072.533697
117.180090,4737.318029,8660.409521,459.657299
117.180411,5403.503377,7254.018232,-612.876398
117.180732,5033.400406,6587.832884,-919.314598
117.181052,4737.318029,6143.709319,-1225.752797
117.181373,5699.585753,7624.121203,-995.924147
117.181694,6143.709319,9696.697840,0.000000
117.182014,5477.523971,10658.965565,306.438199
117.182335,5625.565159,10732.986159,76.609550
117.182656,5477.523971,9400.615463,306.438199
117.182976,4515.256246,7624.121203,76.609550
117.183297,4219.173869,6809.894666,536.266849
117.183618,3775.050304,6735.874072,0.000000
117.183938,4367.215058,7179.997637,-766.095498
117.184259,4885.359217,8512.368333,0.000000
117.184580,5329.482782,9992.780217,-229.828649
117.184901,5033.400406,10140.821405,459.657299
117.185221,4589.276840,9696.697840,1378.971896
117.185542,4737.318029,7698.141797,842.705048
117.185863,4145.153275,6291.750507,0.000000
117.186183,3478.967927,5847.626942,-689.485948
117.186504,4071.132681,6587.832884,-1532.190996
117.186825,4811.338623,8142.265362,-995.924147
117.187145,5699.585753,9178.553681,-306.438199
117.187466,5773.606348,9548.656652,383.047749
117.187787,5181.441594,9400.615463,689.485948
117.188107,5033.400406,8364.327145,76.609550
117.188428,4515.256246,7105.977043,0.000000
117.188749,4293.194464,5699.585753,-536.266849
117.189069,4219.173869,5773.606348,-1072.533697
117.189390,5181.441594,6291.750507,-1072.533697
117.189711,5921.647536,7624.121203,-612.876398
117.190031,6735.874072,9104.533087,459.657299
117.190352,5921.647536,9474.636058,306.438199
117.190673,5477.523971,8142.265362,0.000000
117.190993,5107.421000,6439.791695,-689.485948
117.191314,5033.400406,5847.626942,153.219100
117.191635,5107.421000,6291.750507,0.000000
117.191955,6069.688724,7402.059420,-766.095498
117.192276,7105.977043,9030.512492,-1532.190996
117.192597,6809.894666,9844.739029,-1532.190996
117.192917,5773.606348,9992.780217,-229.828649
117.193238,6217.729913,9622.677246,1225.752797
117.193559,5773.606348,7920.203579,1225.752797
117.193880,3997.112087,6291.750507,612.876398
117.194200,4515.256246,5255.462188,76.609550
117.194521,3701.029710,6439.791695,-612.876398
117.194842,4219.173869,7846.182985,-1072.533697
117.195162,5181.441594,9992.780217,306.438199
117.195483,5551.544565,10066.800811,689.485948
117.195804,5255.462188,9696.697840,1455.581446
117.196124,5403.503377,8512.368333,1225.752797
117.196445,4441.235652,7105.977043,-306.438199
117.196766,3256.906145,7031.956449,-766.095498
117.197086,3849.070898,7624.121203,-689.485948
117.197407,5403.503377,8586.388927,-1685.410096
117.197728,6439.791695,9696.697840,-1378.971896
117.198048,4441.235652,9770.718434,-459.657299
117.198369,3775.050304,9548.656652,0.000000
117.198690,4515.256246,9104.533087,919.314598
117.199010,3478.967927,7846.182985,689.485948
117.199331,2960.823768,6143.709319,0.000000
117.199652,3108.864956,6143.709319,0.000000
117.199972,3997.112087,7624.121203,-536.266849
117.200293,3775.050304,9030.512492,0.000000
117.200614,4367.215058,9548.656652,-689.485948
117.200934,4663.297435,9844.739029,-1225.752797
117.201255,4737.318029,9474.636058,-306.438199
117.201576,5329.482782,8512.368333,383.047749
117.201896,4367.215058,7328.038826,-383.047749
117.202217,3330.926739,7402.059420,-919.314598
117.202538,3775.050304,7920.203579,-995.924147
117.202859,5625.565159,8512.368333,-1302.362347
117.203179,5403.503377,9178.553681,-306.438199
117.203500,5551.544565,9474.636058,766.095498
117.203821,5403.503377,9400.615463,612.876398
117.204141,4737.318029,8216.285956,76.609550
117.204462,3775.050304,6883.915261,229.828649
117.204783,4293.194464,5477.523971,459.657299
117.205103,5329.482782,6069.688724,153.219100
117.205424,5403.503377,7328.038826,-153.219100
117.205745,6661.853478,8808.450710,-995.924147
117.206065,6957.935855,9770.718434,-1455.581446
117.206386,6069.688724,9770.718434,383.047749
117.206707,6809.894666,8586.388927,919.314598
117.207027,5995.668130,7254.018232,1455.581446
117.207348,4737.318029,6809.894666,0.000000
117.207669,4441.235652,7254.018232,-842.705048
117.207989,5033.400406,7105.977043,-1149.143247
117.208310,5551.544565,7624.121203,-1072.533697
117.208631,6069.688724,8142.265362,306.438199
117.208951,6513.812290,8808.450710,1378.971896
117.209272,6069.688724,9030.512492,1225.752797
117.209593,5033.400406,8512.368333,229.828649
117.209913,4589.276840,6957.935855,-383.047749
117.210234,4737.318029,5699.585753,76.609550
117.210555,5181.441594,5699.585753,766.095498
117.210875,5699.585753,6735.874072,-306.438199
117.211196,5477.523971,7846.182985,-1378.971896
117.211517,5181.441594,8956.491898,-383.047749
117.211838,5403.503377,9326.594869,-229.828649
117.212158,6365.771101,8586.388927,306.438199
117.212479,5625.565159,7254.018232,536.266849
117.212800,4737.318029,6217.729913,-383.047749
117.213120,4219.173869,6217.729913,-766.095498
117.213441,4959.379811,7179.997637,-229.828649
117.213762,4441.235652,8364.327145,-459.657299
117.214082,5107.421000,9326.594869,-995.924147
117.214403,5995.668130,9104.533087,-536.266849
117.214724,5329.482782,9030.512492,-459.657299
117.215044,4441.235652,7994.224174,0.000000
117.215365,3627.009116,6735.874072,0.000000
117.215686,3330.926739,6439.791695,-229.828649
117.216006,4071.132681,7624.121203,-229.828649
117.216327,4071.132681,9474.636058,-1149.143247
117.216648,4367.215058,9918.759623,-1762.019645
117.216968,4663.297435,10362.883188,0.000000
117.217289,4885.359217,10584.944971,459.657299
117.217610,4663.297435,9474.636058,0.000000
117.217930,4071.132681,7994.224174,-459.657299
117.218251,3330.926739,6957.935855,-995.924147
117.218572,3997.112087,6883.915261,-536.266849
117.218892,4737.318029,8068.244768,76.609550
117.219213,5033.400406,9548.656652,-383.047749
117.219534,5181.441594,10584.944971,0.000000
117.219854,5699.585753,10658.965565,76.609550
117.220175,5847.626942,9548.656652,536.266849
117.220496,5181.441594,7328.038826,995.924147
117.220816,4589.276840,6735.874072,766.095498
117.221137,4145.153275,6069.688724,0.000000
117.221458,4589.276840,7254.018232,-1072.533697
117.221779,5995.668130,8512.368333,-995.924147
117.222099,6291.750507,9474.636058,-536.266849
117.222420,5995.668130,10140.821405,76.609550
117.222741,5995.668130,9844.739029,0.000000
117.223061,4663.297435,7994.224174,-76.609550
117.223382,3849.070898,6069.688724,-153.219100
117.223703,5033.400406,5995.668130,612.876398
117.224023,5181.441594,6809.894666,0.000000
117.224344,4737.318029,7994.224174,-1378.971896
117.224665,4959.379811,9474.636058,-1608.800546
117.224985,5625.565159,10658.965565,0.000000
117.225306,6365.771101,9326.594869,2068.457845
117.225627,5847.626942,7179.997637,1302.362347
117.225947,4737.318029,5847.626942,229.828649
117.226268,3552.988522,5255.462188,0.000000
117.226589,3923.091493,5329.482782,0.000000
117.226909,5255.462188,6291.750507,-153.219100
117.227230,6217.729913,7624.121203,-459.657299
117.227551,6143.709319,9474.636058,229.828649
117.227871,6365.771101,9548.656652,0.000000
117.228192,5625.565159,7772.162391,-383.047749
117.228513,4885.359217,6291.750507,-536.266849
117.228833,4811.338623,5255.462188,-383.047749
117.229154,4737.318029,6069.688724,-459.657299
117.229475,4737.318029,7624.121203,-1608.800546
117.229795,5033.400406,9252.574275,-2145.067394
117.230116,5477.523971,10362.883188,-1532.190996
117.230437,5699.585753,11103.089130,689.485948
117.230758,5181.441594,9696.697840,1225.752797
117.231078,3923.091493,7476.080014,459.657299
117.231399,3627.009116,5477.523971,0.000000
117.231720,3034.844362,6143.709319,0.000000
117.232040,3404.947333,6809.894666,-383.047749
117.232361,4885.359217,8512.368333,-306.438199
117.232682,5255.462188,10140.821405,-306.438199
117.233002,5773.606348,10881.027347,536.266849
117.233323,6143.709319,10584.944971,919.314598
117.233644,5255.462188,8808.450710,459.657299
117.233964,3701.029710,7476.080014,-229.828649
117.234285,3849.070898,7031.956449,-153.219100
117.234606,5107.421000,7402.059420,-842.705048
117.234926,5551.544565,8882.471304,-1532.190996
117.235247,4737.318029,9844.739029,-1072.533697
117.235568,5181.441594,10881.027347,-536.266849
117.235888,4885.359217,10881.027347,229.828649
117.236209,4885.359217,9400.615463,766.095498
117.236530,4663.297435,6735.874072,1225.752797
117.236850,3849.070898,6365.771101,383.047749
117.237171,3404.947333,6365.771101,0.000000
117.237492,3997.112087,6809.894666,-612.876398
117.237812,4811.338623,8216.285956,-1302.362347
117.238133,5847.626942,9696.697840,-612.876398
117.238454,5921.647536,10658.965565,229.828649
117.238774,5995.668130,9844.739029,459.657299
117.239095,4959.379811,7550.100608,0.000000
117.239416,4219.173869,6143.709319,0.000000
117.239737,4515.256246,5847.626942,-689.485948
117.240057,5477.523971,5847.626942,-1532.190996
117.240378,6587.832884,7328.038826,-2068.457845
117.240699,6735.874072,9178.553681,-1149.143247
117.241019,6513.812290,9992.780217,0.000000
117.241340,5847.626942,10066.800811,1302.362347
117.241661,5255.462188,8216.285956,459.657299
117.241981,4663.297435,6217.729913,842.705048
117.242302,4293.194464,5329.482782,689.485948
117.242623,3849.070898,4737.318029,153.219100
117.242943,4811.338623,5773.606348,-383.047749
117.243264,5403.503377,8142.265362,0.000000
117.243585,5403.503377,8882.471304,-306.438199
117.243905,6291.750507,8660.409521,-153.219100
117.244226,6957.935855,8808.450710,689.485948
117.244547,5181.441594,7105.977043,-536.266849
117.244867,4367.215058,6069.688724,-459.657299
117.245188,5773.606348,6217.729913,-1225.752797
117.245509,6143.709319,6957.935855,-2221.676944
117.245829,6217.729913,8142.265362,-1762.019645
117.246150,6883.915261,9844.739029,-995.924147
117.246471,6217.729913,10510.924376,-153.219100
117.246791,5773.606348,9992.780217,842.705048
117.247112,5477.523971,8142.265362,766.095498
117.247433,4219.173869,5773.606348,0.000000
117.247753,3775.050304,5699.585753,306.438199
117.248074,3923.091493,6513.812290,689.485948
117.248395,4145.153275,7550.100608,-383.047749
117.248716,5107.421000,9474.636058,-383.047749
117.249036,5255.462188,10066.800811,-153.219100
117.249357,6069.688724,9474.636058,153.219100
117.249678,5551.544565,8290.306550,459.657299
117.249998,4293.194464,7402.059420,-229.828649
117.250319,3256.906145,6883.915261,-612.876398
117.250640,4663.297435,7179.997637,-1225.752797
117.250960,5847.626942,8808.450710,-1455.581446
117.251281,4885.359217,9326.594869,-1532.190996
117.251602,5107.421000,10288.862594,-459.657299
117.251922,5329.482782,11251.130318,306.438199
117.252243,4811.338623,9844.739029,459.657299
117.252564,3997.112087,7846.182985,536.266849
117.252884,4145.153275,6143.709319,-306.438199
117.253205,3552.988522,5699.585753,-153.219100
117.253526,3701.029710,7031.956449,-459.657299
117.253847,4219.173869,8808.450710,-919.314598
117.254167,4885.359217,10807.006753,306.438199
117.254488,5033.400406,11029.068536,919.314598
117.254809,4959.379811,9844.739029,842.705048
117.255130,4663.297435,8142.265362,-229.828649
117.255450,3108.864956,7031.956449,-766.095498
117.255771,3256.906145,6513.812290,-1149.143247
117.256092,4589.276840,6587.832884,-1685.410096
117.256412,5181.441594,7624.121203,-1149.143247
117.256733,5403.503377,9548.656652,229.828649
117.257054,5329.482782,11399.171507,306.438199
117.257375,5107.421000,10955.047942,383.047749
117.257695,4885.359217,9104.533087,229.828649
117.258016,4811.338623,6143.709319,383.047749
117.258337,4811.338623,4737.318029,689.485948
117.258658,5329.482782,4885.359217,229.828649
117.258978,5181.441594,6661.853478,-766.095498
117.259299,5403.503377,8290.306550,-1455.581446
117.259620,6735.874072,8882.471304,-459.657299
117.259940,8068.244768,8808.450710,1838.629195
117.260261,7402.059420,7698.141797,1532.190996
117.260582,6291.750507,6513.812290,306.438199
117.260903,5255.462188,5255.462188,-1378.971896
117.261223,5773.606348,4663.297435,-2145.067394
117.261544,6513.812290,5403.503377,-1838.629195
117.261865,7698.141797,6957.935855,-1225.752797
117.262185,6957.935855,9474.636058,-536.266849
117.262506,6513.812290,11325.150913,689.485948
117.262827,5847.626942,10140.821405,919.314598
117.263148,5033.400406,7476.080014,536.266849
117.263468,3997.112087,5773.606348,-153.219100
117.263789,3256.906145,5107.421000,76.609550
117.264110,3404.947333,5699.585753,-459.657299
117.264431,4145.153275,7846.182985,-459.657299
117.264751,4515.256246,9844.739029,0.000000
117.265072,5033.400406,11103.089130,766.095498
117.265393,5329.482782,10955.047942,1532.190996
117.265713,4293.194464,8882.471304,1072.533697
117.266034,2812.782580,7105.977043,0.000000
117.266355,3997.112087,6217.729913,-842.705048
117.266676,4293.194464,6735.874072,-1302.362347
117.266996,4515.256246,8512.368333,-1149.143247
117.267317,5107.421000,10436.903782,-1532.190996
117.267638,5625.565159,12139.377449,-459.657299
117.267959,4737.318029,12287.418637,459.657299
117.268279,3923.091493,9622.677246,842.705048
117.268600,3256.906145,7105.977043,689.485948
117.268921,2960.823768,5625.565159,306.438199
117.269241,2738.761985,5995.668130,-306.438199
117.269562,3923.091493,7846.182985,-1072.533697
117.269883,4737.318029,9844.739029,-995.924147
117.270204,4219.173869,10807.006753,0.000000
117.270524,5921.647536,10658.965565,1225.752797
117.270845,6143.709319,8882.471304,1225.752797
117.271166,5107.421000,6809.894666,153.219100
117.271486,4737.318029,5699.585753,-1149.143247
117.271807,4737.318029,5477.523971,-2298.286494
117.272128,5625.565159,6957.935855,-2681.334243
117.272449,6439.791695,8586.388927,-1762.019645
117.272769,6735.874072,10140.821405,-306.438199
117.273090,6661.853478,11325.150913,919.314598
117.273411,5551.544565,9696.697840,689.485948
117.273732,5477.523971,7328.038826,1072.533697
117.274052,4663.297435,4737.318029,689.485948
117.274373,3775.050304,3478.967927,383.047749
117.274694,4737.318029,4737.318029,-995.924147
117.275014,5625.565159,7476.080014,-1149.143247
117.275335,5403.503377,9474.636058,-459.657299
117.275656,6439.791695,10288.862594,229.828649
117.275977,6883.915261,9622.677246,1685.410096
117.276297,5995.668130,7550.100608,612.876398
117.276618,4515.256246,5403.503377,0.000000
117.276939,4367.215058,5329.482782,-842.705048
117.277260,4737.318029,5773.606348,-1991.848295
117.277580,5921.647536,7624.121203,-2451.505594
117.277901,6069.688724,9474.636058,-1762.019645
117.278222,6069.688724,11177.109724,-919.314598
117.278542,5921.647536,11843.295072,842.705048
117.278863,5033.400406,10288.862594,1378.971896
117.279184,3775.050304,6883.915261,383.047749
117.279505,2516.700203,4959.379811,689.485948
117.279825,2886.803174,4589.276840,536.266849
117.280146,4071.132681,6513.812290,-383.047749
117.280467,4737.318029,8808.450710,-306.438199
117.280787,4959.379811,10807.006753,0.000000
117.281108,5033.400406,10955.047942,689.485948
117.281429,5255.462188,9844.739029,1225.752797
117.281750,4589.276840,7920.203579,995.924147
117.282070,4441.235652,5921.647536,153.219100
117.282391,4441.235652,5921.647536,-1685.410096
117.282712,4293.194464,6735.874072,-1915.238745
117.283033,5107.421000,8512.368333,-1915.238745
117.283353,6143.709319,11325.150913,-383.047749
117.283674,5773.606348,12435.459826,76.609550
117.283995,5329.482782,11251.130318,306.438199
117.284315,4959.379811,8512.368333,229.828649
117.284636,3923.091493,5773.606348,153.219100
117.284957,2886.803174,4441.235652,689.485948
117.285278,3775.050304,5107.421000,229.828649
117.285598,4293.194464,7550.100608,-306.438199
117.285919,5107.421000,10510.924376,-919.314598
117.286240,5329.482782,11251.130318,-153.219100
117.286561,6809.894666,10214.842000,995.924147
117.286881,6069.688724,7920.203579,2298.286494
117.287202,4737.318029,5551.544565,689.485948
117.287523,3997.112087,4589.276840,-536.266849
117.287843,4293.194464,5477.523971,-1685.410096
117.288164,5403.503377,7550.100608,-1991.848295
117.288485,6587.832884,9326.594869,-2298.286494
117.288806,6809.894666,10807.006753,-766.095498
117.289126,6735.874072,11695.253884,229.828649
117.289447,6069.688724,9622.677246,919.314598
117.289768,4811.338623,6957.935855,1378.971896
117.290088,3997.112087,5033.400406,689.485948
117.290409,3404.947333,4515.256246,0.000000
117.290730,4145.153275,5551.544565,-766.095498
117.291051,4441.235652,8216.285956,-1225.752797
117.291371,5329.482782,10732.986159,-459.657299
117.291692,5699.585753,11251.130318,689.485948
117.292013,5329.482782,9918.759623,1455.581446
117.292334,4441.235652,7624.121203,1149.143247
117.292654,3775.050304,6069.688724,0.000000
117.292975,3034.844362,5921.647536,-995.924147
117.293296,4589.276840,6883.915261,-1532.190996
117.293616,5847.626942,8660.409521,-1378.971896
117.293937,6217.729913,10214.842000,-1149.143247
117.294258,6735.874072,11547.212695,-383.047749
117.294579,5477.523971,11251.130318,0.000000
117.294899,4515.256246,8438.347739,459.657299
117.295220,4071.132681,5921.647536,306.438199
117.295541,3849.070898,4589.276840,842.705048
117.295862,4589.276840,5033.400406,536.266849
117.296182,5403.503377,7105.977043,-229.828649
117.296503,5477.523971,9622.677246,-995.924147
117.296824,5181.441594,10658.965565,-306.438199
117.297144,5773.606348,9918.759623,766.095498
117.297465,5847.626942,8068.244768,1302.362347
117.297786,5255.462188,6217.729913,1225.752797
117.298107,4737.318029,5773.606348,0.000000
117.298427,4367.215058,6143.709319,-2145.067394
117.298748,4959.379811,6957.935855,-3064.381992
117.299069,5921.647536,8660.409521,-1762.019645
117.299389,6365.771101,9696.697840,153.219100
117.299710,6291.750507,11251.130318,1149.143247
117.300031,5773.606348,10510.924376,766.095498
117.300352,4589.276840,7772.162391,459.657299
117.300672,3627.009116,5181.441594,-612.876398
117.300993,3256.906145,4293.194464,76.609550
117.301314,4145.153275,5699.585753,-153.219100
117.301635,5403.503377,7846.182985,-612.876398
117.301955,5773.606348,9918.759623,-536.266849
117.302276,5329.482782,10584.944971,-153.219100
117.302597,5847.626942,10362.883188,689.485948
117.302917,5773.606348,8586.388927,1072.533697
117.303238,4293.194464,6735.874072,0.000000
117.303559,4071.132681,6143.709319,-689.485948
117.303880,4737.318029,6513.812290,-1685.410096
117.304200,4885.359217,7772.162391,-1378.971896
117.304521,5773.606348,9400.615463,-612.876398
117.304842,5847.626942,10436.903782,153.219100
117.305163,5255.462188,10362.883188,306.438199
117.305483,5033.400406,9104.533087,536.266849
117.305804,4293.194464,7328.038826,306.438199
117.306125,3034.844362,5921.647536,383.047749
117.306445,3923.091493,5995.668130,-459.657299
117.306766,4589.276840,7402.059420,-1225.752797
117.307087,4737.318029,9326.594869,-1149.143247
117.307408,4885.359217,10140.821405,-229.828649
117.307728,4737.318029,10807.006753,995.924147
117.308049,4737.318029,9918.759623,1455.581446
117.308370,4219.173869,7994.224174,842.705048
117.308690,3701.029710,6217.729913,-459.657299
117.309011,3775.050304,6143.709319,-1915.238745
117.309332,4219.173869,7254.018232,-1378.971896
117.309653,5403.503377,9030.512492,-459.657299
117.309973,5625.565159,10510.924376,76.609550
117.310294,5699.585753,10658.965565,766.095498
117.310615,5847.626942,9622.677246,76.609550
117.310936,5181.441594,7772.162391,229.828649
117.311256,4071.132681,6513.812290,612.876398
117.311577,4145.153275,5477.523971,689.485948
117.311898,4885.359217,5403.503377,-383.047749
117.312218,6069.688724,7254.018232,-766.095498
117.312539,6069.688724,9104.533087,-995.924147
117.312860,5477.523971,9696.697840,-306.438199
117.313181,6069.688724,9252.574275,766.095498
117.313501,6439.791695,7105.977043,995.924147
117.313822,5847.626942,5995.668130,383.047749
117.314143,5255.462188,5403.503377,-842.705048
117.314464,4663.297435,6439.791695,-2451.505594
117.314784,5033.400406,7772.162391,-2528.115143
117.315105,6217.729913,8734.430116,-1685.410096
117.315426,6365.771101,9474.636058,0.000000
117.315746,6291.750507,9844.739029,689.485948
117.316067,5477.523971,8882.471304,1149.143247
117.316388,3701.029710,7698.141797,612.876398
117.316709,2590.720797,6735.874072,0.000000
117.317029,3627.009116,5995.668130,-229.828649
117.317350,4589.276840,6957.935855,-612.876398
117.317671,5329.482782,7846.182985,-229.828649
117.317991,5477.523971,9770.718434,919.314598
117.318312,4959.379811,9770.718434,459.657299
117.318633,4663.297435,9104.533087,1149.143247
117.318954,4811.338623,8068.244768,766.095498
117.319274,4293.194464,7105.977043,-306.438199
117.319595,4071.132681,6587.832884,-842.705048
117.319916,6217.729913,7476.080014,-1149.143247
117.320237,6291.750507,8068.244768,-1685.410096
117.320557,5551.544565,8586.388927,-1532.190996
117.320878,5847.626942,10362.883188,0.000000
117.321199,5773.606348,10288.862594,612.876398
117.321519,5625.565159,9030.512492,766.095498
117.321840,5181.441594,7105.977043,383.047749
117.322161,4145.153275,5847.626942,-766.095498
117.322482,3997.112087,6587.832884,-995.924147
117.322802,4811.338623,7772.162391,-383.047749
117.323123,5625.565159,8882.471304,-153.219100
117.323444,5995.668130,9474.636058,306.438199
117.323765,5551.544565,8956.491898,229.828649
117.324085,4811.338623,8512.368333,229.828649
117.324406,4071.132681,7254.018232,76.609550
117.324727,3923.091493,7105.977043,-229.828649
117.325047,4959.379811,7105.977043,-842.705048
117.325368,5773.606348,7402.059420,-1225.752797
117.325689,5773.606348,9178.553681,-1149.143247
117.326010,5625.565159,9844.739029,-766.095498
117.326330,4885.359217,10436.903782,76.609550
117.326651,5403.503377,9918.759623,689.485948
117.326972,5403.503377,7920.203579,1378.971896
117.327292,4071.132681,5625.565159,1225.752797
117.327613,3552.988522,5625.565159,612.876398
117.327934,3849.070898,6661.853478,-612.876398
117.328255,3923.091493,7698.141797,-1225.752797
117.328575,5477.523971,7920.203579,306.438199
117.328896,6513.812290,8808.450710,383.047749
117.329217,6513.812290,9030.512492,919.314598
117.329538,5255.462188,8290.306550,306.438199
117.329858,3997.112087,7179.997637,-842.705048
117.330179,3552.988522,6957.935855,-1685.410096
117.330500,4811.338623,7031.956449,-995.924147
117.330820,6365.771101,7624.121203,-766.095498
117.331141,6291.750507,9104.533087,-612.876398
117.331462,5181.441594,10214.842000,-689.485948
117.331783,4885.359217,10510.924376,-1072.533697
117.332103,4737.318029,8512.368333,0.000000
117.332424,4737.318029,6587.832884,536.266849
117.332745,4145.153275,5921.647536,842.705048
117.333066,3997.112087,6513.812290,383.047749
117.333386,4219.173869,8142.265362,-306.438199
117.333707,3997.112087,8808.450710,-919.314598
117.334028,4811.338623,9474.636058,-306.438199
117.334348,5699.585753,8882.471304,536.266849
117.334669,5551.544565,8216.285956,919.314598
117.334990,4737.318029,7846.182985,306.438199
117.335311,3997.112087,7179.997637,-612.876398
117.335631,4071.132681,7105.977043,-1378.971896
117.335952,5847.626942,7698.141797,-1302.362347
117.336273,7031.956449,8734.430116,-919.314598
117.336593,7031.956449,9548.656652,-536.266849
117.336914,6291.750507,10362.883188,-536.266849
117.337235,5921.647536,9474.636058,-766.095498
117.337556,5477.523971,7105.977043,-689.485948
117.337876,5107.421000,5995.668130,612.876398
117.338197,5255.462188,5403.503377,766.095498
117.338518,5033.400406,5847.626942,0.000000
117.338839,4663.297435,7402.059420,-689.485948
117.339159,4885.359217,9252.574275,-612.876398
117.339480,5403.503377,9400.615463,153.219100
117.339801,6365.771101,9178.553681,612.876398
117.340121,6513.812290,8364.327145,459.657299
117.340442,4737.318029,7550.100608,-229.828649
117.340763,4367.215058,6809.894666,-995.924147
117.341084,4441.235652,6957.935855,-842.705048
117.341404,5181.441594,8068.244768,-842.705048
117.341725,6143.709319,9104.533087,-689.485948
117.342046,5921.647536,9844.739029,-153.219100
117.342367,5255.462188,10140.821405,76.609550
117.342687,4811.338623,9400.615463,689.485948
117.343008,3775.050304,7920.203579,842.705048
117.343329,3627.009116,6365.771101,1072.533697
117.343649,3108.864956,5625.565159,1149.143247
117.343970,3552.988522,6661.853478,306.438199
117.344291,4219.173869,8660.409521,-612.876398
117.344612,4367.215058,9992.780217,-1072.533697
117.344932,4737.318029,9696.697840,-919.314598
117.345253,6291.750507,9030.512492,229.828649
117.345574,5181.441594,8068.244768,306.438199
117.345894,3923.091493,7105.977043,-153.219100
117.346215,3256.906145,6809.894666,-229.828649
117.346536,4367.215058,7994.224174,-842.705048
117.346857,5255.462188,8438.347739,-1685.410096
117.347177,5625.565159,9326.594869,-1378.971896
117.347498,5995.668130,9696.697840,-1455.581446
117.347819,5773.606348,9992.780217,153.219100
117.348140,5181.441594,8290.306550,766.095498
117.348460,4441.235652,6809.894666,536.266849
117.348781,3330.926739,5921.647536,0.000000
117.349102,3627.009116,6291.750507,306.438199
117.349422,4811.338623,7105.977043,306.438199
117.349743,5181.441594,8142.265362,-229.828649
117.350064,5403.503377,9400.615463,153.219100
117.350385,5403.503377,9474.636058,0.000000
117.350705,5403.503377,9178.553681,-919.314598
117.351026,5181.441594,8068.244768,-459.657299
117.351347,4737.318029,7105.977043,0.000000
117.351668,5625.565159,6957.935855,459.657299
117.351988,5625.565159,6735.874072,-383.047749
117.352309,5699.585753,7994.224174,-1149.143247
117.352630,5921.647536,9696.697840,-689.485948
117.352951,6217.729913,10288.862594,-383.047749
117.353272,6291.750507,9030.512492,-766.095498
117.353592,5921.647536,7031.956449,306.438199
117.353913,4737.318029,5699.585753,919.314598
117.354234,4367.215058,5921.647536,919.314598
117.354555,4441.235652,6365.771101,459.657299
117.354875,5477.523971,7994.224174,-536.266849
117.355196,6069.688724,9030.512492,-1149.143247
117.355517,5921.647536,9770.718434,-76.609550
117.355838,6217.729913,9474.636058,0.000000
117.356159,6365.771101,8808.450710,383.047749
117.356479,4737.318029,7402.059420,0.000000
117.356800,4219.173869,6291.750507,-383.047749
117.357121,4441.235652,6143.709319,-612.876398
117.357442,4959.379811,8216.285956,-689.485948
117.357763,5181.441594,9622.677246,-1225.752797
117.358083,5477.523971,10214.842000,-1072.533697
117.358404,5181.441594,9770.718434,76.609550
117.358725,4737.318029,8216.285956,919.314598
117.359046,3256.906145,6587.832884,1149.143247
117.359367,2812.782580,6069.688724,1149.143247
117.359687,2590.720797,6883.915261,0.000000
117.360008,3627.009116,7550.100608,-766.095498
117.360329,5181.441594,8660.409521,-1532.190996
117.360650,5181.441594,9252.574275,-1149.143247
117.360970,5107.421000,9548.656652,-383.047749
117.361291,5255.462188,9400.615463,306.438199
117.361612,4367.215058,8216.285956,-306.438199
117.361933,3701.029710,6587.832884,-612.876398
117.362254,4589.276840,6661.853478,0.000000
117.362574,4959.379811,7254.018232,-229.828649
117.362895,5921.647536,8142.265362,-1149.143247
117.363216,5847.626942,9474.636058,-1608.800546
117.363537,5477.523971,9992.780217,-995.924147
117.363858,5329.482782,9400.615463,0.000000
117.364178,5329.482782,7920.203579,383.047749
117.364499,4071.132681,7105.977043,536.266849
117.364820,3552.988522,6513.812290,383.047749
117.365141,4071.132681,7105.977043,306.438199
117.365461,4959.379811,7550.100608,-459.657299
117.365782,5477.523971,8216.285956,-306.438199
117.366103,5551.544565,9178.553681,-306.438199
117.366424,5033.400406,9178.553681,153.219100
117.366745,5255.462188,8734.430116,0.000000
117.367065,4737.318029,7772.162391,0.000000
117.367386,5033.400406,7105.977043,-459.657299
117.367707,5551.544565,7476.080014,153.219100
117.368028,5625.565159,8438.347739,-842.705048
117.368349,5329.482782,9474.636058,-1838.629195
117.368669,6143.709319,10362.883188,-919.314598
117.368990,6291.750507,9252.574275,306.438199
117.369311,5551.544565,7550.100608,1302.362347
117.369632,4811.338623,6883.915261,1915.238745
117.369953,3923.091493,7105.977043,1608.800546
117.370273,2368.659014,6883.915261,536.266849
117.370594,4589.276840,6883.915261,-306.438199
117.370915,6217.729913,7105.977043,-689.485948
117.371236,5477.523971,7920.203579,-842.705048
117.371556,5551.544565,8882.471304,-153.219100
117.371877,6365.771101,9770.718434,-612.876398
117.372198,5181.441594,8438.347739,-153.219100
117.372519,5403.503377,6735.874072,229.828649
117.372840,4959.379811,5995.668130,-229.828649
117.373160,4663.297435,6883.915261,-1532.190996
117.373481,4885.359217,9178.553681,-1838.629195
117.373802,5551.544565,10362.883188,-1532.190996
117.374123,5403.503377,9918.759623,-1225.752797
117.374444,5255.462188,7994.224174,229.828649
117.374764,4589.276840,7550.100608,612.876398
117.375085,2886.803174,7105.977043,1225.752797
117.375406,2294.638420,6513.812290,1225.752797
117.375727,3627.009116,6883.915261,229.828649
117.376047,4959.379811,7031.956449,-612.876398
117.376368,5921.647536,8142.265362,-689.485948
117.376689,5847.626942,9474.636058,-383.047749
117.377010,5181.441594,9104.533087,-1149.143247
117.377331,5477.523971,8808.450710,-689.485948
117.377651,5847.626942,7698.141797,0.000000
117.377972,5255.462188,6809.894666,-306.438199
117.378293,5551.544565,7624.121203,-459.657299
117.378614,6217.729913,8956.491898,-1072.533697
117.378935,5995.668130,9474.636058,-1915.238745
117.379255,6513.812290,9400.615463,-1532.190996
117.379576,5699.585753,8808.450710,-229.828649
117.379897,5181.441594,8660.409521,689.485948
117.380218,4811.338623,7624.121203,1378.971896
117.380539,3627.009116,7031.956449,1149.143247
117.380859,3182.885551,6957.935855,153.219100
117.381180,3923.091493,7772.162391,-766.095498
117.381501,4145.153275,8808.450710,-766.095498
117.381822,4515.256246,9326.594869,76.609550
117.382142,4737.318029,9696.697840,0.000000
117.382463,5403.503377,9326.594869,229.828649
117.382784,5255.462188,8512.368333,-229.828649
117.383105,4293.194464,8290.306550,-306.438199
117.383426,3997.112087,8290.306550,-459.657299
117.383746,5255.462188,8068.244768,-306.438199
117.384067,6291.750507,8068.244768,-229.828649
117.384388,6143.709319,8364.327145,-459.657299
117.384709,5181.441594,8142.265362,-612.876398
117.385030,5033.400406,9030.512492,306.438199
117.385350,4959.379811,8512.368333,1149.143247
117.385671,4959.379811,7179.997637,1532.190996
117.385992,4515.256246,5329.482782,612.876398
117.386313,4071.132681,5847.626942,-306.438199
117.386633,4737.318029,6661.853478,-306.438199
117.386954,5329.482782,7772.162391,-536.266849
117.387275,5107.421000,8290.306550,-1225.752797
117.387596,5329.482782,8734.430116,-1225.752797
117.387917,5625.565159,8882.471304,-842.705048
117.388237,5107.421000,8068.244768,-306.438199
117.388558,4293.194464,6957.935855,229.828649
117.388879,4737.318029,7105.977043,0.000000
117.389200,5699.585753,7624.121203,-995.924147
117.389521,5181.441594,8142.265362,-1762.019645
117.389841,5181.441594,8364.327145,-995.924147
117.390162,5477.523971,8216.285956,0.000000
117.390483,5625.565159,8660.409521,1455.581446
117.390804,5551.544565,8290.306550,1608.800546
117.391125,4293.194464,6957.935855,76.609550
117.391445,4219.173869,6809.894666,-459.657299
117.391766,4441.235652,6809.894666,153.219100
117.392087,4737.318029,7624.121203,-459.657299
117.392408,5403.503377,7772.162391,0.000000
117.392728,5699.585753,9326.594869,-919.314598
117.393049,5625.565159,10362.883188,-689.485948
117.393370,5699.585753,10362.883188,-306.438199
117.393691,5181.441594,8882.471304,459.657299
117.394012,4293.194464,7772.162391,153.219100
117.394332,4663.297435,7624.121203,229.828649
117.394653,5107.421000,8142.265362,-459.657299
117.394974,5255.462188,8808.450710,-689.485948
117.395295,4737.318029,9696.697840,229.828649
117.395616,4441.235652,9252.574275,76.609550
117.395936,4515.256246,9104.533087,612.876398
117.396257,4367.215058,8438.347739,919.314598
117.396578,3775.050304,7550.100608,536.266849
117.396899,3701.029710,6809.894666,306.438199
117.397220,4219.173869,7105.977043,-306.438199
117.397540,4737.318029,8142.265362,-995.924147
117.397861,4959.379811,8956.491898,-766.095498
117.398182,5477.523971,9770.718434,-536.266849
117.398503,5921.647536,10140.821405,-459.657299
117.398823,5995.668130,8956.491898,0.000000
117.399144,4663.297435,7179.997637,-459.657299
117.399465,3997.112087,6883.915261,-1225.752797
117.399786,5255.462188,7179.997637,-766.095498
117.400107,5847.626942,7254.018232,-1378.971896
117.400427,5773.606348,6883.915261,-306.438199
117.400748,5921.647536,7624.121203,76.609550
117.401069,5107.421000,9326.594869,689.485948
117.401390,4071.132681,8808.450710,612.876398
117.401711,5033.400406,7179.997637,76.609550
117.402031,5181.441594,6143.709319,-76.609550
117.402352,4737.318029,5921.647536,-689.485948
117.402673,5181.441594,6365.771101,-842.705048
117.402994,5329.482782,7550.100608,-1378.971896
117.403314,5847.626942,8734.430116,-919.314598
117.403635,6735.874072,9770.718434,76.609550
117.403956,6217.729913,9178.553681,-229.828649
117.404277,5329.482782,7476.080014,-459.657299
117.404598,4737.318029,6735.874072,229.828649
117.404918,4737.318029,6365.771101,153.219100
117.405239,5551.544565,6809.894666,-612.876398
117.405560,5699.585753,7105.977043,-919.314598
117.405881,6143.709319,8438.347739,-1149.143247
117.406202,6143.709319,9918.759623,229.828649
117.406522,5403.503377,10362.883188,995.924147
117.406843,4959.379811,8882.471304,766.095498
117.407164,4663.297435,7179.997637,459.657299
117.407485,4293.194464,6883.915261,689.485948
117.407806,4367.215058,7105.977043,459.657299
117.408126,4811.338623,7698.141797,-1225.752797
117.408447,4737.318029,8734.430116,-689.485948
117.408768,5107.421000,10066.800811,-766.095498
117.409089,5329.482782,10214.842000,76.609550
117.409409,5551.544565,9474.636058,459.657299
117.409730,4737.318029,8808.450710,842.705048
117.410051,3404.947333,7624.121203,76.609550
