#time,accel_x,accel_y,accel_z
185.199337,4811.338623,8216.285956,-153.219100
185.199658,4885.359217,8068.244768,-306.438199
185.199979,4885.359217,8290.306550,-306.438199
185.200300,5107.421000,7994.224174,-229.828649
185.200620,4959.379811,8068.244768,-306.438199
185.200941,4959.379811,7772.162391,76.609550
185.201262,4959.379811,8068.244768,0.000000
185.201583,4959.379811,7846.182985,0.000000
185.201904,4811.338623,8068.244768,-229.828649
185.202224,4811.338623,7920.203579,-459.657299
185.202545,4885.359217,8216.285956,-153.219100
185.202866,5033.400406,7846.182985,-306.438199
185.203187,5181.441594,7846.182985,0.000000
185.203507,4959.379811,8068.244768,0.000000
185.203828,5033.400406,7846.182985,76.609550
185.204149,4737.318029,8142.265362,-383.047749
185.204470,5033.400406,7920.203579,0.000000
185.204791,4959.379811,7994.224174,0.000000
185.205111,4737.318029,8216.285956,0.000000
185.205432,4811.338623,8216.285956,0.000000
185.205753,5181.441594,7846.182985,0.000000
185.206074,4959.379811,7994.224174,0.000000
185.206394,4811.338623,7846.182985,0.000000
185.206715,5107.421000,8364.327145,-153.219100
185.207036,5181.441594,8068.244768,-459.657299
185.207357,5033.400406,8068.244768,0.000000
185.207678,4811.338623,8142.265362,-153.219100
185.207998,4811.338623,8142.265362,-229.828649
185.208319,5255.462188,8142.265362,-383.047749
185.208640,4959.379811,7994.224174,-306.438199
185.208961,4737.318029,7994.224174,-229.828649
185.209281,4589.276840,7476.080014,-383.047749
185.209602,4441.235652,7698.141797,-306.438199
185.209923,4441.235652,8438.347739,153.219100
185.210244,4515.256246,9400.615463,-459.657299
185.210565,4515.256246,9918.759623,-919.314598
185.210885,4663.297435,9918.759623,-1225.752797
185.211206,4441.235652,9400.615463,-766.095498
185.211527,3775.050304,8808.450710,0.000000
185.211848,3034.844362,8512.368333,842.705048
185.212168,2886.803174,9252.574275,536.266849
185.212489,2812.782580,9104.533087,229.828649
185.212810,2812.782580,8808.450710,76.609550
185.213131,2516.700203,9178.553681,-229.828649
185.213452,3182.885551,9326.594869,-459.657299
185.213772,3330.926739,9400.615463,383.047749
185.214093,2590.720797,8956.491898,689.485948
185.214414,2442.679609,8660.409521,306.438199
185.214735,2220.617826,9030.512492,-229.828649
185.215055,2072.576638,10288.862594,-689.485948
185.215376,1924.535449,11695.253884,-1685.410096
185.215697,1702.473667,11917.315666,-1302.362347
185.216018,1406.391290,11325.150913,-689.485948
185.216339,1110.308913,11177.109724,-536.266849
185.216659,0.000000,11473.192101,-919.314598
185.216980,-1332.370696,12139.377449,-1072.533697
185.217301,-1776.494261,12805.562797,0.000000
185.217622,-1480.411884,11991.336260,1072.533697
185.217942,-1258.350101,11769.274478,1455.581446
185.218263,-1258.350101,11769.274478,1762.019645
185.218584,-2072.576638,12509.480420,1608.800546
185.218905,-2886.803174,12065.356855,766.095498
185.219226,-2516.700203,10584.944971,-306.438199
185.219546,-1332.370696,10140.821405,-306.438199
185.219867,-370.102971,9918.759623,459.657299
185.220188,-740.205942,10807.006753,919.314598
185.220509,-444.123565,10881.027347,306.438199
185.220829,592.164754,11251.130318,-919.314598
185.221150,1628.453072,11177.109724,-1378.971896
185.221471,1998.556043,10510.924376,-1149.143247
185.221792,2590.720797,10584.944971,-153.219100
185.222113,2812.782580,10732.986159,-229.828649
185.222433,2072.576638,10362.883188,-1532.190996
185.222754,2146.597232,9104.533087,-1838.629195
185.223075,2072.576638,9252.574275,-1378.971896
185.223396,1776.494261,9992.780217,-536.266849
185.223717,1702.473667,9992.780217,0.000000
185.224037,1628.453072,10288.862594,-536.266849
185.224358,1036.288319,11547.212695,-306.438199
185.224679,370.102971,10732.986159,383.047749
185.225000,-444.123565,10510.924376,689.485948
185.225320,-296.082377,9992.780217,306.438199
185.225641,0.000000,10066.800811,0.000000
185.225962,0.000000,10436.903782,919.314598
185.226283,-222.061783,10362.883188,536.266849
185.226604,-370.102971,10955.047942,842.705048
185.226924,740.205942,11325.150913,1302.362347
185.227245,1332.370696,11029.068536,459.657299
185.227566,1406.391290,10807.006753,-689.485948
185.227887,1110.308913,10881.027347,-1149.143247
185.228207,1702.473667,10362.883188,-612.876398
185.228528,1924.535449,9622.677246,0.000000
185.228849,1776.494261,8956.491898,153.219100
185.229170,2146.597232,8586.388927,76.609550
185.229491,2368.659014,9548.656652,-383.047749
185.229811,2294.638420,10732.986159,-536.266849
185.230132,2442.679609,10881.027347,-536.266849
185.230453,3182.885551,10658.965565,-766.095498
185.230774,3849.070898,10140.821405,-995.924147
185.231094,2886.803174,9770.718434,-842.705048
185.231415,2664.741391,9844.739029,-842.705048
185.231736,1924.535449,10807.006753,-995.924147
185.232057,1036.288319,11473.192101,-306.438199
185.232378,1406.391290,11177.109724,-689.485948
185.232698,1332.370696,10881.027347,-919.314598
185.233019,148.041188,10807.006753,-1532.190996
185.233340,-888.247130,10140.821405,-1225.752797
185.233661,-1480.411884,8956.491898,-612.876398
185.233981,-1332.370696,8660.409521,689.485948
185.234302,-666.185348,9918.759623,1685.410096
185.234623,-296.082377,11917.315666,1915.238745
185.234944,74.020594,13323.706956,995.924147
185.235265,0.000000,14211.954086,306.438199
185.235585,1184.329507,12953.603985,153.219100
185.235906,1480.411884,11547.212695,-229.828649
185.236227,1332.370696,10140.821405,0.000000
185.236548,518.144159,9474.636058,-612.876398
185.236868,148.041188,9400.615463,-1378.971896
185.237189,-1036.288319,9252.574275,-1532.190996
185.237510,-1406.391290,9400.615463,-1762.019645
185.237831,-814.226536,10140.821405,-1225.752797
185.238152,296.082377,11843.295072,153.219100
185.238472,666.185348,13397.727550,0.000000
185.238793,962.267725,13471.748144,-995.924147
185.239114,1480.411884,13323.706956,-689.485948
185.239435,1184.329507,12657.521608,-612.876398
185.239755,666.185348,11621.233289,-383.047749
185.240076,1332.370696,9104.533087,-229.828649
185.240397,1480.411884,8438.347739,-536.266849
185.240718,1110.308913,8956.491898,-76.609550
185.241039,148.041188,10362.883188,229.828649
185.241359,-592.164754,10732.986159,459.657299
185.241680,-370.102971,10510.924376,689.485948
185.242001,-666.185348,9326.594869,919.314598
185.242322,518.144159,8660.409521,689.485948
185.242642,1258.350101,9918.759623,0.000000
185.242963,1036.288319,11991.336260,-919.314598
185.243284,444.123565,12879.583391,-1838.629195
185.243605,962.267725,13767.830521,-2374.896044
185.243926,1628.453072,13767.830521,-1608.800546
185.244246,1036.288319,13471.748144,-306.438199
185.244567,296.082377,11991.336260,306.438199
185.244888,-296.082377,10066.800811,383.047749
185.245209,-148.041188,9400.615463,1532.190996
185.245529,-1332.370696,9400.615463,2451.505594
185.245850,-1332.370696,9178.553681,1378.971896
185.246171,-1850.514855,9178.553681,842.705048
185.246492,-1036.288319,9326.594869,1072.533697
185.246813,518.144159,9696.697840,76.609550
185.247133,666.185348,10732.986159,-229.828649
185.247454,2442.679609,12509.480420,-1225.752797
185.247775,2812.782580,13397.727550,-1302.362347
185.248096,1406.391290,11103.089130,-1302.362347
185.248417,1332.370696,7772.162391,-1225.752797
185.248737,2664.741391,6735.874072,-306.438199
185.249058,2960.823768,9178.553681,1455.581446
185.249379,2368.659014,11843.295072,995.924147
185.249700,1850.514855,12065.356855,-2221.676944
185.250020,1628.453072,11251.130318,-3983.696590
185.250341,2220.617826,9770.718434,-2451.505594
185.250662,148.041188,7402.059420,-306.438199
185.250983,-666.185348,7476.080014,-766.095498
185.251304,814.226536,9548.656652,-383.047749
185.251624,666.185348,13323.706956,-306.438199
185.251945,-1406.391290,14285.974681,689.485948
185.252266,-1110.308913,15100.201217,383.047749
185.252587,-1258.350101,14730.098246,153.219100
185.252907,-2590.720797,13249.686362,842.705048
185.253228,-1332.370696,9696.697840,1532.190996
185.253549,-1258.350101,9104.533087,383.047749
185.253870,-740.205942,10288.862594,766.095498
185.254191,-1332.370696,10807.006753,1532.190996
185.254511,-370.102971,10807.006753,0.000000
185.254832,444.123565,8956.491898,76.609550
185.255153,2368.659014,8808.450710,1532.190996
185.255474,3330.926739,9918.759623,1608.800546
185.255794,3478.967927,11547.212695,-459.657299
185.256115,3849.070898,12361.439231,-2145.067394
185.256436,3701.029710,11769.274478,-3140.991542
185.256757,3404.947333,8956.491898,-2834.553343
185.257078,3034.844362,7105.977043,-1302.362347
185.257398,2886.803174,8142.265362,-995.924147
185.257719,2590.720797,12435.459826,-689.485948
185.258040,1036.288319,14359.995275,-1608.800546
185.258361,1406.391290,13545.768739,-2068.457845
185.258681,1036.288319,10658.965565,-1149.143247
185.259002,-1480.411884,9030.512492,1608.800546
185.259323,-2664.741391,8882.471304,2221.676944
185.259643,-2220.617826,9770.718434,306.438199
185.259964,-1702.473667,12435.459826,-995.924147
185.260285,-1702.473667,13619.789333,-766.095498
185.260605,-1332.370696,13619.789333,-383.047749
185.260926,-1480.411884,13101.645173,1072.533697
185.261247,-2146.597232,11917.315666,2451.505594
185.261567,-1776.494261,10732.986159,2451.505594
185.261888,0.000000,10362.883188,1915.238745
185.262209,-444.123565,10584.944971,842.705048
185.262529,-444.123565,9844.739029,536.266849
185.262850,592.164754,9622.677246,919.314598
185.263171,2072.576638,8364.327145,153.219100
185.263491,2368.659014,7105.977043,-459.657299
185.263812,3997.112087,8142.265362,-153.219100
185.264132,4219.173869,9696.697840,-766.095498
185.264453,3775.050304,11251.130318,-1991.848295
185.264774,4589.276840,10807.006753,-2298.286494
185.265094,5551.544565,9770.718434,-2451.505594
185.265415,3404.947333,8216.285956,-2374.896044
185.265736,2442.679609,7920.203579,-1532.190996
185.266056,2738.761985,9992.780217,-1149.143247
185.266377,666.185348,12213.398043,-1608.800546
185.266698,222.061783,12435.459826,-2451.505594
185.267018,518.144159,10436.903782,-2604.724693
185.267339,74.020594,9474.636058,306.438199
185.267659,74.020594,11843.295072,3370.820191
185.267980,-2294.638420,11991.336260,3294.210641
185.268301,-3775.050304,11547.212695,1225.752797
185.268621,-4071.132681,11695.253884,536.266849
185.268942,-3034.844362,12953.603985,1378.971896
185.269263,-2664.741391,13101.645173,1149.143247
185.269583,-1776.494261,11769.274478,689.485948
185.269904,-518.144159,11769.274478,1149.143247
185.270225,-1628.453072,11843.295072,1685.410096
185.270545,-666.185348,12287.418637,1149.143247
185.270866,148.041188,12287.418637,1072.533697
185.271186,1036.288319,10362.883188,153.219100
185.271507,3404.947333,8512.368333,842.705048
185.271828,4145.153275,7550.100608,-306.438199
185.272148,2368.659014,7402.059420,-2374.896044
185.272469,4293.194464,9992.780217,-2451.505594
185.272790,6143.709319,11991.336260,-1532.190996
185.273110,4367.215058,10362.883188,-2528.115143
185.273431,4737.318029,8586.388927,-2374.896044
185.273752,5329.482782,8882.471304,-2068.457845
185.274072,2072.576638,11547.212695,-1225.752797
185.274393,0.000000,12361.439231,0.000000
185.274713,666.185348,11103.089130,-1608.800546
185.275034,666.185348,10362.883188,-2987.772442
185.275355,0.000000,10881.027347,-1838.629195
185.275675,-2368.659014,12213.398043,842.705048
185.275996,-2442.679609,12879.583391,1838.629195
185.276317,-2442.679609,13101.645173,3294.210641
185.276637,-2072.576638,11251.130318,3600.648841
185.276958,-1480.411884,9104.533087,2145.067394
185.277279,-444.123565,10658.965565,3447.429741
185.277599,-2146.597232,11991.336260,3140.991542
185.277920,-444.123565,11399.171507,1685.410096
185.278240,1776.494261,7698.141797,1149.143247
185.278561,2960.823768,5773.606348,1532.190996
185.278882,4293.194464,7179.997637,2987.772442
185.279202,3775.050304,8808.450710,1378.971896
185.279523,2960.823768,8512.368333,-3217.601092
185.279844,7254.018232,7105.977043,-3830.477490
185.280164,9992.780217,7328.038826,-995.924147
185.280485,10584.944971,8068.244768,153.219100
185.280806,8290.306550,6809.894666,-1915.238745
185.281126,7328.038826,7328.038826,-4443.353888
185.281447,7105.977043,8216.285956,-3983.696590
185.281767,7179.997637,6809.894666,-1455.581446
185.282088,7328.038826,5477.523971,-1685.410096
185.282409,8660.409521,7105.977043,-2221.676944
185.282729,6069.688724,8216.285956,-919.314598
185.283050,2960.823768,7772.162391,-459.657299
185.283371,3256.906145,5921.647536,153.219100
185.283691,4589.276840,7550.100608,2145.067394
185.284012,3330.926739,8512.368333,3294.210641
185.284333,1702.473667,7105.977043,2451.505594
185.284653,2886.803174,5625.565159,1378.971896
185.284974,3404.947333,6513.812290,1608.800546
185.285294,3330.926739,6809.894666,1378.971896
185.285615,4885.359217,7179.997637,536.266849
185.285936,6291.750507,8216.285956,-612.876398
185.286256,7031.956449,9474.636058,0.000000
185.286577,6439.791695,8882.471304,-229.828649
185.286898,6883.915261,7105.977043,-1762.019645
185.287218,7105.977043,7624.121203,-2757.943793
185.287539,7105.977043,8364.327145,-1378.971896
185.287860,6735.874072,7846.182985,-2145.067394
185.288180,5699.585753,5995.668130,-2604.724693
185.288501,5255.462188,7105.977043,-3140.991542
185.288822,6957.935855,10584.944971,-995.924147
185.289142,4145.153275,11251.130318,0.000000
185.289463,4219.173869,9400.615463,-1608.800546
185.289783,4959.379811,7994.224174,-1532.190996
185.290104,3404.947333,8956.491898,-689.485948
185.290425,2072.576638,10214.842000,689.485948
185.290745,2664.741391,10436.903782,1455.581446
185.291066,2516.700203,9400.615463,0.000000
185.291387,5107.421000,9178.553681,-383.047749
185.291707,4219.173869,9326.594869,-459.657299
185.292028,3034.844362,9252.574275,-1225.752797
185.292349,3552.988522,9178.553681,306.438199
185.292669,3404.947333,7772.162391,459.657299
185.292990,3997.112087,5255.462188,459.657299
185.293310,5107.421000,5773.606348,1302.362347
185.293631,4885.359217,10066.800811,1685.410096
185.293952,3997.112087,13175.665768,-306.438199
185.294272,4441.235652,10140.821405,-1225.752797
185.294593,5921.647536,6809.894666,-2451.505594
185.294914,7476.080014,5921.647536,76.609550
185.295234,7550.100608,8586.388927,1225.752797
185.295555,4293.194464,8438.347739,-1149.143247
185.295876,4293.194464,7550.100608,-3217.601092
185.296196,8364.327145,6513.812290,-306.438199
185.296517,5255.462188,5329.482782,1532.190996
185.296837,6957.935855,4441.235652,842.705048
185.297158,7402.059420,7105.977043,-842.705048
185.297479,4071.132681,7328.038826,-2221.676944
185.297799,5921.647536,5847.626942,-1455.581446
185.298120,8142.265362,2960.823768,229.828649
185.298441,6069.688724,4959.379811,-383.047749
185.298761,6883.915261,9992.780217,919.314598
185.299082,4441.235652,11547.212695,0.000000
185.299403,4959.379811,10066.800811,-2604.724693
185.299723,7772.162391,9178.553681,-459.657299
185.300044,7105.977043,8586.388927,1302.362347
185.300364,4515.256246,8512.368333,842.705048
185.300685,2960.823768,7920.203579,1608.800546
185.301006,2146.597232,7550.100608,1302.362347
185.301326,1628.453072,5699.585753,1838.629195
185.301647,4145.153275,4737.318029,3294.210641
185.301968,4367.215058,7476.080014,2604.724693
185.302288,4145.153275,9400.615463,995.924147
185.302609,3256.906145,8512.368333,-612.876398
185.302930,3478.967927,5699.585753,-1072.533697
185.303250,4737.318029,6291.750507,1378.971896
185.303571,6217.729913,9474.636058,2604.724693
185.303891,4441.235652,10436.903782,-2374.896044
185.304212,6587.832884,9918.759623,-5362.668486
185.304533,7920.203579,10140.821405,-3830.477490
185.304853,6365.771101,7550.100608,-1608.800546
185.305174,6735.874072,6513.812290,612.876398
185.305495,5995.668130,7105.977043,1378.971896
185.305815,4293.194464,9178.553681,-306.438199
185.306136,5181.441594,7994.224174,76.609550
185.306457,4811.338623,5551.544565,-919.314598
185.306777,5181.441594,6735.874072,-1072.533697
185.307098,5403.503377,8808.450710,1455.581446
185.307418,4367.215058,9474.636058,536.266849
185.307739,4145.153275,8734.430116,-1072.533697
185.308060,3997.112087,9104.533087,-919.314598
185.308380,2146.597232,8882.471304,-153.219100
185.308701,1036.288319,8364.327145,842.705048
185.309022,3627.009116,8512.368333,1302.362347
185.309342,3849.070898,9474.636058,0.000000
185.309663,4071.132681,9474.636058,-689.485948
185.309984,3552.988522,8660.409521,-1455.581446
185.310304,4367.215058,8808.450710,-536.266849
185.310625,4959.379811,8882.471304,1072.533697
185.310945,5921.647536,8660.409521,612.876398
185.311266,7476.080014,7994.224174,-536.266849
185.311587,8216.285956,7179.997637,536.266849
185.311907,6735.874072,7624.121203,153.219100
185.312228,6883.915261,6957.935855,-612.876398
185.312549,7328.038826,5773.606348,-1455.581446
185.312869,6735.874072,6661.853478,-2604.724693
185.313190,6143.709319,6365.771101,-1225.752797
185.313511,6513.812290,6661.853478,306.438199
185.313831,7031.956449,5995.668130,306.438199
185.314152,7179.997637,7031.956449,-612.876398
185.314472,7624.121203,8142.265362,-1685.410096
185.314793,5107.421000,7550.100608,-3217.601092
185.315114,4885.359217,7624.121203,-2298.286494
185.315434,7179.997637,9030.512492,1838.629195
185.315755,7105.977043,8882.471304,1378.971896
185.316076,6439.791695,8808.450710,-612.876398
185.316396,6217.729913,8956.491898,-1991.848295
185.316717,3701.029710,8290.306550,-2145.067394
185.317038,4293.194464,7254.018232,919.314598
185.317358,3256.906145,6217.729913,2834.553343
185.317679,2368.659014,6291.750507,1838.629195
185.318000,2516.700203,9696.697840,2068.457845
185.318320,2220.617826,12435.459826,-612.876398
185.318641,2072.576638,10510.924376,-1608.800546
185.318961,4737.318029,8808.450710,383.047749
185.319282,5255.462188,7920.203579,1915.238745
185.319603,3330.926739,6809.894666,1532.190996
185.319923,2812.782580,7105.977043,1149.143247
185.320244,4663.297435,9844.739029,229.828649
185.320565,5551.544565,10214.842000,459.657299
185.320885,5773.606348,7994.224174,612.876398
185.321206,7105.977043,5699.585753,-1072.533697
185.321527,6365.771101,5699.585753,-1838.629195
185.321847,5033.400406,6661.853478,459.657299
185.322168,6143.709319,6809.894666,-306.438199
185.322488,5995.668130,6365.771101,-2221.676944
185.322809,6365.771101,7402.059420,-2451.505594
185.323130,6143.709319,8660.409521,-1532.190996
185.323450,3923.091493,8660.409521,-842.705048
185.323771,5551.544565,10066.800811,153.219100
185.324092,5847.626942,9178.553681,-306.438199
185.324412,4145.153275,7105.977043,-1149.143247
185.324733,4589.276840,7105.977043,-842.705048
185.325054,4145.153275,8956.491898,919.314598
185.325374,2960.823768,8808.450710,1455.581446
185.325695,3627.009116,5921.647536,536.266849
185.326015,5255.462188,4145.153275,76.609550
185.326336,5033.400406,4959.379811,306.438199
185.326657,4441.235652,6143.709319,1532.190996
185.326977,5107.421000,7031.956449,229.828649
185.327298,6883.915261,7402.059420,0.000000
185.327619,8068.244768,8512.368333,919.314598
185.327939,7328.038826,8068.244768,-1378.971896
185.328260,7254.018232,8586.388927,-3064.381992
185.328581,8068.244768,9992.780217,-1685.410096
185.328901,7105.977043,10288.862594,-1225.752797
185.329222,6439.791695,7624.121203,-1302.362347
185.329542,6439.791695,6365.771101,-842.705048
185.329863,5181.441594,8438.347739,306.438199
185.330184,3330.926739,9326.594869,919.314598
185.330504,4515.256246,8586.388927,-536.266849
185.330825,4959.379811,7105.977043,-1762.019645
185.331146,5329.482782,5995.668130,-229.828649
185.331466,5181.441594,6735.874072,1378.971896
185.331787,3923.091493,8734.430116,1455.581446
185.332108,3330.926739,11251.130318,76.609550
185.332428,5107.421000,12213.398043,-919.314598
185.332749,4367.215058,10214.842000,-1762.019645
185.333069,4959.379811,8068.244768,-1455.581446
185.333390,5773.606348,9474.636058,1302.362347
185.333711,3997.112087,11103.089130,995.924147
185.334031,1628.453072,9918.759623,-689.485948
185.334352,3923.091493,8512.368333,-306.438199
185.334673,3256.906145,8438.347739,459.657299
185.334993,3923.091493,8660.409521,1991.848295
185.335314,4293.194464,8808.450710,2604.724693
185.335635,3034.844362,6883.915261,-306.438199
185.335955,3923.091493,6365.771101,-919.314598
185.336276,4737.318029,7550.100608,-383.047749
185.336596,3775.050304,7624.121203,-1838.629195
185.336917,3775.050304,8882.471304,-842.705048
185.337238,4885.359217,10658.965565,689.485948
185.337558,4663.297435,9474.636058,0.000000
185.337879,3775.050304,6513.812290,-2145.067394
185.338200,4145.153275,5995.668130,-3140.991542
185.338520,4663.297435,8512.368333,-2068.457845
185.338841,3552.988522,8438.347739,0.000000
185.339162,5773.606348,7476.080014,0.000000
185.339482,6809.894666,6439.791695,536.266849
185.339803,6883.915261,7772.162391,1302.362347
185.340123,5995.668130,9474.636058,2221.676944
185.340444,5403.503377,7402.059420,-153.219100
185.340765,5921.647536,5773.606348,-1608.800546
185.341085,7550.100608,4515.256246,-612.876398
185.341406,6143.709319,4367.215058,76.609550
185.341727,5477.523971,6143.709319,1378.971896
185.342047,3478.967927,9252.574275,689.485948
185.342368,2886.803174,8734.430116,-1149.143247
185.342689,5477.523971,7994.224174,-766.095498
185.343009,6661.853478,7994.224174,0.000000
185.343330,5329.482782,9400.615463,-229.828649
185.343651,5551.544565,9844.739029,842.705048
185.343971,4145.153275,9400.615463,0.000000
185.344292,4367.215058,8364.327145,-383.047749
185.344612,5847.626942,9178.553681,1838.629195
185.344933,5625.565159,8734.430116,1225.752797
185.345254,5329.482782,8142.265362,229.828649
185.345574,4811.338623,7328.038826,-459.657299
185.345895,4071.132681,6513.812290,-842.705048
185.346216,6661.853478,6291.750507,766.095498
185.346536,4737.318029,6513.812290,842.705048
185.346857,3997.112087,6883.915261,536.266849
185.347178,4589.276840,9030.512492,0.000000
185.347498,6143.709319,10214.842000,-919.314598
185.347819,5773.606348,9696.697840,-1608.800546
185.348139,7920.203579,9474.636058,-1608.800546
185.348460,7105.977043,9104.533087,-1532.190996
185.348781,3923.091493,7254.018232,-459.657299
185.349101,3701.029710,7179.997637,1225.752797
185.349422,5625.565159,9030.512492,1455.581446
185.349743,3182.885551,7920.203579,0.000000
185.350063,4737.318029,8142.265362,-919.314598
185.350384,5107.421000,7772.162391,-2145.067394
185.350705,3775.050304,7624.121203,-1225.752797
185.351025,2738.761985,6809.894666,919.314598
185.351346,4219.173869,7105.977043,229.828649
185.351666,4071.132681,8364.327145,229.828649
185.351987,2442.679609,9030.512492,383.047749
185.352308,2738.761985,10140.821405,-995.924147
185.352628,3997.112087,11177.109724,-766.095498
185.352949,3997.112087,12731.542202,153.219100
185.353270,4145.153275,10066.800811,-766.095498
185.353590,4219.173869,7179.997637,-1072.533697
185.353911,3849.070898,6809.894666,-229.828649
185.354232,1924.535449,8586.388927,1532.190996
185.354552,1480.411884,8290.306550,1608.800546
185.354873,4071.132681,7476.080014,-153.219100
185.355193,5921.647536,6735.874072,-995.924147
185.355514,5921.647536,6661.853478,0.000000
185.355835,6365.771101,7624.121203,-536.266849
185.356155,3923.091493,8290.306550,-1532.190996
185.356476,3701.029710,8956.491898,-919.314598
185.356797,6735.874072,9104.533087,689.485948
185.357117,6809.894666,9474.636058,-229.828649
185.357438,6143.709319,10510.924376,-1072.533697
185.357759,6217.729913,12139.377449,-1991.848295
185.358079,3330.926739,10288.862594,-2834.553343
185.358400,3034.844362,7624.121203,-842.705048
185.358720,4737.318029,4811.338623,3064.381992
185.359041,4737.318029,5329.482782,3524.039291
185.359362,4367.215058,7550.100608,3217.601092
185.359682,3478.967927,8882.471304,306.438199
185.360003,4145.153275,8438.347739,-2374.896044
185.360323,7105.977043,6513.812290,-766.095498
185.360644,7476.080014,5107.421000,1991.848295
185.360964,6513.812290,4737.318029,1991.848295
185.361285,6291.750507,7772.162391,919.314598
185.361606,4885.359217,10436.903782,-1149.143247
185.361926,5033.400406,10288.862594,-3217.601092
185.362247,8882.471304,7772.162391,-1838.629195
185.362567,8512.368333,7105.977043,-842.705048
185.362888,6883.915261,7328.038826,76.609550
185.363208,4737.318029,7179.997637,0.000000
185.363529,4071.132681,5551.544565,-306.438199
185.363850,5033.400406,5773.606348,229.828649
185.364170,6291.750507,7550.100608,2451.505594
185.364491,5699.585753,7624.121203,459.657299
185.364811,5181.441594,8216.285956,0.000000
185.365132,5847.626942,8216.285956,0.000000
185.365452,5477.523971,7476.080014,-383.047749
185.365773,4071.132681,6069.688724,-766.095498
185.366094,3256.906145,6365.771101,-1532.190996
185.366414,2220.617826,7772.162391,-536.266849
185.366735,1924.535449,9548.656652,459.657299
185.367055,4219.173869,10362.883188,459.657299
185.367376,4589.276840,10066.800811,-766.095498
185.367696,3849.070898,9844.739029,-1762.019645
185.368017,3256.906145,9770.718434,-1455.581446
185.368338,3182.885551,8586.388927,-383.047749
185.368658,4737.318029,8438.347739,995.924147
185.368979,5255.462188,9474.636058,1378.971896
185.369299,4367.215058,9918.759623,689.485948
185.369620,5255.462188,9770.718434,-383.047749
185.369940,5403.503377,9030.512492,229.828649
185.370261,3478.967927,5773.606348,153.219100
185.370582,5255.462188,5551.544565,536.266849
185.370902,4367.215058,6809.894666,536.266849
185.371223,2368.659014,8438.347739,-306.438199
185.371543,5403.503377,9252.574275,-383.047749
185.371864,7105.977043,8808.450710,-1455.581446
185.372184,5625.565159,10066.800811,-2221.676944
185.372505,6735.874072,10732.986159,-1072.533697
185.372826,5329.482782,8734.430116,-1608.800546
185.373146,6217.729913,6661.853478,-842.705048
185.373467,6587.832884,6957.935855,2834.553343
185.373787,5625.565159,8882.471304,842.705048
185.374108,5551.544565,10658.965565,-1225.752797
185.374428,5773.606348,9918.759623,-536.266849
185.374749,4737.318029,6291.750507,-306.438199
185.375070,4663.297435,3256.906145,1915.238745
185.375390,5329.482782,3330.926739,2374.896044
185.375711,2886.803174,6143.709319,229.828649
185.376031,2960.823768,8734.430116,-229.828649
185.376352,5181.441594,9770.718434,-689.485948
185.376672,6809.894666,9400.615463,-306.438199
185.376993,6291.750507,8660.409521,766.095498
185.377314,7550.100608,11103.089130,536.266849
185.377634,4737.318029,9178.553681,-1302.362347
185.377955,3552.988522,6513.812290,-2604.724693
185.378275,6143.709319,6069.688724,-842.705048
185.378596,5847.626942,5773.606348,995.924147
185.378916,4219.173869,7624.121203,2374.896044
185.379237,4663.297435,8438.347739,766.095498
185.379558,5921.647536,7328.038826,-842.705048
185.379878,6439.791695,5329.482782,-306.438199
185.380199,5995.668130,4441.235652,459.657299
185.380519,4811.338623,4737.318029,306.438199
185.380840,5255.462188,7846.182985,0.000000
185.381160,5625.565159,9474.636058,-766.095498
185.381481,6809.894666,9400.615463,-1991.848295
185.381802,7550.100608,9770.718434,-1915.238745
185.382122,7328.038826,11103.089130,-1378.971896
185.382443,4219.173869,9474.636058,-766.095498
185.382763,3330.926739,6661.853478,-153.219100
185.383084,5477.523971,5699.585753,76.609550
185.383404,4885.359217,6957.935855,1072.533697
185.383725,3404.947333,8142.265362,1225.752797
185.384046,4663.297435,8882.471304,-536.266849
185.384366,3849.070898,9178.553681,-1532.190996
185.384687,4885.359217,7920.203579,306.438199
185.385007,5329.482782,6735.874072,1838.629195
185.385328,3849.070898,6809.894666,689.485948
185.385648,3182.885551,9252.574275,306.438199
185.385969,3701.029710,11473.192101,-306.438199
185.386290,2738.761985,11695.253884,-2528.115143
185.386610,6069.688724,10362.883188,-1072.533697
185.386931,6217.729913,9844.739029,153.219100
185.387251,3997.112087,8808.450710,-229.828649
185.387572,3404.947333,7846.182985,-229.828649
185.387892,3478.967927,7624.121203,-689.485948
185.388213,5107.421000,8956.491898,229.828649
185.388534,6143.709319,9326.594869,1378.971896
185.388854,5921.647536,8438.347739,766.095498
185.389175,6143.709319,8808.450710,766.095498
185.389495,6735.874072,9548.656652,1762.019645
185.389816,4145.153275,7698.141797,76.609550
185.390136,5329.482782,4663.297435,-2221.676944
185.390457,6661.853478,5255.462188,-1838.629195
185.390778,4071.132681,5551.544565,-459.657299
185.391098,4441.235652,7105.977043,-153.219100
185.391419,7105.977043,9548.656652,-842.705048
185.391739,5921.647536,10140.821405,-3064.381992
185.392060,5699.585753,9622.677246,-2145.067394
185.392380,7328.038826,8290.306550,76.609550
185.392701,6143.709319,7550.100608,536.266849
185.393022,5921.647536,8660.409521,2451.505594
185.393342,5329.482782,8438.347739,919.314598
185.393663,5329.482782,7328.038826,-1455.581446
185.393983,4737.318029,6439.791695,-306.438199
185.394304,4515.256246,5847.626942,919.314598
185.394624,4811.338623,5625.565159,919.314598
185.394945,4071.132681,5403.503377,1378.971896
185.395266,4589.276840,7105.977043,306.438199
185.395586,3923.091493,7179.997637,76.609550
185.395907,5033.400406,7846.182985,-1149.143247
185.396227,5477.523971,8882.471304,-383.047749
185.396548,4885.359217,10584.944971,-995.924147
185.396868,5255.462188,9474.636058,-1149.143247
185.397189,5773.606348,8438.347739,-689.485948
185.397510,4737.318029,7994.224174,1532.190996
185.397830,4737.318029,9770.718434,1532.190996
185.398151,4441.235652,10214.842000,536.266849
185.398471,4145.153275,8290.306550,-1532.190996
185.398792,5699.585753,6587.832884,-995.924147
185.399112,6809.894666,4811.338623,1838.629195
185.399433,5699.585753,4737.318029,1762.019645
185.399754,4515.256246,5921.647536,1378.971896
185.400074,2960.823768,7105.977043,-1072.533697
185.400395,4885.359217,9104.533087,-1685.410096
185.400715,6957.935855,10066.800811,0.000000
185.401036,7031.956449,9622.677246,536.266849
185.401356,8068.244768,10140.821405,0.000000
185.401677,6883.915261,9918.759623,-612.876398
185.401998,3404.947333,8882.471304,-1608.800546
185.402318,5477.523971,6439.791695,-1302.362347
185.402639,5921.647536,5033.400406,-306.438199
185.402959,3701.029710,6439.791695,1149.143247
185.403280,4663.297435,8364.327145,1149.143247
185.403600,4959.379811,9326.594869,-995.924147
185.403921,3552.988522,8586.388927,-2451.505594
185.404242,5847.626942,6883.915261,-459.657299
185.404562,5255.462188,5995.668130,383.047749
185.404883,3478.967927,6957.935855,229.828649
185.405203,4071.132681,9252.574275,383.047749
185.405524,4515.256246,10955.047942,-612.876398
185.405844,3775.050304,10362.883188,-1302.362347
185.406165,5625.565159,10584.944971,0.000000
185.406486,4885.359217,9474.636058,-612.876398
185.406806,3404.947333,8808.450710,-1838.629195
185.407127,3330.926739,8586.388927,76.609550
185.407447,5329.482782,9252.574275,0.000000
185.407768,3182.885551,7624.121203,306.438199
185.408088,3182.885551,5773.606348,612.876398
185.408409,3256.906145,5107.421000,459.657299
185.408730,4515.256246,7328.038826,919.314598
185.409050,4737.318029,9326.594869,919.314598
185.409371,4737.318029,8882.471304,-1149.143247
185.409691,5847.626942,7105.977043,-2068.457845
185.410012,7105.977043,8512.368333,-459.657299
185.410332,6365.771101,9326.594869,-689.485948
185.410653,5995.668130,7698.141797,-2298.286494
185.410974,6513.812290,7402.059420,-3447.429741
185.411294,6513.812290,6587.832884,-2145.067394
185.411615,5477.523971,7105.977043,-383.047749
185.411935,6957.935855,7179.997637,459.657299
185.412256,5551.544565,9474.636058,-306.438199
185.412576,5033.400406,10140.821405,-689.485948
185.412897,5921.647536,8586.388927,-689.485948
185.413218,6439.791695,6291.750507,383.047749
185.413538,5699.585753,6587.832884,689.485948
185.413859,5107.421000,8808.450710,1149.143247
185.414179,3330.926739,8956.491898,-612.876398
185.414500,962.267725,6957.935855,-1685.410096
185.414820,4737.318029,7624.121203,1149.143247
185.415141,6291.750507,8364.327145,2681.334243
185.415462,2442.679609,7772.162391,0.000000
185.415782,3404.947333,9326.594869,-2451.505594
185.416103,4737.318029,11399.171507,-2528.115143
185.416423,4663.297435,10066.800811,-1302.362347
185.416744,5699.585753,6143.709319,1455.581446
185.417064,5255.462188,6143.709319,1762.019645
185.417385,5033.400406,9992.780217,1838.629195
185.417706,4663.297435,11843.295072,1225.752797
185.418026,4219.173869,9548.656652,-1302.362347
185.418347,7105.977043,7994.224174,-1302.362347
185.418667,7328.038826,7179.997637,306.438199
185.418988,3182.885551,4515.256246,-459.657299
185.419308,3182.885551,3404.947333,-306.438199
185.419629,4367.215058,6069.688724,459.657299
185.419950,4219.173869,7994.224174,306.438199
185.420270,4737.318029,8068.244768,-919.314598
185.420591,6291.750507,9178.553681,-1838.629195
185.420911,6069.688724,11843.295072,-2451.505594
185.421232,5477.523971,10584.944971,-1225.752797
185.421552,6439.791695,7179.997637,-1762.019645
185.421873,7105.977043,5847.626942,-995.924147
185.422194,3775.050304,6809.894666,1685.410096
185.422514,2368.659014,8808.450710,1072.533697
185.422835,3997.112087,8734.430116,-919.314598
185.423155,4737.318029,9104.533087,-383.047749
185.423476,4885.359217,8142.265362,536.266849
185.423796,4367.215058,4737.318029,0.000000
185.424117,4145.153275,3997.112087,-766.095498
185.424438,4663.297435,7328.038826,229.828649
185.424758,4293.194464,9548.656652,1378.971896
185.425079,4293.194464,8142.265362,-1378.971896
185.425399,5921.647536,7476.080014,-1302.362347
185.425720,7179.997637,11325.150913,0.000000
185.426040,6513.812290,12509.480420,76.609550
185.426361,4885.359217,9770.718434,-1838.629195
185.426682,5921.647536,8068.244768,-2681.334243
185.427002,5773.606348,8216.285956,-306.438199
185.427323,4737.318029,6587.832884,1838.629195
185.427643,4811.338623,7402.059420,1455.581446
185.427964,5181.441594,8734.430116,-612.876398
185.428284,3404.947333,8808.450710,-766.095498
185.428605,4515.256246,6735.874072,-612.876398
185.428926,5477.523971,5551.544565,153.219100
185.429246,6291.750507,8586.388927,1685.410096
185.429567,4811.338623,10436.903782,536.266849
185.429887,2368.659014,9178.553681,-3447.429741
185.430208,4293.194464,9400.615463,-3140.991542
185.430528,6809.894666,10288.862594,459.657299
185.430849,6439.791695,10066.800811,1302.362347
185.431170,3997.112087,9104.533087,-842.705048
185.431490,3997.112087,10140.821405,-1149.143247
185.431811,2738.761985,10732.986159,0.000000
185.432131,2590.720797,8808.450710,1685.410096
185.432452,4811.338623,6069.688724,1378.971896
185.432772,4885.359217,6217.729913,995.924147
185.433093,3923.091493,7254.018232,0.000000
185.433414,3478.967927,7179.997637,612.876398
185.433734,3256.906145,5477.523971,306.438199
185.434055,4885.359217,7698.141797,1685.410096
185.434375,5033.400406,9918.759623,1455.581446
185.434696,4071.132681,8512.368333,-1838.629195
185.435016,6735.874072,9326.594869,-3753.867940
185.435337,7254.018232,9252.574275,-2451.505594
185.435658,5773.606348,8290.306550,-1378.971896
185.435978,5625.565159,7476.080014,0.000000
185.436299,4367.215058,6439.791695,0.000000
185.436619,3478.967927,7550.100608,689.485948
185.436940,4219.173869,7772.162391,1532.190996
185.437260,5625.565159,8290.306550,-919.314598
185.437581,6143.709319,6735.874072,-612.876398
185.437902,6661.853478,5921.647536,536.266849
185.438222,5477.523971,6735.874072,229.828649
185.438543,4737.318029,7476.080014,229.828649
185.438863,4367.215058,8512.368333,612.876398
185.439184,5477.523971,9252.574275,-153.219100
185.439504,6069.688724,9474.636058,-995.924147
185.439825,4663.297435,8586.388927,-1225.752797
185.440146,4663.297435,8586.388927,-1302.362347
185.440466,4663.297435,8290.306550,-612.876398
185.440787,3108.864956,7772.162391,-766.095498
185.441107,3849.070898,6735.874072,-536.266849
185.441428,4811.338623,7772.162391,-383.047749
185.441748,4441.235652,9400.615463,229.828649
185.442069,4071.132681,8660.409521,1149.143247
185.442390,6069.688724,8438.347739,1532.190996
185.442710,7105.977043,8290.306550,0.000000
185.443031,6291.750507,8216.285956,-459.657299
185.443351,6291.750507,8364.327145,-2145.067394
185.443672,4589.276840,8068.244768,-2451.505594
185.443992,5255.462188,8586.388927,-153.219100
185.444313,6513.812290,8290.306550,1302.362347
185.444634,4959.379811,6439.791695,-153.219100
185.444954,5403.503377,7328.038826,-1991.848295
185.445275,4219.173869,9548.656652,-3140.991542
185.445595,2886.803174,9918.759623,-2451.505594
185.445916,5255.462188,7772.162391,-306.438199
185.446236,6439.791695,6587.832884,1149.143247
185.446557,5403.503377,7698.141797,2068.457845
185.446878,5551.544565,9326.594869,2451.505594
185.447198,3404.947333,8956.491898,-689.485948
185.447519,5329.482782,8734.430116,-1991.848295
185.447839,7698.141797,7920.203579,-766.095498
185.448160,5773.606348,6587.832884,-995.924147
185.448480,6217.729913,7031.956449,0.000000
185.448801,5847.626942,7920.203579,1302.362347
185.449122,4145.153275,7846.182985,-612.876398
185.449442,5403.503377,7105.977043,-2298.286494
185.449763,5477.523971,7624.121203,-2528.115143
185.450083,5329.482782,9622.677246,-1991.848295
185.450404,4885.359217,9844.739029,1149.143247
185.450724,6143.709319,9696.697840,1608.800546
185.451045,5921.647536,10510.924376,1455.581446
185.451366,2960.823768,10732.986159,689.485948
185.451686,1776.494261,9770.718434,-842.705048
185.452007,3108.864956,7994.224174,0.000000
185.452327,2664.741391,6735.874072,2451.505594
185.452648,4589.276840,6883.915261,3524.039291
185.452968,3627.009116,6217.729913,1225.752797
185.453289,2146.597232,7476.080014,-1991.848295
185.453610,3627.009116,8956.491898,-1072.533697
185.453930,4367.215058,7402.059420,536.266849
185.454251,6291.750507,6587.832884,76.609550
185.454571,6957.935855,7476.080014,612.876398
185.454892,6143.709319,9400.615463,0.000000
185.455212,6513.812290,9992.780217,153.219100
185.455533,6069.688724,9030.512492,76.609550
185.455854,6735.874072,8364.327145,-842.705048
185.456174,7105.977043,8586.388927,-919.314598
185.456495,5773.606348,7328.038826,-1225.752797
185.456815,5551.544565,6217.729913,-766.095498
185.457136,6957.935855,4293.194464,995.924147
185.457456,6365.771101,3478.967927,1225.752797
185.457777,4515.256246,3997.112087,0.000000
185.458098,3182.885551,5921.647536,-1225.752797
185.458418,4367.215058,9104.533087,-842.705048
185.458739,5329.482782,9992.780217,0.000000
185.459059,5181.441594,7994.224174,153.219100
185.459380,6513.812290,8142.265362,-536.266849
185.459700,7105.977043,9696.697840,0.000000
185.460021,3775.050304,9474.636058,-689.485948
185.460342,2442.679609,7698.141797,-306.438199
185.460662,5403.503377,9252.574275,842.705048
185.460983,6735.874072,11177.109724,2528.115143
185.461303,4367.215058,10140.821405,2528.115143
185.461624,6069.688724,6365.771101,-766.095498
185.461944,5329.482782,3182.885551,-2298.286494
185.462265,4219.173869,3108.864956,-229.828649
185.462585,4367.215058,4737.318029,2298.286494
185.462906,5255.462188,7105.977043,1838.629195
185.463227,5551.544565,9844.739029,-153.219100
185.463547,7550.100608,11621.233289,-1149.143247
185.463868,5773.606348,10510.924376,-3294.210641
185.464188,5699.585753,9326.594869,-3600.648841
185.464509,6143.709319,10214.842000,-1072.533697
185.464829,6069.688724,9696.697840,0.000000
185.465150,6809.894666,8882.471304,689.485948
185.465471,4959.379811,7328.038826,459.657299
185.465791,3552.988522,7994.224174,229.828649
185.466112,4145.153275,8290.306550,2145.067394
185.466432,4293.194464,7994.224174,459.657299
185.466753,5255.462188,6069.688724,-689.485948
185.467073,6143.709319,5107.421000,-383.047749
185.467394,5551.544565,6513.812290,766.095498
185.467714,3923.091493,8956.491898,1072.533697
185.468035,3849.070898,10288.862594,766.095498
185.468356,5699.585753,11103.089130,-1225.752797
185.468676,6069.688724,9474.636058,-2451.505594
185.468997,7031.956449,9104.533087,-1762.019645
185.469317,4811.338623,8734.430116,-689.485948
185.469638,2442.679609,7328.038826,-536.266849
185.469958,3108.864956,7328.038826,0.000000
185.470279,4737.318029,6957.935855,0.000000
185.470600,5551.544565,7698.141797,536.266849
185.470920,4589.276840,8660.409521,1532.190996
185.471241,5033.400406,8734.430116,689.485948
185.471561,5181.441594,7550.100608,766.095498
185.471882,5551.544565,6883.915261,612.876398
185.472202,5921.647536,6365.771101,0.000000
185.472523,6143.709319,8586.388927,0.000000
185.472843,3997.112087,9622.677246,76.609550
185.473164,3108.864956,10214.842000,-229.828649
185.473485,4071.132681,8734.430116,-536.266849
185.473805,5255.462188,8290.306550,-842.705048
185.474126,5329.482782,7550.100608,306.438199
185.474446,3627.009116,5921.647536,76.609550
185.474767,2220.617826,5847.626942,153.219100
185.475087,4663.297435,8512.368333,1838.629195
185.475408,4959.379811,9770.718434,1685.410096
185.475728,5329.482782,8882.471304,-536.266849
185.476049,8290.306550,6513.812290,-1225.752797
185.476370,6291.750507,5181.441594,-1302.362347
185.476690,6069.688724,4959.379811,-306.438199
185.477011,6957.935855,6957.935855,612.876398
185.477331,5773.606348,7402.059420,-1302.362347
185.477652,6513.812290,8512.368333,-1302.362347
185.477972,7920.203579,9696.697840,229.828649
185.478293,5773.606348,8956.491898,-1608.800546
185.478614,6291.750507,7624.121203,-1762.019645
185.478934,4441.235652,7105.977043,-536.266849
185.479255,5625.565159,7624.121203,153.219100
185.479575,5255.462188,7624.121203,2145.067394
185.479896,3627.009116,7698.141797,1455.581446
185.480216,2664.741391,9104.533087,-229.828649
185.480537,2368.659014,9548.656652,919.314598
185.480857,2368.659014,9030.512492,459.657299
185.481178,3849.070898,5995.668130,612.876398
185.481499,4589.276840,5625.565159,459.657299
185.481819,5403.503377,7624.121203,-995.924147
185.482140,2664.741391,8660.409521,-995.924147
185.482460,3849.070898,9918.759623,-1532.190996
185.482781,5699.585753,9400.615463,-1532.190996
185.483101,6513.812290,9178.553681,-306.438199
185.483422,8438.347739,9844.739029,229.828649
185.483743,7031.956449,9548.656652,-459.657299
185.484063,4737.318029,7624.121203,-2298.286494
185.484384,5255.462188,6069.688724,-995.924147
185.484704,6661.853478,5699.585753,1378.971896
185.485025,7698.141797,8512.368333,2068.457845
185.485345,6809.894666,11769.274478,1302.362347
185.485666,4811.338623,9770.718434,-1378.971896
185.485986,4885.359217,6735.874072,-1685.410096
185.486307,5625.565159,3256.906145,536.266849
185.486628,5773.606348,3404.947333,2451.505594
185.486948,5181.441594,5773.606348,229.828649
185.487269,3552.988522,7920.203579,-3217.601092
185.487589,4071.132681,10807.006753,-3753.867940
185.487910,6069.688724,12065.356855,-766.095498
185.488230,5181.441594,10510.924376,229.828649
185.488551,5847.626942,9178.553681,-612.876398
185.488871,5255.462188,9696.697840,-919.314598
185.489192,1480.411884,10066.800811,-1302.362347
185.489513,3256.906145,8586.388927,0.000000
185.489833,4441.235652,8734.430116,1608.800546
185.490154,4959.379811,9178.553681,1378.971896
185.490474,4589.276840,8512.368333,1302.362347
185.490795,4441.235652,6587.832884,612.876398
185.491115,4071.132681,4737.318029,459.657299
185.491436,4663.297435,4589.276840,3064.381992
185.491757,3849.070898,4811.338623,2604.724693
185.492077,6587.832884,7105.977043,766.095498
185.492398,5255.462188,9548.656652,-383.047749
185.492718,5551.544565,10362.883188,-2221.676944
185.493039,6439.791695,8882.471304,-2298.286494
185.493359,6587.832884,8290.306550,-1762.019645
185.493680,6513.812290,9252.574275,-689.485948
185.494000,4515.256246,8438.347739,-612.876398
185.494321,3775.050304,8512.368333,-1838.629195
185.494642,4367.215058,9104.533087,0.000000
185.494962,3108.864956,8734.430116,2298.286494
185.495283,4515.256246,6365.771101,2451.505594
185.495603,3256.906145,3997.112087,-153.219100
185.495924,4145.153275,5181.441594,-536.266849
185.496244,4441.235652,7179.997637,383.047749
185.496565,4293.194464,6513.812290,919.314598
185.496886,7105.977043,6957.935855,689.485948
185.497206,6365.771101,9474.636058,153.219100
185.497527,5033.400406,10066.800811,-689.485948
185.497847,6957.935855,8956.491898,-995.924147
185.498168,6587.832884,8512.368333,-1302.362347
185.498488,6143.709319,8364.327145,-995.924147
185.498809,5773.606348,7994.224174,-1455.581446
185.499129,4293.194464,7402.059420,-2221.676944
185.499450,3478.967927,8364.327145,-612.876398
185.499771,3997.112087,9104.533087,1608.800546
185.500091,4737.318029,8216.285956,1608.800546
185.500412,4219.173869,7402.059420,459.657299
185.500732,3034.844362,7105.977043,-153.219100
185.501053,4367.215058,7179.997637,459.657299
185.501373,3034.844362,7105.977043,689.485948
185.501694,2886.803174,7328.038826,766.095498
185.502015,4959.379811,10658.965565,306.438199
185.502335,5773.606348,12657.521608,-1302.362347
185.502656,5107.421000,12213.398043,-3294.210641
185.502976,6513.812290,9918.759623,-2604.724693
185.503297,6587.832884,7994.224174,-689.485948
185.503617,5625.565159,7254.018232,1225.752797
185.503938,4663.297435,7920.203579,1532.190996
185.504258,4589.276840,8956.491898,612.876398
185.504579,5403.503377,9104.533087,-306.438199
185.504900,5847.626942,7550.100608,383.047749
185.505220,5847.626942,6143.709319,153.219100
185.505541,4811.338623,6439.791695,-153.219100
185.505861,4737.318029,7105.977043,459.657299
185.506182,4145.153275,7698.141797,229.828649
185.506502,4885.359217,6957.935855,306.438199
185.506823,5107.421000,7920.203579,153.219100
185.507143,5033.400406,9844.739029,-306.438199
185.507464,3849.070898,10362.883188,-2374.896044
185.507785,5477.523971,10214.842000,-2528.115143
185.508105,5921.647536,8290.306550,-1991.848295
185.508426,5403.503377,6365.771101,-919.314598
185.508746,4441.235652,6291.750507,0.000000
185.509067,4441.235652,8364.327145,459.657299
185.509387,4367.215058,9918.759623,229.828649
185.509708,6957.935855,8882.471304,1072.533697
185.510029,6291.750507,5625.565159,842.705048
185.510349,6217.729913,5107.421000,1455.581446
185.510670,5699.585753,6957.935855,612.876398
185.510990,2886.803174,6957.935855,-1915.238745
185.511311,4515.256246,5847.626942,-2298.286494
185.511631,7105.977043,6143.709319,-459.657299
185.511952,5551.544565,7105.977043,229.828649
185.512272,3404.947333,7772.162391,0.000000
185.512593,4737.318029,9918.759623,-229.828649
185.512914,5551.544565,11251.130318,-1072.533697
185.513234,4367.215058,9400.615463,-842.705048
185.513555,3849.070898,8068.244768,-766.095498
185.513875,3997.112087,8586.388927,-1149.143247
185.514196,2812.782580,11695.253884,1838.629195
185.514516,2072.576638,11769.274478,1915.238745
185.514837,4367.215058,9178.553681,-536.266849
185.515158,4071.132681,8438.347739,-306.438199
185.515478,2516.700203,6957.935855,1378.971896
185.515799,1628.453072,7402.059420,2528.115143
185.516119,1924.535449,7846.182985,2145.067394
185.516440,3182.885551,7476.080014,612.876398
185.516760,3997.112087,7031.956449,-1149.143247
185.517081,5625.565159,7624.121203,-2298.286494
185.517401,6291.750507,10881.027347,-612.876398
185.517722,5847.626942,10881.027347,0.000000
185.518043,6365.771101,9696.697840,-1378.971896
185.518363,7624.121203,7179.997637,-1302.362347
185.518684,7476.080014,7105.977043,383.047749
185.519004,6809.894666,9252.574275,1225.752797
185.519325,6365.771101,9548.656652,919.314598
185.519645,6143.709319,8068.244768,-1455.581446
185.519966,6217.729913,5255.462188,-1225.752797
185.520286,6069.688724,3997.112087,612.876398
185.520607,5033.400406,3701.029710,919.314598
185.520928,4219.173869,4219.173869,-459.657299
185.521248,4737.318029,6883.915261,-1149.143247
185.521569,5477.523971,8882.471304,-2528.115143
185.521889,5921.647536,8956.491898,-2145.067394
185.522210,5699.585753,10214.842000,-766.095498
185.522530,5625.565159,11769.274478,-306.438199
185.522851,4441.235652,12213.398043,0.000000
185.523172,3775.050304,9844.739029,-919.314598
185.523492,5107.421000,8068.244768,0.000000
185.523813,5181.441594,7550.100608,1302.362347
185.524133,2812.782580,6809.894666,1762.019645
185.524454,2886.803174,6291.750507,1302.362347
185.524774,3923.091493,6735.874072,536.266849
185.525095,3108.864956,6143.709319,383.047749
185.525415,4145.153275,4663.297435,459.657299
185.525736,6513.812290,5107.421000,0.000000
185.526057,5625.565159,7846.182985,76.609550
185.526377,5033.400406,9992.780217,0.000000
185.526698,5995.668130,11177.109724,-2145.067394
185.527018,6587.832884,10288.862594,-2681.334243
185.527339,5921.647536,9622.677246,-2298.286494
185.527659,6957.935855,9696.697840,-612.876398
185.527980,5107.421000,10066.800811,-1225.752797
185.528301,4367.215058,10807.006753,-1225.752797
185.528621,5181.441594,10288.862594,0.000000
185.528942,4811.338623,8808.450710,459.657299
185.529262,2886.803174,6661.853478,1072.533697
185.529583,2886.803174,5625.565159,536.266849
185.529903,3701.029710,6217.729913,0.000000
185.530224,3404.947333,7179.997637,612.876398
185.530544,2664.741391,7328.038826,689.485948
185.530865,4367.215058,8882.471304,766.095498
185.531186,4367.215058,11103.089130,153.219100
185.531506,5255.462188,13619.789333,229.828649
185.531827,5255.462188,12583.501014,-995.924147
185.532147,5551.544565,8734.430116,-1608.800546
185.532468,6365.771101,7402.059420,0.000000
185.532788,4737.318029,6661.853478,1685.410096
185.533109,3552.988522,7105.977043,1608.800546
185.533430,4219.173869,7031.956449,995.924147
185.533750,5403.503377,7179.997637,-842.705048
185.534071,5699.585753,5921.647536,153.219100
185.534391,7550.100608,5255.462188,1838.629195
185.534712,7624.121203,7105.977043,1378.971896
185.535032,6883.915261,8512.368333,153.219100
185.535353,4737.318029,6883.915261,-2451.505594
185.535673,7105.977043,5403.503377,-2834.553343
185.535994,7772.162391,6587.832884,0.000000
185.536315,7105.977043,9474.636058,536.266849
185.536635,6069.688724,10510.924376,-2374.896044
185.536956,5107.421000,9844.739029,-3447.429741
185.537276,3997.112087,7772.162391,-2757.943793
185.537597,6143.709319,4811.338623,-383.047749
185.537917,4811.338623,2886.803174,919.314598
185.538238,3108.864956,5107.421000,1225.752797
185.538558,3404.947333,8734.430116,1149.143247
185.538879,3997.112087,9326.594869,1149.143247
185.539200,5699.585753,7920.203579,689.485948
185.539520,8512.368333,7476.080014,1072.533697
185.539841,6735.874072,8142.265362,0.000000
185.540161,3701.029710,7254.018232,-1838.629195
185.540482,4071.132681,7920.203579,-1302.362347
185.540802,6513.812290,9474.636058,1072.533697
185.541123,5847.626942,9992.780217,1072.533697
185.541444,3775.050304,9178.553681,-459.657299
185.541764,3404.947333,9844.739029,-2528.115143
185.542085,2886.803174,9918.759623,-2298.286494
185.542405,2146.597232,8364.327145,689.485948
185.542726,4737.318029,7031.956449,1685.410096
185.543046,5847.626942,8438.347739,2145.067394
185.543367,2960.823768,9326.594869,1532.190996
185.543687,1480.411884,9178.553681,-306.438199
185.544008,4959.379811,8364.327145,-766.095498
185.544329,6143.709319,7328.038826,76.609550
185.544649,7179.997637,7179.997637,229.828649
185.544970,6365.771101,7328.038826,-1762.019645
185.545290,5477.523971,8808.450710,-3447.429741
185.545611,5477.523971,8364.327145,-689.485948
185.545931,6513.812290,7698.141797,0.000000
185.546252,7105.977043,7698.141797,-1455.581446
185.546573,7254.018232,9918.759623,-1915.238745
185.546893,4737.318029,11473.192101,-1762.019645
185.547214,5255.462188,10732.986159,-689.485948
185.547534,5329.482782,8438.347739,995.924147
185.547855,3849.070898,6735.874072,2068.457845
185.548175,2664.741391,7105.977043,1762.019645
185.548496,1776.494261,10436.903782,1608.800546
185.548816,1480.411884,9918.759623,1225.752797
185.549137,2960.823768,6957.935855,995.924147
185.549458,5477.523971,6513.812290,1072.533697
185.549778,3552.988522,6809.894666,1225.752797
185.550099,1998.556043,7105.977043,229.828649
185.550419,3182.885551,7105.977043,-1455.581446
185.550740,4959.379811,7031.956449,-1915.238745
185.551060,6439.791695,7402.059420,-306.438199
185.551381,9474.636058,8808.450710,-383.047749
185.551702,8586.388927,9474.636058,-2221.676944
185.552022,7402.059420,8512.368333,-2451.505594
185.552343,7328.038826,6365.771101,-766.095498
185.552663,9474.636058,7624.121203,995.924147
185.552984,7994.224174,7624.121203,689.485948
185.553304,6513.812290,5847.626942,-919.314598
185.553625,9104.533087,4811.338623,-2068.457845
185.553945,7698.141797,5403.503377,-306.438199
185.554266,4959.379811,4441.235652,919.314598
185.554587,5847.626942,4145.153275,1685.410096
185.554907,6069.688724,7031.956449,-229.828649
185.555228,4885.359217,9252.574275,-612.876398
185.555548,3923.091493,9548.656652,-383.047749
185.555869,3701.029710,8512.368333,-2221.676944
185.556189,4959.379811,9474.636058,-536.266849
185.556510,4515.256246,11103.089130,1072.533697
185.556830,4885.359217,12509.480420,-306.438199
185.557151,3330.926739,11621.233289,-1149.143247
185.557472,1924.535449,9992.780217,-689.485948
185.557792,2664.741391,9178.553681,1608.800546
185.558113,2368.659014,8734.430116,3907.087040
185.558433,1998.556043,7550.100608,2374.896044
185.558754,3923.091493,6587.832884,1302.362347
185.559074,2664.741391,6513.812290,229.828649
185.559395,3849.070898,7328.038826,766.095498
185.559716,4515.256246,7772.162391,1838.629195
185.560036,4737.318029,8882.471304,766.095498
185.560357,6291.750507,9622.677246,-383.047749
185.560677,6069.688724,9696.697840,-1225.752797
185.560998,6661.853478,8734.430116,-2374.896044
185.561318,7328.038826,8734.430116,-1915.238745
185.561639,5995.668130,8956.491898,-2451.505594
185.561959,5921.647536,8956.491898,-2987.772442
185.562280,5699.585753,7624.121203,-1608.800546
185.562600,5255.462188,7031.956449,153.219100
185.562921,5329.482782,7476.080014,1838.629195
185.563241,4145.153275,6735.874072,0.000000
185.563562,3775.050304,7105.977043,-1532.190996
185.563882,5699.585753,7254.018232,-459.657299
185.564203,4441.235652,7402.059420,842.705048
185.564523,3997.112087,7920.203579,842.705048
185.564844,4663.297435,8808.450710,1072.533697
185.565164,3997.112087,11177.109724,1072.533697
185.565485,4885.359217,11769.274478,-536.266849
185.565805,4737.318029,9474.636058,-1225.752797
185.566126,4515.256246,7105.977043,-1532.190996
185.566446,4219.173869,8808.450710,689.485948
185.566767,3034.844362,8882.471304,2451.505594
185.567087,2516.700203,7105.977043,1608.800546
185.567408,5773.606348,5847.626942,0.000000
185.567728,5403.503377,5625.565159,76.609550
185.568049,3701.029710,5551.544565,0.000000
185.568369,6587.832884,5477.523971,995.924147
185.568689,7698.141797,6957.935855,306.438199
185.569010,8068.244768,6661.853478,-919.314598
185.569330,8734.430116,6069.688724,-1225.752797
185.569651,7254.018232,6513.812290,-1991.848295
185.569971,7402.059420,9326.594869,-2221.676944
185.570292,7550.100608,9770.718434,-766.095498
185.570612,8512.368333,8512.368333,-2451.505594
185.570933,9400.615463,7698.141797,-2451.505594
185.571253,5625.565159,6513.812290,-612.876398
185.571574,2960.823768,6069.688724,-459.657299
185.571894,3923.091493,6069.688724,0.000000
185.572215,4515.256246,7254.018232,229.828649
185.572535,5329.482782,9104.533087,0.000000
185.572856,3627.009116,7550.100608,766.095498
185.573176,3552.988522,8068.244768,536.266849
185.573497,4145.153275,8956.491898,1455.581446
185.573817,2886.803174,10066.800811,1685.410096
185.574138,2590.720797,9622.677246,-229.828649
185.574458,3330.926739,9104.533087,-1378.971896
185.574779,3330.926739,9548.656652,76.609550
185.575099,4219.173869,10140.821405,2221.676944
185.575420,4367.215058,9104.533087,2068.457845
185.575740,3627.009116,8734.430116,-1455.581446
185.576061,3849.070898,7846.182985,-2451.505594
185.576381,3478.967927,7624.121203,-612.876398
185.576702,6957.935855,8586.388927,1608.800546
185.577022,7105.977043,9178.553681,2681.334243
185.577343,4959.379811,9252.574275,153.219100
185.577663,4737.318029,8068.244768,-1225.752797
185.577984,5033.400406,6735.874072,-1149.143247
185.578304,6217.729913,7105.977043,153.219100
185.578625,7105.977043,8068.244768,229.828649
185.578945,5255.462188,8216.285956,-1838.629195
185.579266,7105.977043,9992.780217,-2221.676944
185.579586,6217.729913,8290.306550,-766.095498
185.579907,4811.338623,5403.503377,229.828649
185.580227,6143.709319,4737.318029,229.828649
185.580548,5847.626942,8660.409521,-612.876398
185.580868,3478.967927,10510.924376,-1915.238745
185.581189,4589.276840,8290.306550,-995.924147
185.581509,7624.121203,6143.709319,-306.438199
185.581830,6143.709319,8882.471304,2528.115143
185.582150,2664.741391,10362.883188,3294.210641
185.582471,2072.576638,9992.780217,995.924147
185.582791,3701.029710,8216.285956,-1302.362347
185.583112,4071.132681,5847.626942,1225.752797
185.583432,4737.318029,5625.565159,3140.991542
185.583753,3997.112087,6513.812290,1762.019645
185.584073,2146.597232,8438.347739,-689.485948
185.584394,2294.638420,8956.491898,-1378.971896
185.584714,7031.956449,7846.182985,-1225.752797
185.585035,6883.915261,7328.038826,0.000000
185.585355,4663.297435,7698.141797,-153.219100
185.585676,4885.359217,8882.471304,-1072.533697
185.585996,5551.544565,8660.409521,-995.924147
185.586317,5625.565159,7179.997637,-766.095498
185.586637,7920.203579,6587.832884,0.000000
185.586958,7920.203579,8512.368333,-842.705048
185.587278,6883.915261,10436.903782,-1378.971896
185.587599,4663.297435,9474.636058,-1685.410096
185.587919,6661.853478,5625.565159,-1225.752797
185.588240,8956.491898,3627.009116,1302.362347
185.588560,6069.688724,5033.400406,2834.553343
185.588881,3108.864956,6957.935855,842.705048
185.589201,4663.297435,9178.553681,-1378.971896
185.589522,4737.318029,10510.924376,-1378.971896
185.589842,4663.297435,9622.677246,-842.705048
185.590163,6365.771101,8364.327145,229.828649
185.590483,5699.585753,9696.697840,76.609550
185.590804,3330.926739,11029.068536,612.876398
185.591124,1480.411884,10140.821405,536.266849
185.591445,2738.761985,8586.388927,-995.924147
185.591765,3849.070898,8512.368333,1149.143247
185.592086,2960.823768,8882.471304,3447.429741
185.592406,2738.761985,7179.997637,766.095498
185.592727,3923.091493,6365.771101,-1149.143247
185.593047,3997.112087,6365.771101,-1455.581446
185.593367,4441.235652,5477.523971,306.438199
185.593688,6809.894666,6143.709319,842.705048
185.594008,6735.874072,8290.306550,-383.047749
185.594329,5551.544565,10436.903782,-612.876398
185.594649,6661.853478,10584.944971,-1608.800546
185.594970,7254.018232,7550.100608,-3064.381992
185.595290,9178.553681,6661.853478,-2834.553343
185.595611,9770.718434,7328.038826,-1762.019645
185.595931,5699.585753,7994.224174,-2221.676944
185.596252,5033.400406,7772.162391,-2451.505594
185.596572,4737.318029,7402.059420,1149.143247
185.596893,6069.688724,6735.874072,2145.067394
185.597213,6069.688724,5033.400406,1378.971896
185.597534,5329.482782,5033.400406,-842.705048
185.597854,4737.318029,7105.977043,-2451.505594
185.598175,3034.844362,8586.388927,-459.657299
185.598495,3182.885551,7105.977043,766.095498
185.598816,6587.832884,8660.409521,2298.286494
185.599136,4885.359217,11991.336260,2528.115143
185.599457,1110.308913,12953.603985,-995.924147
185.599777,1554.432478,11991.336260,-2757.943793
185.600098,2072.576638,10362.883188,-1608.800546
185.600418,2664.741391,9474.636058,1455.581446
185.600739,2812.782580,7994.224174,3294.210641
185.601059,2590.720797,9400.615463,1072.533697
185.601380,888.247130,10881.027347,76.609550
185.601700,814.226536,9474.636058,459.657299
185.602021,3701.029710,6957.935855,459.657299
185.602341,6735.874072,6365.771101,1455.581446
185.602662,5551.544565,7179.997637,1302.362347
185.602982,5255.462188,7254.018232,-229.828649
185.603303,5255.462188,6365.771101,-1915.238745
185.603623,6661.853478,7254.018232,-1149.143247
185.603944,8216.285956,9326.594869,0.000000
185.604264,8956.491898,8956.491898,-766.095498
185.604585,9474.636058,8734.430116,-2834.553343
185.604905,8290.306550,7105.977043,-2374.896044
185.605226,7994.224174,4959.379811,0.000000
185.605546,6661.853478,4145.153275,919.314598
185.605867,5181.441594,4441.235652,0.000000
185.606187,6809.894666,8734.430116,-919.314598
185.606508,6957.935855,9548.656652,-995.924147
185.606828,4885.359217,7920.203579,-459.657299
185.607149,5773.606348,7105.977043,1685.410096
185.607469,4589.276840,7179.997637,2604.724693
185.607790,1702.473667,8216.285956,1378.971896
185.608110,296.082377,7846.182985,-306.438199
185.608431,1850.514855,9030.512492,-536.266849
185.608751,3182.885551,9770.718434,0.000000
185.609072,2220.617826,8734.430116,536.266849
185.609392,4589.276840,6587.832884,-766.095498
185.609713,4885.359217,7772.162391,-1455.581446
185.610033,3108.864956,8142.265362,-612.876398
185.610354,3775.050304,6587.832884,459.657299
185.610674,6883.915261,6513.812290,459.657299
185.610995,6883.915261,6587.832884,0.000000
185.611315,7624.121203,8512.368333,-842.705048
185.611636,7994.224174,7846.182985,-2221.676944
185.611956,7994.224174,8512.368333,-3600.648841
185.612277,7550.100608,8734.430116,-995.924147
185.612597,7772.162391,7846.182985,-689.485948
185.612918,8068.244768,8660.409521,-919.314598
185.613238,5625.565159,7402.059420,-612.876398
185.613559,5625.565159,7254.018232,-536.266849
185.613879,6957.935855,8142.265362,842.705048
185.614200,3552.988522,7994.224174,1225.752797
185.614520,3256.906145,9326.594869,76.609550
185.614841,2886.803174,9030.512492,-612.876398
185.615161,1628.453072,8364.327145,-153.219100
185.615482,2516.700203,7846.182985,1072.533697
185.615802,3552.988522,8808.450710,1838.629195
185.616123,3775.050304,9844.739029,536.266849
185.616443,2442.679609,10436.903782,-842.705048
185.616764,2590.720797,11399.171507,-1378.971896
185.617084,4145.153275,10584.944971,0.000000
185.617405,3849.070898,8660.409521,1225.752797
185.617725,3775.050304,8216.285956,-383.047749
185.618046,4441.235652,7624.121203,-1072.533697
185.618366,3552.988522,7920.203579,-383.047749
185.618686,5403.503377,8216.285956,229.828649
185.619007,6365.771101,7772.162391,0.000000
185.619327,7105.977043,7772.162391,0.000000
185.619648,6143.709319,8586.388927,0.000000
185.619968,4441.235652,7105.977043,766.095498
185.620289,4441.235652,5181.441594,0.000000
185.620609,7105.977043,5847.626942,-306.438199
185.620930,6661.853478,6661.853478,-1991.848295
185.621250,6143.709319,8364.327145,-3140.991542
185.621571,7624.121203,9696.697840,-2374.896044
185.621891,4663.297435,7550.100608,-1762.019645
185.622212,3552.988522,5921.647536,76.609550
185.622532,5995.668130,6957.935855,2374.896044
185.622853,5255.462188,7550.100608,383.047749
185.623173,4145.153275,8438.347739,-2221.676944
185.623494,4589.276840,8438.347739,-2145.067394
185.623814,3330.926739,7698.141797,-1072.533697
185.624135,3182.885551,7846.182985,2374.896044
185.624455,4589.276840,9252.574275,3447.429741
185.624776,5403.503377,11473.192101,919.314598
185.625096,3997.112087,10288.862594,-1532.190996
185.625417,2220.617826,8808.450710,-842.705048
185.625737,2664.741391,7105.977043,689.485948
185.626058,3478.967927,7550.100608,3217.601092
185.626378,3256.906145,7550.100608,3294.210641
185.626699,4145.153275,8142.265362,-536.266849
185.627019,4441.235652,8512.368333,-2528.115143
185.627340,3627.009116,7105.977043,-2221.676944
185.627660,5477.523971,7254.018232,-229.828649
185.627981,8734.430116,8364.327145,1838.629195
185.628301,8956.491898,9696.697840,1838.629195
185.628622,7328.038826,8438.347739,459.657299
185.628942,6365.771101,6957.935855,-229.828649
185.629263,5403.503377,6365.771101,-306.438199
185.629583,6439.791695,7328.038826,229.828649
185.629904,7772.162391,6291.750507,-995.924147
185.630224,8290.306550,4737.318029,-2757.943793
185.630545,8216.285956,5107.421000,-2528.115143
185.630865,6735.874072,6883.915261,-383.047749
185.631186,6957.935855,7550.100608,612.876398
185.631506,6143.709319,8586.388927,153.219100
185.631827,6365.771101,9696.697840,-1149.143247
185.632147,5181.441594,8882.471304,-919.314598
185.632468,2886.803174,7328.038826,-536.266849
185.632788,3552.988522,7920.203579,0.000000
185.633109,4293.194464,10658.965565,-229.828649
185.633429,1628.453072,11177.109724,-2374.896044
185.633750,1924.535449,10436.903782,-2451.505594
185.634070,2294.638420,9326.594869,689.485948
185.634391,2146.597232,9104.533087,4290.134789
185.634711,1036.288319,8364.327145,4596.572988
185.635032,1628.453072,7031.956449,1149.143247
185.635352,2664.741391,7772.162391,-1915.238745
185.635673,3627.009116,7179.997637,-919.314598
185.635993,4737.318029,6661.853478,153.219100
185.636314,6069.688724,7031.956449,1455.581446
185.636634,6735.874072,9622.677246,995.924147
185.636955,6069.688724,10658.965565,-2451.505594
185.637275,7105.977043,8364.327145,-5515.887586
185.637596,9622.677246,8660.409521,-3294.210641
185.637916,9992.780217,9992.780217,306.438199
185.638237,6587.832884,7994.224174,76.609550
185.638557,5921.647536,7550.100608,-1608.800546
185.638878,7105.977043,8142.265362,-995.924147
185.639198,5699.585753,7328.038826,153.219100
185.639519,4441.235652,5403.503377,0.000000
185.639839,5477.523971,5403.503377,-1685.410096
185.640160,3627.009116,7994.224174,-1378.971896
185.640480,2886.803174,9178.553681,306.438199
185.640801,4441.235652,8438.347739,229.828649
185.641121,6587.832884,9474.636058,1225.752797
185.641442,2960.823768,11769.274478,766.095498
185.641762,1702.473667,11621.233289,-689.485948
185.642083,2220.617826,10140.821405,-1302.362347
185.642403,4145.153275,9918.759623,229.828649
185.642724,4367.215058,8808.450710,2681.334243
185.643044,4145.153275,7031.956449,2068.457845
185.643364,3182.885551,7624.121203,-612.876398
185.643685,2220.617826,8734.430116,153.219100
185.644005,3182.885551,7328.038826,1915.238745
185.644326,5033.400406,4145.153275,2451.505594
185.644646,7846.182985,4515.256246,2451.505594
185.644967,7624.121203,6513.812290,2068.457845
185.645287,5847.626942,7179.997637,-1838.629195
185.645608,5181.441594,5699.585753,-4596.572988
185.645928,8216.285956,6587.832884,-2987.772442
185.646249,9622.677246,8438.347739,-1532.190996
185.646569,8438.347739,8956.491898,-842.705048
185.646890,7105.977043,9474.636058,-3294.210641
185.647210,6217.729913,8068.244768,-3907.087040
185.647531,4959.379811,6883.915261,-2604.724693
185.647851,5033.400406,5403.503377,-842.705048
185.648172,5773.606348,5625.565159,-689.485948
185.648492,6143.709319,8512.368333,-306.438199
185.648813,3627.009116,10955.047942,459.657299
185.649133,1924.535449,10140.821405,842.705048
185.649454,2960.823768,8290.306550,2068.457845
185.649774,4293.194464,9548.656652,2298.286494
185.650095,3701.029710,9622.677246,1838.629195
185.650415,1036.288319,8290.306550,-229.828649
185.650736,1924.535449,7698.141797,-612.876398
185.651056,1480.411884,9326.594869,1225.752797
185.651377,2146.597232,10510.924376,3294.210641
185.651697,3775.050304,8734.430116,1225.752797
185.652018,6735.874072,8512.368333,-1685.410096
185.652338,4145.153275,9104.533087,-1225.752797
185.652659,3404.947333,9178.553681,-612.876398
185.652979,3775.050304,6661.853478,459.657299
185.653300,7624.121203,7254.018232,919.314598
185.653620,9622.677246,9918.759623,1072.533697
185.653941,7772.162391,9548.656652,-2221.676944
185.654261,6661.853478,7105.977043,-4596.572988
185.654582,8142.265362,7254.018232,-1685.410096
185.654902,6291.750507,7920.203579,1532.190996
185.655223,6365.771101,7698.141797,1072.533697
185.655543,7698.141797,7031.956449,-459.657299
185.655864,5921.647536,6809.894666,-2298.286494
185.656184,3701.029710,6439.791695,-1991.848295
185.656505,2368.659014,5551.544565,-1072.533697
185.656825,4737.318029,8142.265362,-1302.362347
185.657146,6365.771101,11843.295072,76.609550
185.657466,4663.297435,11547.212695,383.047749
185.657787,4589.276840,8586.388927,-766.095498
185.658107,3701.029710,7402.059420,459.657299
185.658428,1036.288319,7402.059420,1991.848295
185.658748,2072.576638,8586.388927,1838.629195
185.659069,4293.194464,9992.780217,1072.533697
185.659389,4145.153275,9474.636058,-306.438199
185.659710,4515.256246,7402.059420,459.657299
185.660030,3997.112087,4589.276840,1149.143247
185.660351,3256.906145,4515.256246,0.000000
185.660671,3034.844362,6587.832884,383.047749
185.660992,5847.626942,8882.471304,-229.828649
185.661312,7328.038826,8734.430116,-459.657299
185.661633,8068.244768,8068.244768,1532.190996
185.661953,7772.162391,9400.615463,1455.581446
185.662274,6069.688724,9400.615463,-2987.772442
185.662594,4145.153275,6439.791695,-5362.668486
185.662915,6957.935855,6069.688724,-3983.696590
185.663235,8808.450710,6513.812290,-842.705048
185.663556,7698.141797,7550.100608,383.047749
185.663876,4737.318029,7550.100608,-1685.410096
185.664197,3552.988522,9844.739029,-3217.601092
185.664517,3775.050304,10140.821405,-766.095498
185.664838,5995.668130,7994.224174,2681.334243
185.665159,8290.306550,6513.812290,4136.915689
185.665479,6217.729913,6809.894666,2757.943793
185.665800,3923.091493,7920.203579,153.219100
185.666120,3478.967927,5699.585753,-1378.971896
185.666441,5625.565159,4145.153275,-1225.752797
185.666761,9548.656652,5255.462188,1762.019645
185.667082,9992.780217,7698.141797,2145.067394
185.667403,7846.182985,7698.141797,-612.876398
185.667723,8216.285956,7254.018232,-1225.752797
185.668044,9622.677246,7031.956449,0.000000
185.668364,11769.274478,7328.038826,1072.533697
185.668685,10584.944971,5625.565159,689.485948
185.669006,8660.409521,4145.153275,-2451.505594
185.669326,9252.574275,5921.647536,-2451.505594
185.669647,9548.656652,6957.935855,-383.047749
185.669967,7476.080014,6513.812290,-1149.143247
185.670288,9104.533087,5921.647536,-1225.752797
185.670608,7550.100608,6291.750507,-1225.752797
185.670929,6587.832884,6883.915261,-153.219100
185.671250,6069.688724,6291.750507,2145.067394
185.671570,7698.141797,6735.874072,1915.238745
185.671891,6735.874072,6513.812290,766.095498
185.672211,6439.791695,6217.729913,536.266849
185.672532,7254.018232,5477.523971,-383.047749
185.672852,9770.718434,5551.544565,-229.828649
185.673173,9548.656652,6143.709319,1302.362347
185.673494,9474.636058,5921.647536,0.000000
185.673814,10288.862594,5255.462188,-1608.800546
185.674135,11325.150913,4589.276840,-459.657299
185.674455,11769.274478,4811.338623,919.314598
185.674776,12435.459826,4441.235652,1838.629195
185.675096,10510.924376,4515.256246,1149.143247
185.675417,9770.718434,3182.885551,0.000000
185.675738,9992.780217,2886.803174,0.000000
185.676058,12287.418637,3849.070898,842.705048
185.676379,10732.986159,4589.276840,536.266849
185.676699,9622.677246,4367.215058,-1149.143247
185.677020,9696.697840,5255.462188,-1532.190996
185.677340,9326.594869,5255.462188,-612.876398
185.677661,8882.471304,4293.194464,0.000000
185.677982,9918.759623,4145.153275,0.000000
185.678302,10584.944971,6809.894666,-842.705048
185.678623,8882.471304,7994.224174,0.000000
185.678943,7624.121203,7105.977043,-1149.143247
185.679264,9030.512492,6291.750507,-1455.581446
185.679584,7846.182985,6069.688724,-306.438199
185.679905,7105.977043,5551.544565,919.314598
185.680226,9326.594869,5551.544565,612.876398
185.680546,7772.162391,4589.276840,0.000000
185.680867,7254.018232,3923.091493,229.828649
185.681187,9178.553681,4663.297435,2145.067394
185.681508,9548.656652,6365.771101,1915.238745
185.681828,9252.574275,6735.874072,1608.800546
185.682149,10436.903782,5773.606348,383.047749
185.682470,11547.212695,3701.029710,-1378.971896
185.682790,10881.027347,3330.926739,-153.219100
185.683111,11103.089130,4219.173869,689.485948
185.683431,10658.965565,5551.544565,-1302.362347
185.683752,10510.924376,6291.750507,-2604.724693
185.684073,10214.842000,5329.482782,-2298.286494
185.684393,11177.109724,6365.771101,-1225.752797
185.684714,10658.965565,6143.709319,536.266849
185.685034,9104.533087,6439.791695,0.000000
185.685355,7846.182985,4885.359217,-1915.238745
185.685675,7402.059420,4441.235652,-2145.067394
185.685996,7328.038826,6143.709319,0.000000
185.686317,7105.977043,7105.977043,1149.143247
185.686637,6365.771101,8216.285956,612.876398
185.686958,6513.812290,7920.203579,-842.705048
185.687278,6809.894666,7624.121203,-612.876398
185.687599,6957.935855,8068.244768,76.609550
185.687919,5921.647536,8142.265362,0.000000
185.688240,5329.482782,7624.121203,-76.609550
185.688561,6661.853478,6217.729913,689.485948
185.688881,8734.430116,5847.626942,1149.143247
185.689202,9178.553681,5995.668130,306.438199
185.689522,8734.430116,6291.750507,-842.705048
185.689843,9030.512492,5773.606348,-383.047749
185.690163,9548.656652,4367.215058,842.705048
185.690484,11547.212695,3923.091493,2451.505594
185.690805,12065.356855,2738.761985,1225.752797
185.691125,11843.295072,3701.029710,-995.924147
185.691446,12287.418637,5477.523971,-2221.676944
185.691766,11843.295072,5107.421000,-766.095498
185.692087,13175.665768,3034.844362,0.000000
185.692407,14211.954086,2220.617826,0.000000
185.692728,13027.624579,3256.906145,-1072.533697
185.693049,10584.944971,5625.565159,-1685.410096
185.693369,9696.697840,6069.688724,-1455.581446
185.693690,10288.862594,3923.091493,-1532.190996
185.694010,10807.006753,2220.617826,-153.219100
185.694331,10362.883188,2664.741391,306.438199
185.694651,8216.285956,5773.606348,-306.438199
185.694972,5995.668130,6957.935855,-1302.362347
185.695293,6735.874072,6735.874072,-766.095498
185.695613,7772.162391,6365.771101,383.047749
185.695934,6957.935855,6217.729913,995.924147
185.696254,6365.771101,7624.121203,1225.752797
185.696575,5847.626942,8808.450710,383.047749
185.696896,4589.276840,7846.182985,-459.657299
185.697216,5625.565159,5921.647536,842.705048
185.697537,7328.038826,3997.112087,1455.581446
185.697857,7624.121203,3330.926739,1378.971896
185.698178,7624.121203,4663.297435,689.485948
185.698498,9326.594869,5477.523971,-612.876398
185.698819,11621.233289,6217.729913,-766.095498
185.699140,12287.418637,6587.832884,1149.143247
185.699460,12435.459826,6365.771101,1685.410096
185.699781,12361.439231,5329.482782,536.266849
185.700101,11843.295072,4441.235652,-842.705048
185.700422,11621.233289,3627.009116,-1685.410096
185.700742,12139.377449,2072.576638,-2451.505594
185.701063,12805.562797,3182.885551,-1991.848295
185.701384,12583.501014,5995.668130,-1378.971896
185.701704,11769.274478,7772.162391,-842.705048
185.702025,11399.171507,7550.100608,-766.095498
185.702345,9622.677246,4959.379811,0.000000
185.702666,8512.368333,2738.761985,153.219100
185.702986,8660.409521,2368.659014,459.657299
185.703307,8364.327145,4145.153275,-229.828649
185.703628,8216.285956,7105.977043,-766.095498
185.703948,7476.080014,8734.430116,-919.314598
185.704269,7550.100608,9400.615463,-306.438199
185.704589,7550.100608,8142.265362,766.095498
185.704910,6883.915261,6661.853478,2145.067394
185.705230,6439.791695,4145.153275,1838.629195
185.705551,6513.812290,2886.803174,306.438199
185.705872,7772.162391,2886.803174,0.000000
185.706192,8882.471304,3775.050304,229.828649
185.706513,10955.047942,6069.688724,612.876398
185.706833,11695.253884,7624.121203,-536.266849
185.707154,11621.233289,6661.853478,-1149.143247
185.707474,12583.501014,4737.318029,-842.705048
185.707795,12361.439231,2960.823768,612.876398
185.708116,10584.944971,2368.659014,612.876398
185.708436,11103.089130,2738.761985,-459.657299
185.708757,11399.171507,4293.194464,-2068.457845
185.709077,11325.150913,6365.771101,-2528.115143
185.709398,11103.089130,7624.121203,-2298.286494
185.709718,11695.253884,7476.080014,-1455.581446
185.710039,10807.006753,5995.668130,-76.609550
185.710360,8808.450710,4737.318029,612.876398
185.710680,7550.100608,4293.194464,229.828649
185.711001,6883.915261,4589.276840,0.000000
185.711321,6143.709319,5625.565159,0.000000
185.711642,7254.018232,6587.832884,459.657299
185.711963,8438.347739,7550.100608,153.219100
185.712283,8142.265362,7994.224174,-536.266849
185.712604,7772.162391,8216.285956,76.609550
185.712924,7550.100608,7254.018232,1455.581446
185.713245,7698.141797,5403.503377,2757.943793
185.713565,7994.224174,4811.338623,2834.553343
185.713886,8068.244768,5403.503377,766.095498
185.714207,8142.265362,5995.668130,-383.047749
185.714527,8734.430116,6069.688724,-919.314598
185.714848,9622.677246,4811.338623,-919.314598
185.715168,10436.903782,3478.967927,-76.609550
185.715489,10658.965565,3256.906145,306.438199
185.715809,10140.821405,4885.359217,459.657299
185.716130,9918.759623,5995.668130,0.000000
185.716451,10510.924376,6217.729913,-536.266849
185.716771,11547.212695,5181.441594,-766.095498
185.717092,11917.315666,4737.318029,-842.705048
185.717412,10955.047942,5107.421000,-612.876398
185.717733,10214.842000,6439.791695,-1225.752797
185.718053,9844.739029,6735.874072,-1532.190996
185.718374,9844.739029,5329.482782,-1225.752797
185.718695,9844.739029,3997.112087,-153.219100
185.719015,9548.656652,3256.906145,842.705048
185.719336,8512.368333,2886.803174,919.314598
185.719656,8734.430116,3182.885551,612.876398
185.719977,8808.450710,3108.864956,0.000000
185.720297,10214.842000,4219.173869,-153.219100
185.720618,10510.924376,5625.565159,-229.828649
185.720939,9770.718434,7105.977043,-766.095498
185.721259,9918.759623,7920.203579,-689.485948
185.721580,9918.759623,7550.100608,-689.485948
185.721900,9622.677246,6809.894666,0.000000
185.722221,9030.512492,5329.482782,612.876398
185.722541,8068.244768,4589.276840,1302.362347
185.722862,7624.121203,4367.215058,995.924147
185.723183,7846.182985,4663.297435,1608.800546
185.723503,8290.306550,4737.318029,1532.190996
185.723824,8512.368333,4885.359217,612.876398
185.724144,8808.450710,4811.338623,-153.219100
185.724465,9104.533087,4959.379811,-1225.752797
185.724785,9474.636058,5181.441594,-1532.190996
185.725106,9918.759623,6143.709319,-1302.362347
185.725427,10510.924376,7254.018232,-1608.800546
185.725747,11103.089130,8142.265362,-1762.019645
185.726068,10658.965565,8216.285956,-919.314598
185.726388,10584.944971,7105.977043,-76.609550
185.726709,9844.739029,5773.606348,76.609550
185.727030,9178.553681,4885.359217,766.095498
185.727350,9178.553681,3997.112087,1072.533697
185.727671,9030.512492,3330.926739,1455.581446
185.727991,9326.594869,3108.864956,842.705048
185.728312,9030.512492,3849.070898,383.047749
185.728632,9178.553681,5181.441594,0.000000
185.728953,9622.677246,7031.956449,0.000000
185.729274,9326.594869,8438.347739,536.266849
185.729594,8808.450710,9326.594869,766.095498
185.729915,7624.121203,8586.388927,995.924147
185.730235,6439.791695,7994.224174,1225.752797
185.730556,4885.359217,7550.100608,842.705048
185.730876,4367.215058,6513.812290,0.000000
185.731197,4737.318029,5625.565159,-536.266849
185.731518,4737.318029,5773.606348,-383.047749
185.731838,4885.359217,5995.668130,229.828649
185.732159,5107.421000,7772.162391,1455.581446
185.732479,5773.606348,9326.594869,1915.238745
185.732800,6365.771101,10362.883188,2604.724693
185.733120,6957.935855,10436.903782,3217.601092
185.733441,7402.059420,9548.656652,3064.381992
185.733762,6513.812290,8364.327145,2528.115143
185.734082,5995.668130,7846.182985,2451.505594
185.734403,5773.606348,7698.141797,2681.334243
185.734723,6217.729913,8512.368333,2757.943793
185.735044,6587.832884,8660.409521,3294.210641
185.735364,5995.668130,8586.388927,4213.525239
185.735685,5625.565159,7994.224174,4749.792088
185.736006,5773.606348,7994.224174,5209.449386
185.736326,5477.523971,7920.203579,5286.058936
185.736647,6809.894666,8364.327145,5056.230287
185.736967,6735.874072,8956.491898,5592.497135
185.737288,6661.853478,9548.656652,5822.325785
185.737608,6143.709319,9548.656652,6818.249932
185.737929,5551.544565,9326.594869,7354.516781
185.738250,5403.503377,8734.430116,7201.297681
185.738570,5551.544565,8512.368333,6818.249932
185.738891,5773.606348,7476.080014,6588.421283
185.739211,5255.462188,5921.647536,6588.421283
185.739532,4811.338623,4885.359217,7048.078582
185.739852,5181.441594,5255.462188,7124.688131
185.740173,5255.462188,6735.874072,6588.421283
185.740494,5847.626942,7920.203579,6205.373534
185.740814,6143.709319,8216.285956,5745.716235
185.741135,6291.750507,7994.224174,6511.811733
185.741455,5699.585753,7402.059420,7584.345430
185.741776,5107.421000,6587.832884,7507.735880
185.742097,4071.132681,6439.791695,7277.907231
185.742417,3775.050304,6587.832884,6128.763984
185.742738,3256.906145,5847.626942,5745.716235
185.743058,2886.803174,5255.462188,6052.154434
185.743379,3034.844362,5033.400406,6588.421283
185.743699,3256.906145,5329.482782,6588.421283
185.744020,2738.761985,6291.750507,5975.544884
185.744341,2368.659014,6809.894666,6052.154434
185.744661,2960.823768,7328.038826,6128.763984
185.744982,4145.153275,8364.327145,6818.249932
185.745302,4589.276840,8586.388927,6128.763984
185.745623,3701.029710,8216.285956,4979.620737
185.745943,3923.091493,7105.977043,4903.011187
185.746264,3552.988522,6143.709319,4903.011187
185.746585,2960.823768,5181.441594,4749.792088
185.746905,2812.782580,5033.400406,4443.353888
185.747226,2886.803174,5181.441594,3217.601092
185.747546,4071.132681,6735.874072,2757.943793
185.747867,5403.503377,8216.285956,3140.991542
185.748187,5773.606348,9178.553681,3294.210641
185.748508,6587.832884,10140.821405,3064.381992
185.748829,6883.915261,10955.047942,2987.772442
185.749149,6513.812290,10807.006753,3294.210641
185.749470,6809.894666,10362.883188,4749.792088
185.749790,6587.832884,10140.821405,6052.154434
185.750111,5551.544565,10436.903782,6358.592633
185.750431,4959.379811,9992.780217,5975.544884
185.750752,3701.029710,7920.203579,5056.230287
185.751073,2664.741391,5773.606348,3064.381992
185.751393,2442.679609,2442.679609,1991.848295
185.751714,4145.153275,2146.597232,1915.238745
185.752034,5033.400406,5403.503377,1072.533697
185.752355,6291.750507,10214.842000,-153.219100
185.752675,8512.368333,14804.118840,-1225.752797
185.752996,10214.842000,17838.963202,-766.095498
185.753317,10288.862594,17838.963202,1532.190996
185.753637,9030.512492,15988.448347,4290.134789
185.753958,7476.080014,11769.274478,5592.497135
185.754278,5551.544565,7105.977043,6588.421283
185.754599,5181.441594,5625.565159,6741.640382
185.754919,2294.638420,6143.709319,6128.763984
185.755240,1036.288319,6661.853478,4136.915689
185.755561,1480.411884,6587.832884,3064.381992
185.755881,4293.194464,6439.791695,4136.915689
185.756202,4441.235652,5847.626942,4596.572988
185.756522,5477.523971,7476.080014,4596.572988
185.756843,5921.647536,10732.986159,3677.258390
185.757164,5921.647536,14063.912898,2451.505594
185.757484,5699.585753,15026.180623,1991.848295
185.757805,8734.430116,14582.057057,2911.162892
185.758125,7994.224174,12287.418637,3983.696590
185.758446,4811.338623,7994.224174,5592.497135
185.758766,4589.276840,5255.462188,6588.421283
185.759087,1628.453072,4293.194464,6358.592633
185.759408,1184.329507,5181.441594,5362.668486
185.759728,3775.050304,6291.750507,4673.182538
185.760049,5773.606348,6957.935855,4826.401637
185.760369,4145.153275,6513.812290,6818.249932
185.760690,5329.482782,6883.915261,9269.755526
185.761010,6587.832884,8216.285956,9346.365076
185.761331,5033.400406,10510.924376,7660.954980
185.761652,2664.741391,10584.944971,5592.497135
185.761972,3330.926739,8734.430116,4213.525239
185.762293,5551.544565,6661.853478,4979.620737
185.762613,4293.194464,5403.503377,9039.926876
185.762934,4811.338623,7031.956449,9882.631924
185.763255,1480.411884,8068.244768,6741.640382
185.763575,1554.432478,8956.491898,4903.011187
185.763896,2368.659014,6587.832884,6281.983084
185.764216,3256.906145,3552.988522,6971.469032
185.764537,4145.153275,888.247130,6971.469032
185.764858,6217.729913,3923.091493,6435.202183
185.765178,6217.729913,9178.553681,5822.325785
185.765499,4959.379811,11251.130318,5056.230287
185.765819,4959.379811,8808.450710,3907.087040
185.766140,5551.544565,6735.874072,4136.915689
185.766461,3552.988522,6809.894666,6741.640382
185.766781,3108.864956,5181.441594,9806.022374
185.767102,6661.853478,6587.832884,9576.193725
185.767422,3923.091493,9474.636058,7431.126331
185.767743,1184.329507,11251.130318,4519.963438
185.768063,2886.803174,9548.656652,2987.772442
185.768384,5255.462188,8216.285956,3600.648841
185.768705,3404.947333,6661.853478,6052.154434
185.769025,4293.194464,3775.050304,6435.202183
185.769346,6143.709319,4293.194464,6128.763984
185.769666,4589.276840,7772.162391,6435.202183
185.769987,2294.638420,9178.553681,6358.592633
185.770308,5181.441594,9030.512492,4060.306139
185.770628,7105.977043,10658.965565,3370.820191
185.770949,4145.153275,10584.944971,5209.449386
185.771269,6587.832884,10066.800811,6741.640382
185.771590,8512.368333,10066.800811,4749.792088
185.771911,6439.791695,8438.347739,1608.800546
185.772231,3108.864956,5773.606348,0.000000
185.772552,5921.647536,5403.503377,1762.019645
185.772872,6513.812290,7772.162391,6052.154434
185.773193,5477.523971,10955.047942,8350.440928
185.773514,6957.935855,11769.274478,5439.278036
185.773834,6735.874072,11325.150913,1762.019645
185.774155,4441.235652,11029.068536,2451.505594
185.774475,4515.256246,9696.697840,4903.011187
185.774796,4959.379811,7476.080014,4826.401637
185.775117,4145.153275,7328.038826,4213.525239
185.775437,4515.256246,9622.677246,4366.744339
185.775758,4663.297435,10881.027347,4213.525239
185.776078,4959.379811,11325.150913,3524.039291
185.776399,5033.400406,10510.924376,4290.134789
185.776720,4885.359217,9474.636058,5439.278036
185.777040,6143.709319,7772.162391,6588.421283
185.777361,5551.544565,6883.915261,5822.325785
185.777681,4589.276840,7698.141797,3983.696590
185.778002,5551.544565,8882.471304,2757.943793
185.778323,5699.585753,9030.512492,2757.943793
185.778643,6439.791695,7994.224174,4290.134789
185.778964,7624.121203,7698.141797,5822.325785
185.779284,6661.853478,7698.141797,4749.792088
185.779605,4441.235652,7624.121203,2681.334243
185.779926,4515.256246,8660.409521,3447.429741
185.780246,5255.462188,7698.141797,4903.011187
185.780567,6513.812290,5995.668130,4979.620737
185.780887,6661.853478,5847.626942,4903.011187
185.781208,4737.318029,7698.141797,4596.572988
185.781529,2960.823768,9030.512492,5745.716235
185.781849,3182.885551,8290.306550,5822.325785
185.782170,4885.359217,7402.059420,5056.230287
185.782490,5847.626942,7624.121203,4979.620737
185.782811,4589.276840,9252.574275,5286.058936
185.783132,3182.885551,10214.842000,5669.106685
185.783452,2220.617826,9474.636058,6818.249932
185.783773,2960.823768,6513.812290,7354.516781
185.784093,3552.988522,4367.215058,5822.325785
185.784414,3997.112087,6439.791695,5209.449386
185.784735,2516.700203,9548.656652,6052.154434
185.785055,1702.473667,9474.636058,5286.058936
185.785376,4737.318029,8216.285956,4519.963438
185.785696,7031.956449,8068.244768,6128.763984
185.786017,5477.523971,9326.594869,7814.174080
185.786338,4959.379811,10214.842000,7354.516781
185.786658,3701.029710,10214.842000,6052.154434
185.786979,3034.844362,7105.977043,6588.421283
185.787299,4811.338623,3923.091493,7048.078582
185.787620,6587.832884,4441.235652,7660.954980
185.787941,4219.173869,6291.750507,6511.811733
185.788261,2590.720797,6439.791695,4596.572988
185.788582,4589.276840,5477.523971,2374.896044
185.788902,7179.997637,6217.729913,3370.820191
185.789223,6809.894666,7624.121203,5286.058936
185.789544,6809.894666,8882.471304,4979.620737
185.789864,5773.606348,8660.409521,2911.162892
185.790185,5107.421000,7846.182985,2604.724693
185.790505,7031.956449,8068.244768,4213.525239
185.790826,6661.853478,8216.285956,4443.353888
185.791147,5255.462188,8882.471304,3294.210641
185.791467,4663.297435,9770.718434,3370.820191
185.791788,4441.235652,8290.306550,3753.867940
185.792108,4663.297435,6957.935855,5362.668486
185.792429,3478.967927,6439.791695,6205.373534
185.792750,2146.597232,6661.853478,4519.963438
185.793070,2368.659014,7624.121203,3370.820191
185.793391,3108.864956,8142.265362,3370.820191
185.793711,3404.947333,6735.874072,3753.867940
185.794032,4959.379811,7254.018232,3677.258390
185.794353,5551.544565,10362.883188,3370.820191
185.794673,4293.194464,11769.274478,2221.676944
185.794994,4885.359217,9474.636058,2068.457845
185.795314,7402.059420,7698.141797,1532.190996
185.795635,7105.977043,7105.977043,1225.752797
185.795956,4589.276840,6513.812290,1302.362347
185.796276,5847.626942,7624.121203,1149.143247
185.796597,7105.977043,8808.450710,153.219100
185.796917,7254.018232,8956.491898,1302.362347
185.797238,7402.059420,7994.224174,0.000000
185.797559,6069.688724,6883.915261,0.000000
185.797879,4589.276840,6735.874072,1838.629195
185.798200,6217.729913,6735.874072,2374.896044
185.798520,6143.709319,7254.018232,0.000000
185.798841,6069.688724,8438.347739,-1072.533697
185.799162,4293.194464,8512.368333,-842.705048
185.799482,6291.750507,9178.553681,0.000000
185.799803,5107.421000,10732.986159,842.705048
185.800123,5551.544565,10510.924376,612.876398
185.800444,5033.400406,9178.553681,-536.266849
185.800765,6365.771101,8882.471304,383.047749
185.801085,3552.988522,9474.636058,2221.676944
185.801406,4737.318029,8586.388927,2451.505594
185.801726,5181.441594,8068.244768,1378.971896
185.802047,4885.359217,9030.512492,1455.581446
185.802368,3849.070898,8956.491898,1072.533697
185.802688,2886.803174,5255.462188,-766.095498
185.803009,4071.132681,3478.967927,-1608.800546
185.803329,5181.441594,4737.318029,842.705048
185.803650,5921.647536,7920.203579,612.876398
185.803971,6069.688724,9400.615463,-2528.115143
185.804291,7105.977043,10584.944971,-3447.429741
185.804612,8290.306550,11177.109724,-1225.752797
185.804932,8660.409521,10436.903782,1685.410096
185.805253,6513.812290,7105.977043,383.047749
185.805574,5181.441594,5995.668130,-3064.381992
185.805894,4663.297435,6957.935855,-3524.039291
185.806215,5773.606348,7105.977043,-1225.752797
185.806535,4589.276840,6735.874072,-306.438199
185.806856,6217.729913,9030.512492,-383.047749
185.807177,5033.400406,11029.068536,-842.705048
185.807497,3997.112087,10510.924376,383.047749
185.807818,2516.700203,6883.915261,1455.581446
185.808138,3997.112087,5477.523971,2298.286494
185.808459,3849.070898,6513.812290,1762.019645
185.808780,3108.864956,9474.636058,-842.705048
185.809100,3330.926739,11917.315666,-3447.429741
185.809421,5551.544565,13249.686362,-229.828649
185.809741,6735.874072,12583.501014,4290.134789
185.810062,5773.606348,10436.903782,4290.134789
185.810383,2664.741391,7920.203579,1608.800546
185.810703,444.123565,6069.688724,-306.438199
185.811024,3034.844362,5551.544565,2604.724693
185.811344,5255.462188,6217.729913,4136.915689
185.811665,5773.606348,6513.812290,1378.971896
185.811986,3775.050304,7179.997637,-1378.971896
185.812306,4663.297435,8734.430116,-1991.848295
185.812627,5329.482782,8290.306550,-306.438199
185.812947,6809.894666,5847.626942,459.657299
185.813268,7994.224174,5773.606348,-1685.410096
185.813589,7476.080014,6513.812290,-1225.752797
185.813909,5995.668130,8512.368333,459.657299
185.814230,6217.729913,9770.718434,1608.800546
185.814550,7254.018232,10881.027347,-383.047749
185.814871,5995.668130,8956.491898,-2987.772442
185.815192,5255.462188,6883.915261,-3294.210641
185.815512,4737.318029,4515.256246,-536.266849
185.815833,3478.967927,2368.659014,1532.190996
185.816153,3923.091493,2368.659014,995.924147
185.816474,3478.967927,5329.482782,-1225.752797
185.816795,2368.659014,7698.141797,-2834.553343
185.817115,3256.906145,7402.059420,-1685.410096
185.817436,5403.503377,6883.915261,0.000000
185.817756,6587.832884,7328.038826,0.000000
185.818077,6069.688724,9474.636058,-1149.143247
185.818398,5181.441594,10436.903782,-2604.724693
185.818718,4589.276840,8882.471304,-2757.943793
185.819039,6439.791695,7328.038826,-1072.533697
185.819359,5995.668130,7772.162391,-1838.629195
185.819680,4071.132681,8512.368333,-1762.019645
185.820001,3552.988522,9548.656652,-689.485948
185.820321,5699.585753,9104.533087,-1072.533697
185.820642,4293.194464,6513.812290,-1685.410096
185.820962,3478.967927,3478.967927,-1072.533697
185.821283,4441.235652,5403.503377,-2068.457845
185.821604,4219.173869,7846.182985,-1762.019645
185.821924,3849.070898,10436.903782,-3064.381992
185.822245,7846.182985,11769.274478,-4673.182538
185.822565,9104.533087,11843.295072,-3600.648841
185.822886,7402.059420,12361.439231,-306.438199
185.823207,6587.832884,12583.501014,0.000000
185.823527,4737.318029,11325.150913,-2604.724693
185.823848,4885.359217,9178.553681,-3064.381992
185.824168,5847.626942,7254.018232,-689.485948
185.824489,5921.647536,7846.182985,76.609550
185.824810,5773.606348,10140.821405,-1149.143247
185.825130,3849.070898,10140.821405,-1455.581446
185.825451,3404.947333,7402.059420,-2145.067394
185.825771,4811.338623,5477.523971,383.047749
185.826092,5181.441594,6291.750507,2451.505594
185.826413,5033.400406,8882.471304,842.705048
185.826733,4663.297435,10955.047942,-2068.457845
185.827054,4589.276840,11103.089130,-2757.943793
185.827374,6439.791695,10436.903782,-1302.362347
185.827695,6587.832884,9178.553681,306.438199
185.828016,6069.688724,9400.615463,-1455.581446
185.828336,5995.668130,10288.862594,-995.924147
185.828657,3997.112087,9548.656652,-459.657299
185.828977,4219.173869,6809.894666,-306.438199
185.829298,4737.318029,3701.029710,689.485948
185.829619,4663.297435,2886.803174,612.876398
185.829939,4959.379811,5181.441594,459.657299
185.830260,4737.318029,7624.121203,-919.314598
185.830580,4071.132681,6957.935855,-3140.991542
185.830901,6735.874072,6735.874072,-2221.676944
185.831222,8290.306550,8364.327145,459.657299
185.831542,6291.750507,11029.068536,1225.752797
185.831863,4367.215058,10066.800811,995.924147
185.832183,4959.379811,8882.471304,-1149.143247
185.832504,4737.318029,6809.894666,-153.219100
185.832825,3108.864956,4589.276840,2068.457845
185.833145,2664.741391,5477.523971,2068.457845
185.833466,3108.864956,7402.059420,842.705048
185.833786,1480.411884,6957.935855,842.705048
185.834107,3849.070898,4737.318029,766.095498
185.834428,4441.235652,3849.070898,1378.971896
185.834748,3849.070898,6513.812290,2987.772442
185.835069,3034.844362,9474.636058,2451.505594
185.835389,4219.173869,10362.883188,-1225.752797
185.835710,5329.482782,9030.512492,-3140.991542
185.836031,6143.709319,7105.977043,76.609550
185.836351,6957.935855,7550.100608,1762.019645
185.836672,5625.565159,9326.594869,766.095498
185.836992,3330.926739,10436.903782,-2068.457845
185.837313,3478.967927,8586.388927,-2604.724693
185.837634,5551.544565,7031.956449,-1225.752797
185.837954,5107.421000,3256.906145,1762.019645
185.838275,4811.338623,4367.215058,1532.190996
185.838595,4811.338623,7846.182985,-995.924147
185.838916,3923.091493,10510.924376,-2298.286494
185.839237,3997.112087,9548.656652,-1149.143247
185.839557,6365.771101,7772.162391,919.314598
185.839878,5773.606348,8660.409521,1149.143247
185.840198,4219.173869,10140.821405,-153.219100
185.840519,2812.782580,10214.842000,-2451.505594
185.840840,4885.359217,10658.965565,-3600.648841
185.841160,5773.606348,9992.780217,-2451.505594
185.841481,4737.318029,8438.347739,76.609550
185.841801,3997.112087,6883.915261,383.047749
185.842122,4145.153275,8438.347739,0.000000
185.842443,2220.617826,8068.244768,-1378.971896
185.842763,3849.070898,5107.421000,-2834.553343
185.843084,8808.450710,6957.935855,-2757.943793
185.843404,7624.121203,10732.986159,-306.438199
185.843725,5403.503377,12435.459826,153.219100
185.844046,6291.750507,10584.944971,-1455.581446
185.844366,7031.956449,9548.656652,-2374.896044
185.844687,6069.688724,9252.574275,76.609550
185.845007,6069.688724,8660.409521,842.705048
185.845328,4071.132681,7402.059420,-1532.190996
185.845649,4367.215058,7772.162391,-2221.676944
185.845969,4811.338623,8438.347739,-1455.581446
185.846290,6143.709319,7772.162391,-2145.067394
185.846610,4737.318029,8068.244768,-1072.533697
185.846931,5847.626942,10214.842000,919.314598
185.847252,5847.626942,10658.965565,-229.828649
185.847572,5033.400406,8216.285956,-995.924147
185.847893,5551.544565,8142.265362,-689.485948
185.848213,6883.915261,8290.306550,1225.752797
185.848534,6217.729913,9474.636058,1608.800546
185.848855,3775.050304,8438.347739,-459.657299
185.849175,4663.297435,8956.491898,-2298.286494
185.849496,5995.668130,9030.512492,-459.657299
185.849816,4441.235652,7698.141797,1608.800546
185.850137,3552.988522,5033.400406,1762.019645
185.850457,5403.503377,4515.256246,383.047749
185.850778,3478.967927,5181.441594,-689.485948
185.851099,2812.782580,5995.668130,-2145.067394
185.851419,4737.318029,7550.100608,-1915.238745
185.851740,5921.647536,8586.388927,-1762.019645
185.852060,5033.400406,9474.636058,-689.485948
185.852381,6513.812290,9178.553681,1072.533697
185.852702,4589.276840,7550.100608,306.438199
185.853022,3552.988522,7328.038826,-306.438199
185.853343,3034.844362,8438.347739,383.047749
185.853663,3478.967927,8660.409521,0.000000
185.853984,3478.967927,7624.121203,383.047749
185.854305,2960.823768,5921.647536,1072.533697
185.854625,3775.050304,5625.565159,995.924147
185.854946,3182.885551,4885.359217,842.705048
185.855266,3997.112087,7105.977043,-689.485948
185.855587,3478.967927,8512.368333,-2298.286494
185.855908,5551.544565,10066.800811,-1455.581446
185.856228,6735.874072,10807.006753,306.438199
185.856549,7328.038826,10732.986159,2528.115143
185.856869,5699.585753,11695.253884,3753.867940
185.857190,5625.565159,10510.924376,1991.848295
185.857511,3627.009116,8364.327145,-766.095498
185.857831,2886.803174,5107.421000,842.705048
185.858152,4589.276840,4811.338623,2987.772442
185.858472,5625.565159,5551.544565,3983.696590
185.858793,5625.565159,7328.038826,2298.286494
185.859114,4811.338623,8290.306550,-689.485948
185.859434,5181.441594,9178.553681,-1378.971896
185.859755,5773.606348,8216.285956,459.657299
185.860075,7254.018232,8142.265362,1532.190996
185.860396,7402.059420,9400.615463,383.047749
185.860717,5995.668130,9252.574275,-1838.629195
185.861037,5773.606348,9474.636058,-1915.238745
185.861358,7624.121203,11695.253884,229.828649
185.861678,4367.215058,11547.212695,1225.752797
185.861999,3701.029710,8882.471304,1302.362347
185.862320,5107.421000,7624.121203,689.485948
185.862640,4515.256246,6661.853478,612.876398
185.862961,1924.535449,4737.318029,2681.334243
185.863281,3034.844362,3701.029710,2757.943793
185.863602,4145.153275,5033.400406,919.314598
185.863923,3627.009116,6883.915261,842.705048
185.864243,3775.050304,8956.491898,-766.095498
185.864564,7402.059420,9918.759623,-1685.410096
185.864884,6143.709319,9474.636058,-306.438199
185.865197,5773.606348,8512.368333,153.219100
185.865517,6365.771101,9400.615463,-919.314598
185.865838,4737.318029,10510.924376,-1225.752797
185.866159,3478.967927,9326.594869,306.438199
185.866479,3034.844362,5477.523971,229.828649
185.866800,3478.967927,3775.050304,-1532.190996
185.867121,4367.215058,4959.379811,-1149.143247
185.867441,5847.626942,7105.977043,-383.047749
185.867762,5551.544565,10140.821405,229.828649
185.868083,4737.318029,11399.171507,995.924147
185.868403,4071.132681,8216.285956,306.438199
185.868724,4737.318029,5403.503377,1838.629195
185.869045,5181.441594,6661.853478,2911.162892
185.869365,4293.194464,9104.533087,459.657299
185.869686,3627.009116,10066.800811,-4366.744339
185.870007,3923.091493,8438.347739,-4136.915689
185.870327,5033.400406,8142.265362,0.000000
185.870648,5181.441594,7994.224174,3140.991542
185.870969,5477.523971,9474.636058,1762.019645
185.871289,3256.906145,10066.800811,-2604.724693
185.871610,3923.091493,9400.615463,-2911.162892
185.871931,6365.771101,7179.997637,1455.581446
185.872251,8956.491898,7105.977043,3677.258390
185.872572,7328.038826,9548.656652,2374.896044
185.872893,4145.153275,10584.944971,383.047749
185.873213,3034.844362,9474.636058,-1915.238745
185.873534,5477.523971,7994.224174,306.438199
185.873855,6143.709319,7328.038826,3294.210641
185.874175,4811.338623,5921.647536,2298.286494
185.874496,4367.215058,4959.379811,-2145.067394
185.874817,2886.803174,4811.338623,-4060.306139
185.875137,3775.050304,6143.709319,-3064.381992
185.875458,6883.915261,7994.224174,-1072.533697
185.875778,8438.347739,10807.006753,-612.876398
185.876099,7105.977043,11473.192101,-995.924147
185.876420,8216.285956,11843.295072,-2068.457845
185.876740,7105.977043,8734.430116,-2451.505594
185.877061,6291.750507,5921.647536,0.000000
185.877382,6291.750507,6217.729913,2451.505594
185.877702,4145.153275,7105.977043,1149.143247
185.878023,2590.720797,8438.347739,-1762.019645
185.878344,4589.276840,8660.409521,-1225.752797
185.878664,3404.947333,6587.832884,612.876398
185.878985,3775.050304,3404.947333,2298.286494
185.879306,4367.215058,4811.338623,1072.533697
185.879626,4737.318029,7698.141797,-1991.848295
185.879947,3108.864956,8882.471304,-3064.381992
185.880268,5329.482782,9844.739029,-995.924147
185.880588,7698.141797,11177.109724,919.314598
185.880909,7550.100608,12213.398043,2145.067394
185.881230,7179.997637,12805.562797,995.924147
185.881550,5107.421000,9696.697840,-306.438199
185.881871,3404.947333,7105.977043,536.266849
185.882192,4367.215058,5699.585753,2298.286494
185.882512,4737.318029,5847.626942,2298.286494
185.882833,2368.659014,5773.606348,689.485948
185.883154,3330.926739,6809.894666,-766.095498
185.883474,4959.379811,8068.244768,0.000000
185.883795,4293.194464,8142.265362,1455.581446
185.884116,4441.235652,6735.874072,919.314598
185.884436,6735.874072,7698.141797,-459.657299
185.884757,5625.565159,10807.006753,-1302.362347
185.885078,5033.400406,11917.315666,-1455.581446
185.885398,6735.874072,10584.944971,-1378.971896
185.885719,7550.100608,9918.759623,1225.752797
185.886040,5551.544565,11399.171507,3294.210641
185.886360,5181.441594,10955.047942,3294.210641
185.886681,3330.926739,7846.182985,229.828649
185.887002,1998.556043,3775.050304,383.047749
185.887322,1776.494261,1258.350101,2068.457845
185.887643,2442.679609,-296.082377,2451.505594
185.887963,3701.029710,3182.885551,1838.629195
185.888284,5847.626942,8882.471304,995.924147
185.888605,6587.832884,11177.109724,-1072.533697
185.888925,5033.400406,10288.862594,-1991.848295
185.889246,7254.018232,10066.800811,153.219100
185.889567,7920.203579,10362.883188,2221.676944
185.889887,5773.606348,6883.915261,459.657299
185.890208,4959.379811,5033.400406,-3294.210641
185.890529,5773.606348,6217.729913,-3370.820191
185.890849,4145.153275,8290.306550,-1608.800546
185.891170,6883.915261,8290.306550,536.266849
185.891491,5477.523971,9030.512492,-766.095498
185.891811,3627.009116,7698.141797,-1455.581446
185.892132,3997.112087,5181.441594,536.266849
185.892453,5403.503377,3478.967927,1762.019645
185.892773,3923.091493,4663.297435,2451.505594
185.893094,5033.400406,8586.388927,1455.581446
185.893415,5551.544565,11547.212695,-2834.553343
185.893735,3627.009116,9326.594869,-3294.210641
185.894056,7031.956449,7846.182985,536.266849
185.894377,6883.915261,8586.388927,1302.362347
185.894697,3478.967927,8290.306550,-919.314598
185.895018,2072.576638,8660.409521,-2987.772442
185.895339,6143.709319,11325.150913,-3370.820191
185.895659,5403.503377,10658.965565,-1838.629195
185.895980,5033.400406,6883.915261,689.485948
185.896301,6291.750507,6513.812290,0.000000
185.896621,6217.729913,9030.512492,0.000000
185.896942,4071.132681,10140.821405,229.828649
185.897263,4885.359217,7402.059420,-1532.190996
185.897583,5699.585753,6883.915261,-1608.800546
185.897904,5995.668130,8142.265362,2681.334243
185.898225,7105.977043,10881.027347,3140.991542
185.898545,5477.523971,11843.295072,-1685.410096
185.898866,3182.885551,9992.780217,-4826.401637
185.899187,3775.050304,6291.750507,-3753.867940
185.899507,6513.812290,4145.153275,76.609550
185.899828,4959.379811,5033.400406,2145.067394
185.900148,3849.070898,8660.409521,-1072.533697
185.900469,4071.132681,11621.233289,-5898.935335
185.900790,5107.421000,11843.295072,-4903.011187
185.901110,5403.503377,11325.150913,1532.190996
185.901431,7994.224174,8808.450710,3830.477490
185.901752,6883.915261,7105.977043,1072.533697
185.902072,3108.864956,6735.874072,-1072.533697
185.902393,1628.453072,6439.791695,-2528.115143
185.902714,3552.988522,5255.462188,-766.095498
185.903034,5773.606348,6143.709319,689.485948
185.903355,5107.421000,7105.977043,383.047749
185.903676,5329.482782,9030.512492,-1685.410096
185.903996,4737.318029,8882.471304,-2221.676944
185.904317,5773.606348,7402.059420,-1302.362347
185.904638,5033.400406,5255.462188,-766.095498
185.904958,5403.503377,6513.812290,-1685.410096
185.905279,6069.688724,8808.450710,-1378.971896
185.905600,5329.482782,10288.862594,-689.485948
185.905920,7994.224174,11473.192101,-1072.533697
185.906241,7698.141797,11251.130318,-919.314598
185.906562,3478.967927,9770.718434,919.314598
185.906882,3404.947333,5773.606348,3600.648841
185.907203,6217.729913,5033.400406,3753.867940
185.907524,4515.256246,5329.482782,1149.143247
185.907844,1628.453072,5551.544565,-1149.143247
185.908165,3404.947333,5181.441594,-1685.410096
185.908486,5773.606348,7031.956449,306.438199
185.908806,6291.750507,8364.327145,2911.162892
185.909127,6291.750507,9918.759623,-2221.676944
185.909448,3849.070898,8586.388927,-5745.716235
185.909768,4737.318029,10214.842000,-842.705048
185.910089,5995.668130,11473.192101,4290.134789
185.910410,7476.080014,11325.150913,1838.629195
185.910730,5847.626942,10362.883188,-2834.553343
185.911051,4071.132681,9622.677246,-3370.820191
185.911372,1776.494261,6883.915261,612.876398
185.911692,3182.885551,3256.906145,3753.867940
185.912013,3552.988522,1850.514855,1838.629195
185.912333,5181.441594,5181.441594,-1532.190996
185.912654,3997.112087,9474.636058,-1685.410096
185.912975,3256.906145,9622.677246,-383.047749
185.913295,6809.894666,9400.615463,383.047749
185.913616,7772.162391,7994.224174,842.705048
185.913937,5403.503377,7254.018232,-919.314598
185.914257,4071.132681,7105.977043,-2145.067394
185.914578,3849.070898,8586.388927,-2145.067394
185.914899,3849.070898,8734.430116,-1225.752797
185.915219,5477.523971,8216.285956,-612.876398
185.915540,5477.523971,8660.409521,-1072.533697
185.915861,3330.926739,9178.553681,-612.876398
185.916181,3256.906145,8956.491898,-383.047749
185.916502,4441.235652,6661.853478,-995.924147
185.916823,2294.638420,3997.112087,-1149.143247
185.917143,4737.318029,5625.565159,459.657299
185.917464,6809.894666,10584.944971,1302.362347
185.917785,6365.771101,11917.315666,-612.876398
185.918105,5551.544565,10214.842000,-2451.505594
185.918426,6291.750507,9696.697840,-1532.190996
185.918747,5625.565159,9622.677246,1991.848295
185.919067,5181.441594,9400.615463,4136.915689
185.919388,5699.585753,8142.265362,689.485948
185.919709,3997.112087,6587.832884,-2451.505594
185.920029,4959.379811,7994.224174,-1149.143247
185.920350,4737.318029,8586.388927,1991.848295
185.920671,5033.400406,7698.141797,2451.505594
185.920991,6439.791695,7476.080014,1225.752797
185.921312,7476.080014,7698.141797,-1302.362347
185.921633,3256.906145,5995.668130,-2451.505594
185.921953,6661.853478,7920.203579,459.657299
185.922274,8660.409521,10066.800811,2145.067394
185.922595,6365.771101,9844.739029,-1072.533697
185.922915,5477.523971,9252.574275,-3217.601092
185.923236,7179.997637,9326.594869,-2221.676944
185.923557,3775.050304,7254.018232,766.095498
185.923877,2960.823768,3478.967927,2681.334243
185.924198,5403.503377,5255.462188,-1532.190996
185.924519,4737.318029,9178.553681,-3677.258390
185.924839,2664.741391,10658.965565,-1532.190996
185.925160,4589.276840,7550.100608,766.095498
185.925480,6439.791695,7179.997637,1685.410096
185.925801,4515.256246,7920.203579,3370.820191
185.926122,3552.988522,8956.491898,842.705048
185.926442,1480.411884,7105.977043,-2221.676944
185.926763,1924.535449,6809.894666,-1072.533697
185.927084,3404.947333,6069.688724,1149.143247
185.927404,4737.318029,5255.462188,306.438199
185.927725,2072.576638,5847.626942,-2068.457845
185.928046,2294.638420,8290.306550,-3447.429741
185.928366,4071.132681,9770.718434,-2757.943793
185.928687,5255.462188,8438.347739,-1915.238745
185.929008,4589.276840,6661.853478,-689.485948
185.929328,6217.729913,7624.121203,306.438199
185.929649,4811.338623,9326.594869,-1455.581446
185.929970,4293.194464,8586.388927,-2681.334243
185.930290,6513.812290,8734.430116,-3677.258390
185.930611,6735.874072,8512.368333,-1149.143247
185.930932,4367.215058,8290.306550,536.266849
185.931252,3849.070898,6661.853478,459.657299
185.931573,4663.297435,6439.791695,-1302.362347
185.931894,5181.441594,7254.018232,-1072.533697
185.932214,5625.565159,7994.224174,-919.314598
185.932535,4737.318029,8068.244768,-2221.676944
185.932856,7031.956449,9696.697840,-2298.286494
185.933176,7994.224174,11769.274478,-919.314598
185.933497,7179.997637,11473.192101,-1378.971896
185.933818,6883.915261,11473.192101,-229.828649
185.934138,7328.038826,10510.924376,1608.800546
185.934459,4441.235652,8808.450710,383.047749
185.934780,5773.606348,8438.347739,995.924147
185.935100,6957.935855,10510.924376,1072.533697
185.935421,4219.173869,10140.821405,842.705048
185.935742,3478.967927,7402.059420,1225.752797
185.936062,5403.503377,5033.400406,1915.238745
185.936383,5625.565159,5773.606348,2451.505594
185.936704,4959.379811,8586.388927,2834.553343
185.937024,5995.668130,11695.253884,-306.438199
185.937345,4441.235652,11473.192101,-1302.362347
185.937665,6809.894666,10658.965565,76.609550
185.937986,8512.368333,9622.677246,1455.581446
185.938307,6217.729913,8734.430116,1302.362347
185.938627,3330.926739,10066.800811,689.485948
185.938948,4293.194464,10288.862594,-689.485948
185.939269,2812.782580,7476.080014,-1455.581446
185.939589,3997.112087,4737.318029,2451.505594
185.939910,4515.256246,4367.215058,4519.963438
185.940231,5033.400406,7179.997637,3830.477490
185.940551,1850.514855,8882.471304,1608.800546
185.940872,814.226536,6217.729913,76.609550
185.941193,4367.215058,3997.112087,612.876398
185.941513,5255.462188,3330.926739,3907.087040
185.941834,2960.823768,4737.318029,2374.896044
185.942155,3404.947333,6883.915261,-1991.848295
185.942475,4219.173869,10066.800811,-3524.039291
185.942796,2516.700203,9252.574275,-842.705048
185.943117,5773.606348,7402.059420,1608.800546
185.943437,5329.482782,5773.606348,2528.115143
185.943758,3256.906145,6217.729913,689.485948
185.944079,1702.473667,5625.565159,-919.314598
185.944399,2812.782580,3775.050304,-2374.896044
185.944720,3997.112087,2368.659014,-1072.533697
185.945041,5329.482782,3330.926739,766.095498
185.945361,5329.482782,6587.832884,-1149.143247
185.945682,5699.585753,9104.533087,-1302.362347
185.946003,5773.606348,10658.965565,-1072.533697
185.946323,6217.729913,7402.059420,-995.924147
185.946644,6143.709319,6735.874072,-1072.533697
185.946965,6291.750507,8734.430116,0.000000
185.947285,6069.688724,11029.068536,-1378.971896
185.947606,4589.276840,8734.430116,-1991.848295
185.947927,4737.318029,6439.791695,-3217.601092
185.948247,5255.462188,6143.709319,-2068.457845
185.948568,5255.462188,7772.162391,229.828649
185.948889,3997.112087,8512.368333,612.876398
185.949209,6291.750507,11473.192101,-1455.581446
185.949530,6365.771101,12065.356855,-1838.629195
185.949850,6513.812290,9992.780217,-766.095498
185.950171,6365.771101,9030.512492,1915.238745
185.950492,7772.162391,12213.398043,3217.601092
185.950812,5551.544565,13693.809927,689.485948
185.951133,3775.050304,10881.027347,-2604.724693
185.951454,5921.647536,9178.553681,-2068.457845
185.951774,6957.935855,8660.409521,2451.505594
185.952095,4959.379811,9548.656652,4136.915689
185.952416,6069.688724,11251.130318,0.000000
185.952736,5551.544565,12805.562797,-4903.011187
185.953057,4367.215058,11547.212695,-2528.115143
185.953378,6957.935855,9918.759623,2681.334243
185.953698,7920.203579,8290.306550,4366.744339
185.954019,6217.729913,9326.594869,1762.019645
185.954340,4515.256246,10362.883188,-1072.533697
185.954660,5181.441594,10658.965565,-2145.067394
185.954981,4589.276840,9030.512492,1838.629195
185.955302,5995.668130,6143.709319,5592.497135
185.955622,6143.709319,4145.153275,3753.867940
185.955943,4441.235652,5773.606348,-1302.362347
185.956264,1554.432478,7772.162391,-2221.676944
185.956584,1850.514855,5033.400406,-1608.800546
185.956905,5329.482782,3478.967927,-995.924147
185.957226,6957.935855,5773.606348,612.876398
185.957546,4145.153275,9400.615463,-612.876398
185.957867,3034.844362,8586.388927,-2374.896044
185.958188,2886.803174,7550.100608,-3217.601092
185.958508,4219.173869,6291.750507,-919.314598
185.958829,4737.318029,6439.791695,995.924147
185.959150,4663.297435,6439.791695,-383.047749
185.959470,2886.803174,7402.059420,-1455.581446
185.959791,1850.514855,7550.100608,229.828649
185.960112,3552.988522,4145.153275,1225.752797
185.960432,3404.947333,1554.432478,2604.724693
185.960753,3775.050304,2368.659014,3524.039291
185.961074,1628.453072,4737.318029,1532.190996
185.961394,4071.132681,6513.812290,-1455.581446
185.961715,4959.379811,7328.038826,-2528.115143
185.962035,6217.729913,8216.285956,-612.876398
185.962356,7698.141797,9326.594869,842.705048
185.962677,6957.935855,10584.944971,536.266849
185.962997,4145.153275,10955.047942,-306.438199
185.963318,5181.441594,9474.636058,153.219100
185.963639,7402.059420,7994.224174,229.828649
185.963959,4589.276840,6291.750507,536.266849
185.964280,4515.256246,7254.018232,842.705048
185.964601,6957.935855,9400.615463,0.000000
185.964922,6735.874072,9696.697840,-612.876398
185.965242,2886.803174,7846.182985,-306.438199
185.965563,5699.585753,7328.038826,383.047749
185.965884,5477.523971,7550.100608,995.924147
185.966204,6143.709319,9104.533087,1685.410096
185.966525,6365.771101,11103.089130,-995.924147
185.966846,6217.729913,12509.480420,-3830.477490
185.967166,4589.276840,11103.089130,-1532.190996
185.967487,6513.812290,10140.821405,2298.286494
185.967808,6439.791695,9696.697840,1991.848295
185.968129,4663.297435,9992.780217,-612.876398
185.968449,2516.700203,8438.347739,-3294.210641
185.968770,3182.885551,5773.606348,-3447.429741
185.969091,6291.750507,6587.832884,383.047749
185.969411,5699.585753,7254.018232,2298.286494
185.969732,4441.235652,9030.512492,-689.485948
185.970053,3256.906145,9400.615463,-3524.039291
185.970373,3552.988522,9326.594869,-2757.943793
185.970694,4885.359217,8290.306550,-76.609550
185.971015,7105.977043,7920.203579,536.266849
185.971336,5921.647536,9178.553681,-2374.896044
185.971656,4737.318029,9696.697840,-4060.306139
185.971977,3552.988522,8290.306550,-3677.258390
185.972298,5625.565159,6217.729913,-1378.971896
185.972618,6957.935855,7476.080014,0.000000
185.972939,6217.729913,8364.327145,-995.924147
185.973260,4737.318029,8956.491898,-2298.286494
185.973581,6957.935855,9104.533087,-1455.581446
185.973901,7994.224174,9178.553681,1378.971896
185.974222,7328.038826,7254.018232,3064.381992
185.974543,6143.709319,6809.894666,1532.190996
185.974863,4515.256246,7254.018232,-383.047749
185.975184,4885.359217,8216.285956,536.266849
185.975505,5329.482782,6735.874072,2834.553343
185.975825,5773.606348,5773.606348,1991.848295
185.976146,4219.173869,6883.915261,919.314598
185.976467,4145.153275,9178.553681,0.000000
185.976788,3627.009116,9178.553681,-919.314598
185.977108,5403.503377,9474.636058,306.438199
185.977429,5255.462188,9474.636058,1149.143247
185.977750,4589.276840,9252.574275,1225.752797
185.978070,3849.070898,9844.739029,1072.533697
185.978391,4219.173869,9770.718434,1302.362347
185.978712,4589.276840,9474.636058,612.876398
185.979033,4145.153275,6365.771101,612.876398
185.979353,1406.391290,4885.359217,536.266849
185.979674,2442.679609,4663.297435,2911.162892
185.979995,4737.318029,6809.894666,3064.381992
185.980315,3627.009116,7920.203579,536.266849
185.980636,2590.720797,7105.977043,-1608.800546
185.980957,4441.235652,7105.977043,-1378.971896
185.981277,6587.832884,6957.935855,612.876398
185.981598,5329.482782,7920.203579,1532.190996
185.981919,6143.709319,8586.388927,689.485948
185.982240,6365.771101,8216.285956,-2528.115143
185.982560,4219.173869,7031.956449,-3064.381992
185.982881,2960.823768,5921.647536,-1455.581446
185.983202,5995.668130,6143.709319,153.219100
185.983522,6217.729913,6809.894666,-1455.581446
185.983843,4071.132681,5625.565159,-2451.505594
185.984164,2294.638420,4737.318029,-3217.601092
185.984484,5329.482782,4811.338623,-1532.190996
185.984805,6735.874072,7105.977043,1302.362347
185.985126,5477.523971,8586.388927,383.047749
185.985447,6217.729913,10584.944971,-2068.457845
185.985767,6365.771101,10140.821405,-3140.991542
185.986088,5033.400406,7105.977043,-1532.190996
185.986409,6439.791695,6069.688724,0.000000
185.986729,7920.203579,9474.636058,-766.095498
185.987050,4145.153275,10955.047942,-3600.648841
185.987371,3997.112087,10362.883188,-3064.381992
185.987692,6439.791695,10881.027347,-1838.629195
185.988012,5625.565159,9030.512492,995.924147
185.988333,3182.885551,7105.977043,2451.505594
185.988654,5403.503377,7624.121203,0.000000
185.988974,3775.050304,9474.636058,-3217.601092
185.989295,3108.864956,9178.553681,-1532.190996
185.989616,6809.894666,9474.636058,153.219100
185.989936,7994.224174,11103.089130,383.047749
185.990257,5181.441594,12731.542202,383.047749
185.990578,4811.338623,12435.459826,-1838.629195
185.990899,6365.771101,11399.171507,-3830.477490
185.991219,4589.276840,8290.306550,-383.047749
185.991540,5181.441594,7105.977043,2528.115143
185.991861,5995.668130,7254.018232,0.000000
185.992181,4071.132681,10362.883188,-3447.429741
185.992502,2516.700203,10510.924376,-3294.210641
185.992823,7105.977043,9696.697840,-1225.752797
185.993144,7772.162391,8364.327145,1608.800546
185.993464,5625.565159,7179.997637,2298.286494
185.993785,4367.215058,7994.224174,229.828649
185.994106,6069.688724,9770.718434,-536.266849
185.994426,3478.967927,9548.656652,153.219100
185.994747,3849.070898,7920.203579,995.924147
185.995068,6587.832884,8364.327145,1149.143247
185.995388,4663.297435,6883.915261,1149.143247
185.995709,1554.432478,4811.338623,-766.095498
185.996030,3701.029710,3923.091493,-1608.800546
185.996351,3849.070898,4367.215058,-1915.238745
185.996671,4441.235652,5255.462188,-612.876398
185.996992,7402.059420,8808.450710,76.609550
185.997313,7031.956449,10510.924376,536.266849
185.997633,6587.832884,10288.862594,0.000000
185.997954,7772.162391,8512.368333,536.266849
185.998275,5773.606348,4737.318029,1455.581446
185.998596,4071.132681,3552.988522,3370.820191
185.998916,5477.523971,5625.565159,2834.553343
185.999237,3997.112087,6587.832884,919.314598
185.999558,3997.112087,6957.935855,766.095498
185.999878,4441.235652,6883.915261,842.705048
186.000199,2590.720797,5477.523971,766.095498
186.000520,2368.659014,4441.235652,2374.896044
186.000840,3923.091493,4811.338623,459.657299
186.001161,2590.720797,6513.812290,-2834.553343
186.001482,3034.844362,8438.347739,-2221.676944
186.001803,5847.626942,12731.542202,-306.438199
186.002123,6661.853478,13101.645173,0.000000
186.002444,5033.400406,11251.130318,0.000000
186.002765,5625.565159,10436.903782,-153.219100
186.003085,5403.503377,10214.842000,536.266849
186.003406,2294.638420,6809.894666,4290.134789
186.003727,2886.803174,3997.112087,4213.525239
186.004047,4589.276840,4441.235652,1072.533697
186.004368,2368.659014,6217.729913,-306.438199
186.004689,1924.535449,6735.874072,229.828649
186.005010,5625.565159,6957.935855,-153.219100
186.005330,7698.141797,8290.306550,-536.266849
186.005651,5847.626942,8364.327145,-842.705048
186.005972,6217.729913,8512.368333,-3064.381992
186.006292,6809.894666,8586.388927,-2834.553343
186.006613,5995.668130,10288.862594,-919.314598
186.006934,6809.894666,10955.047942,-1378.971896
186.007255,8142.265362,11547.212695,-3983.696590
186.007575,6217.729913,10584.944971,-4596.572988
186.007896,7179.997637,10658.965565,-2451.505594
186.008217,5403.503377,6957.935855,-612.876398
186.008537,3478.967927,3478.967927,-383.047749
186.008858,4071.132681,2812.782580,919.314598
186.009179,5995.668130,6587.832884,995.924147
186.009499,3701.029710,7772.162391,-1149.143247
186.009820,6069.688724,9770.718434,-1838.629195
186.010141,5625.565159,9104.533087,-3294.210641
186.010462,6217.729913,9326.594869,-1838.629195
186.010782,7698.141797,11177.109724,-76.609550
186.011103,6143.709319,12361.439231,-1149.143247
186.011424,4959.379811,12731.542202,-1532.190996
186.011744,6365.771101,12139.377449,-306.438199
186.012065,4737.318029,10362.883188,-689.485948
186.012386,2886.803174,8290.306550,612.876398
186.012707,5181.441594,8882.471304,1225.752797
186.013027,3478.967927,7105.977043,-459.657299
186.013348,2368.659014,4959.379811,0.000000
186.013669,4663.297435,4737.318029,1378.971896
186.013989,7105.977043,7031.956449,1302.362347
186.014310,5329.482782,7994.224174,2145.067394
186.014631,5921.647536,9918.759623,306.438199
186.014951,6883.915261,10288.862594,-2757.943793
186.015272,8290.306550,10066.800811,-1838.629195
186.015593,8216.285956,9400.615463,919.314598
186.015914,8734.430116,9104.533087,842.705048
186.016234,5477.523971,10066.800811,0.000000
