#time,accel_x,accel_y,accel_z
179.418601,5107.421000,8142.265362,0.000000
179.418922,5033.400406,8142.265362,-306.438199
179.419243,4959.379811,8290.306550,-229.828649
179.419564,4885.359217,8142.265362,-306.438199
179.419885,4885.359217,8068.244768,-306.438199
179.420206,4811.338623,7920.203579,0.000000
179.420527,4811.338623,7994.224174,0.000000
179.420848,5107.421000,7994.224174,0.000000
179.421169,5107.421000,7994.224174,-306.438199
179.421490,4959.379811,7846.182985,0.000000
179.421811,4885.359217,7994.224174,-306.438199
179.422132,4959.379811,8142.265362,-383.047749
179.422453,4885.359217,8290.306550,-306.438199
179.422774,5033.400406,7994.224174,-229.828649
179.423095,5033.400406,7920.203579,0.000000
179.423416,4959.379811,8068.244768,0.000000
179.423737,4885.359217,8142.265362,-612.876398
179.424058,4811.338623,8216.285956,-536.266849
179.424379,4737.318029,8142.265362,0.000000
179.424700,4959.379811,7994.224174,-383.047749
179.425021,4959.379811,7846.182985,-153.219100
179.425342,5107.421000,8142.265362,-383.047749
179.425663,4959.379811,7994.224174,0.000000
179.425984,4737.318029,7994.224174,0.000000
179.426305,4885.359217,8068.244768,0.000000
179.426626,5033.400406,7994.224174,229.828649
179.426947,5181.441594,7920.203579,-306.438199
179.427268,4885.359217,7920.203579,-76.609550
179.427589,5107.421000,7994.224174,-306.438199
179.427910,4885.359217,7994.224174,-229.828649
179.428231,4811.338623,8142.265362,0.000000
179.428552,4959.379811,8142.265362,-383.047749
179.428873,4959.379811,8290.306550,-153.219100
179.429194,4811.338623,8142.265362,-153.219100
179.429515,4885.359217,7994.224174,-153.219100
179.429836,4959.379811,8142.265362,-229.828649
179.430157,5181.441594,8290.306550,-306.438199
179.430478,4885.359217,8216.285956,-153.219100
179.430799,5033.400406,7772.162391,0.000000
179.431120,4885.359217,7994.224174,-153.219100
179.431441,4589.276840,8142.265362,-383.047749
179.431762,4589.276840,7698.141797,-306.438199
179.432083,4515.256246,7328.038826,-383.047749
179.432404,4589.276840,7698.141797,-76.609550
179.432725,4959.379811,8882.471304,-306.438199
179.433046,5181.441594,9400.615463,-459.657299
179.433367,5107.421000,9400.615463,-995.924147
179.433688,5255.462188,9104.533087,-383.047749
179.434009,4589.276840,9326.594869,76.609550
179.434330,3923.091493,8438.347739,383.047749
179.434651,3627.009116,7105.977043,306.438199
179.434972,3627.009116,7179.997637,383.047749
179.435293,4071.132681,7920.203579,459.657299
179.435614,3923.091493,8068.244768,-536.266849
179.435935,4663.297435,8586.388927,-766.095498
179.436256,4515.256246,8808.450710,-536.266849
179.436577,4441.235652,8660.409521,0.000000
179.436898,4367.215058,9178.553681,-153.219100
179.437219,3256.906145,9400.615463,-536.266849
179.437540,3034.844362,9400.615463,-1608.800546
179.437861,3182.885551,10658.965565,-689.485948
179.438182,2368.659014,11695.253884,-612.876398
179.438503,1258.350101,10732.986159,-1149.143247
179.438824,1480.411884,9770.718434,-612.876398
179.439145,1110.308913,10288.862594,76.609550
179.439466,-222.061783,10807.006753,76.609550
179.439787,0.000000,10658.965565,-229.828649
179.440108,444.123565,10362.883188,-153.219100
179.440429,370.102971,10362.883188,2145.067394
179.440750,888.247130,10510.924376,3217.601092
179.441071,666.185348,10362.883188,1685.410096
179.441392,1110.308913,10510.924376,-306.438199
179.441713,444.123565,10732.986159,-766.095498
179.442034,1332.370696,10140.821405,-842.705048
179.442355,2146.597232,8660.409521,-306.438199
179.442676,2960.823768,9326.594869,153.219100
179.442997,2368.659014,9400.615463,0.000000
179.443318,2368.659014,10436.903782,-459.657299
179.443639,2368.659014,10807.006753,-766.095498
179.443960,3182.885551,9548.656652,-306.438199
179.444281,4737.318029,9326.594869,306.438199
179.444602,5255.462188,9400.615463,306.438199
179.444923,4071.132681,8956.491898,-306.438199
179.445244,3775.050304,8068.244768,-1225.752797
179.445565,4145.153275,7772.162391,-1378.971896
179.445886,4589.276840,7031.956449,-995.924147
179.446207,4589.276840,6661.853478,459.657299
179.446528,4959.379811,7105.977043,919.314598
179.446849,5107.421000,7624.121203,1378.971896
179.447170,5847.626942,7624.121203,689.485948
179.447491,6365.771101,6735.874072,612.876398
179.447812,6439.791695,5847.626942,-229.828649
179.448133,7105.977043,5551.544565,-919.314598
179.448454,7402.059420,5921.647536,-1302.362347
179.448775,7698.141797,6143.709319,-995.924147
179.449096,8660.409521,6217.729913,0.000000
179.449417,8512.368333,7031.956449,-306.438199
179.449738,8142.265362,7402.059420,-76.609550
179.450059,7920.203579,7105.977043,-842.705048
179.450380,7550.100608,6809.894666,-1302.362347
179.450701,7031.956449,6661.853478,-1072.533697
179.451022,6735.874072,6809.894666,-995.924147
179.451343,5995.668130,6883.915261,-995.924147
179.451664,5551.544565,7624.121203,-229.828649
179.451985,5181.441594,8142.265362,0.000000
179.452306,4441.235652,8512.368333,689.485948
179.452627,3997.112087,9030.512492,689.485948
179.452948,4145.153275,9548.656652,995.924147
179.453269,4145.153275,9770.718434,689.485948
179.453590,4219.173869,9104.533087,612.876398
179.453911,4071.132681,8956.491898,383.047749
179.454232,3701.029710,8216.285956,0.000000
179.454553,3330.926739,7772.162391,76.609550
179.454874,3775.050304,7994.224174,76.609550
179.455195,4737.318029,8216.285956,306.438199
179.455516,5625.565159,8364.327145,-229.828649
179.455837,5921.647536,8586.388927,-689.485948
179.456158,5847.626942,8882.471304,-612.876398
179.456479,5773.606348,9252.574275,-612.876398
179.456800,5551.544565,9030.512492,-229.828649
179.457121,5625.565159,8808.450710,-689.485948
179.457442,5625.565159,8882.471304,-1149.143247
179.457763,4811.338623,8956.491898,-1685.410096
179.458084,4071.132681,8956.491898,-1685.410096
179.458405,3478.967927,9252.574275,-612.876398
179.458726,3034.844362,9548.656652,0.000000
179.459047,2368.659014,9400.615463,0.000000
179.459368,2146.597232,9474.636058,0.000000
179.459689,2590.720797,9104.533087,0.000000
179.460010,1776.494261,9474.636058,766.095498
179.460331,2072.576638,8956.491898,536.266849
179.460652,1998.556043,8364.327145,459.657299
179.460973,2664.741391,8216.285956,612.876398
179.461294,3256.906145,8660.409521,689.485948
179.461615,3552.988522,8808.450710,536.266849
179.461936,4293.194464,8068.244768,0.000000
179.462257,5329.482782,7476.080014,0.000000
179.462578,6069.688724,6513.812290,229.828649
179.462899,6735.874072,6217.729913,383.047749
179.463220,7105.977043,5625.565159,229.828649
179.463541,7254.018232,5921.647536,-612.876398
179.463862,7624.121203,6069.688724,-919.314598
179.464183,7920.203579,6735.874072,-995.924147
179.464504,8216.285956,7031.956449,-1302.362347
179.464825,7846.182985,6957.935855,-1302.362347
179.465146,7179.997637,7105.977043,-1378.971896
179.465467,6143.709319,7254.018232,-1455.581446
179.465788,5773.606348,7402.059420,-1149.143247
179.466109,5255.462188,8068.244768,-383.047749
179.466430,4737.318029,7994.224174,-306.438199
179.466751,4515.256246,8660.409521,383.047749
179.467072,4071.132681,8586.388927,76.609550
179.467393,3701.029710,8734.430116,76.609550
179.467714,3849.070898,8882.471304,459.657299
179.468035,3849.070898,8586.388927,612.876398
179.468356,3923.091493,8142.265362,766.095498
179.468677,3849.070898,8068.244768,1072.533697
179.468998,4293.194464,8216.285956,1225.752797
179.469319,4811.338623,8068.244768,766.095498
179.469640,5107.421000,8512.368333,0.000000
179.469961,5551.544565,7994.224174,-536.266849
179.470282,5773.606348,7994.224174,-766.095498
179.470603,6143.709319,7994.224174,-766.095498
179.470924,6143.709319,8142.265362,0.000000
179.471245,6365.771101,7994.224174,-383.047749
179.471566,6217.729913,8068.244768,-689.485948
179.471887,5847.626942,7920.203579,-919.314598
179.472208,5329.482782,8142.265362,-1225.752797
179.472529,4737.318029,8216.285956,-1225.752797
179.472850,4663.297435,8660.409521,-1149.143247
179.473171,4219.173869,8956.491898,-1149.143247
179.473492,3701.029710,9104.533087,-1149.143247
179.473813,2738.761985,9400.615463,-995.924147
179.474134,2812.782580,9474.636058,0.000000
179.474455,2442.679609,9622.677246,459.657299
179.474776,2146.597232,9622.677246,306.438199
179.475097,2072.576638,9252.574275,536.266849
179.475418,2590.720797,8956.491898,306.438199
179.475739,3182.885551,8364.327145,995.924147
179.476060,3701.029710,8068.244768,536.266849
179.476381,3849.070898,7772.162391,76.609550
179.476702,4737.318029,7402.059420,0.000000
179.477023,5625.565159,6957.935855,536.266849
179.477344,6439.791695,7031.956449,689.485948
179.477665,6661.853478,7328.038826,153.219100
179.477986,6883.915261,7550.100608,0.000000
179.478307,7254.018232,7476.080014,-766.095498
179.478628,7476.080014,7328.038826,-842.705048
179.478949,7179.997637,6809.894666,-842.705048
179.479270,7105.977043,7031.956449,-766.095498
179.479591,6291.750507,7105.977043,-1072.533697
179.479912,5921.647536,7402.059420,-995.924147
179.480233,5477.523971,7624.121203,-612.876398
179.480554,5551.544565,7772.162391,-383.047749
179.480876,4959.379811,8142.265362,0.000000
179.481197,4737.318029,8660.409521,153.219100
179.481518,4515.256246,8512.368333,612.876398
179.481839,4293.194464,8364.327145,459.657299
179.482160,4145.153275,8216.285956,459.657299
179.482481,4293.194464,7550.100608,995.924147
179.482802,4441.235652,7550.100608,766.095498
179.483124,4737.318029,7031.956449,459.657299
179.483445,5181.441594,7254.018232,842.705048
179.483766,5551.544565,7698.141797,459.657299
179.484087,6069.688724,7476.080014,0.000000
179.484408,6365.771101,7105.977043,0.000000
179.484729,6217.729913,7105.977043,76.609550
179.485050,6217.729913,6957.935855,76.609550
179.485372,6365.771101,7772.162391,0.000000
179.485693,6291.750507,7772.162391,-229.828649
179.486014,5847.626942,7846.182985,-612.876398
179.486335,5181.441594,8290.306550,-995.924147
179.486656,4737.318029,8586.388927,-1072.533697
179.486977,4441.235652,8512.368333,-766.095498
179.487298,3775.050304,8808.450710,-766.095498
179.487620,3478.967927,8882.471304,-229.828649
179.487941,3182.885551,8882.471304,-383.047749
179.488262,2738.761985,8882.471304,-842.705048
179.488583,2442.679609,9104.533087,-459.657299
179.488904,2368.659014,8882.471304,-153.219100
179.489225,2664.741391,8586.388927,76.609550
179.489546,3182.885551,8512.368333,0.000000
179.489867,3701.029710,8660.409521,-306.438199
179.490189,4145.153275,8512.368333,0.000000
179.490510,4367.215058,8216.285956,-306.438199
179.490831,5033.400406,7920.203579,-306.438199
179.491152,5625.565159,7550.100608,-536.266849
179.491473,6291.750507,7476.080014,-766.095498
179.491794,6661.853478,7846.182985,-306.438199
179.492115,6587.832884,7920.203579,-612.876398
179.492437,6809.894666,8142.265362,-1072.533697
179.492758,6661.853478,8364.327145,-1378.971896
179.493079,7031.956449,8142.265362,-1302.362347
179.493400,6217.729913,8216.285956,-1149.143247
179.493721,5773.606348,8216.285956,-919.314598
179.494042,4959.379811,8586.388927,-995.924147
179.494363,4737.318029,8808.450710,-689.485948
179.494685,4441.235652,9400.615463,-536.266849
179.495006,3849.070898,9104.533087,-536.266849
179.495327,3552.988522,8734.430116,306.438199
179.495648,3775.050304,9030.512492,612.876398
179.495969,3552.988522,8808.450710,459.657299
179.496290,4367.215058,8660.409521,306.438199
179.496611,4367.215058,8364.327145,229.828649
179.496932,4737.318029,8290.306550,306.438199
179.497254,5181.441594,7402.059420,842.705048
179.497575,5625.565159,7105.977043,1225.752797
179.497896,6513.812290,7179.997637,842.705048
179.498217,6291.750507,7031.956449,0.000000
179.498538,7105.977043,6809.894666,76.609550
179.498859,7402.059420,6735.874072,-459.657299
179.499180,8068.244768,6365.771101,0.000000
179.499502,7624.121203,7179.997637,0.000000
179.499823,7328.038826,6957.935855,-459.657299
179.500144,7179.997637,7031.956449,-536.266849
179.500465,6883.915261,7179.997637,-919.314598
179.500786,6661.853478,7105.977043,-1072.533697
179.501107,5699.585753,7550.100608,-1149.143247
179.501428,4959.379811,7476.080014,-383.047749
179.501750,4293.194464,7994.224174,-153.219100
179.502071,3404.947333,7772.162391,229.828649
179.502392,3034.844362,8068.244768,153.219100
179.502713,2664.741391,8290.306550,153.219100
179.503034,2664.741391,8364.327145,459.657299
179.503355,2812.782580,8290.306550,842.705048
179.503676,3182.885551,7994.224174,919.314598
179.503998,3256.906145,7994.224174,1225.752797
179.504319,3552.988522,7698.141797,612.876398
179.504640,3775.050304,7624.121203,459.657299
179.504961,4219.173869,7105.977043,229.828649
179.505282,4959.379811,7254.018232,76.609550
179.505603,5625.565159,6809.894666,-153.219100
179.505924,6069.688724,7328.038826,306.438199
179.506245,6217.729913,7624.121203,0.000000
179.506567,6439.791695,7772.162391,-459.657299
179.506888,6291.750507,7920.203579,-995.924147
179.507209,6365.771101,7846.182985,-1378.971896
179.507530,5995.668130,8290.306550,-766.095498
179.507851,5625.565159,8586.388927,-842.705048
179.508172,4885.359217,8734.430116,-1149.143247
179.508493,4663.297435,8734.430116,-1149.143247
179.508815,4515.256246,9104.533087,153.219100
179.509136,3775.050304,9326.594869,-383.047749
179.509457,3478.967927,9474.636058,0.000000
179.509778,3478.967927,9474.636058,76.609550
179.510099,3552.988522,9252.574275,383.047749
179.510420,3478.967927,9548.656652,306.438199
179.510741,4071.132681,9178.553681,383.047749
179.511063,3701.029710,8808.450710,306.438199
179.511384,4293.194464,8216.285956,306.438199
179.511705,4811.338623,8068.244768,612.876398
179.512026,5107.421000,7920.203579,612.876398
179.512347,5699.585753,7698.141797,0.000000
179.512668,6439.791695,7698.141797,-459.657299
179.512989,6809.894666,7476.080014,-919.314598
179.513311,7031.956449,7328.038826,0.000000
179.513632,7031.956449,7476.080014,-306.438199
179.513953,6957.935855,7624.121203,-612.876398
179.514274,6809.894666,7698.141797,-459.657299
179.514595,6809.894666,7698.141797,-919.314598
179.514916,6439.791695,7476.080014,-1455.581446
179.515237,5699.585753,8068.244768,-1608.800546
179.515558,5181.441594,8216.285956,-1225.752797
179.515880,4737.318029,8364.327145,-1072.533697
179.516201,4293.194464,8364.327145,-689.485948
179.516522,3997.112087,8586.388927,-153.219100
179.516843,3627.009116,8808.450710,-842.705048
179.517164,3182.885551,8512.368333,0.000000
179.517485,3330.926739,8586.388927,0.000000
179.517806,3478.967927,7994.224174,612.876398
179.518128,4145.153275,7772.162391,306.438199
179.518449,3997.112087,7846.182985,306.438199
179.518770,4441.235652,7402.059420,153.219100
179.519091,4885.359217,7105.977043,459.657299
179.519412,5773.606348,7031.956449,0.000000
179.519733,5995.668130,6661.853478,306.438199
179.520054,6809.894666,6587.832884,383.047749
179.520376,6809.894666,7105.977043,-766.095498
179.520697,6809.894666,7328.038826,-383.047749
179.521018,7031.956449,7402.059420,-689.485948
179.521339,7105.977043,7550.100608,-1225.752797
179.521660,6513.812290,7920.203579,-1072.533697
179.521981,5699.585753,8068.244768,-919.314598
179.522302,5181.441594,8512.368333,-536.266849
179.522623,4441.235652,9104.533087,-766.095498
179.522945,3923.091493,9326.594869,-612.876398
179.523266,3775.050304,9030.512492,-306.438199
179.523587,2590.720797,9548.656652,0.000000
179.523908,2442.679609,9696.697840,536.266849
179.524229,2368.659014,9696.697840,2221.676944
179.524550,2294.638420,9400.615463,1149.143247
179.524871,2442.679609,9252.574275,1072.533697
179.525193,2812.782580,8956.491898,1149.143247
179.525514,3404.947333,8660.409521,919.314598
179.525835,3849.070898,7994.224174,1302.362347
179.526156,4441.235652,7698.141797,1608.800546
179.526477,5181.441594,7550.100608,1072.533697
179.526798,5625.565159,7698.141797,153.219100
179.527119,6661.853478,7476.080014,0.000000
179.527441,6957.935855,7254.018232,-153.219100
179.527762,7179.997637,7105.977043,-229.828649
179.528083,7105.977043,7105.977043,-383.047749
179.528404,7179.997637,7328.038826,-459.657299
179.528725,7105.977043,7550.100608,-766.095498
179.529046,6735.874072,7698.141797,-1302.362347
179.529367,6143.709319,7476.080014,-1378.971896
179.529689,5551.544565,7846.182985,-1532.190996
179.530010,4885.359217,7994.224174,-995.924147
179.530331,4441.235652,7994.224174,-995.924147
179.530652,4145.153275,8142.265362,-689.485948
179.530973,3182.885551,8438.347739,-229.828649
179.531294,2812.782580,8586.388927,-306.438199
179.531615,2368.659014,9030.512492,-459.657299
179.531936,2812.782580,8364.327145,153.219100
179.532258,3108.864956,8364.327145,536.266849
179.532579,3552.988522,8364.327145,383.047749
179.532900,3775.050304,7920.203579,306.438199
179.533221,4071.132681,7846.182985,383.047749
179.533542,4441.235652,7476.080014,-229.828649
179.533863,5625.565159,6957.935855,0.000000
179.534184,6661.853478,6883.915261,0.000000
179.534506,6883.915261,7179.997637,-153.219100
179.534827,7550.100608,7402.059420,0.000000
179.535148,7328.038826,7179.997637,-766.095498
179.535469,7402.059420,7550.100608,-995.924147
179.535790,7476.080014,7550.100608,-1685.410096
179.536111,7179.997637,7698.141797,-1838.629195
179.536432,6883.915261,8364.327145,-1302.362347
179.536754,6365.771101,8808.450710,-1378.971896
179.537075,5699.585753,8956.491898,-1072.533697
179.537396,5255.462188,8808.450710,-842.705048
179.537717,4589.276840,9178.553681,-612.876398
179.538038,3997.112087,9474.636058,383.047749
179.538359,3627.009116,9326.594869,0.000000
179.538680,3256.906145,9326.594869,306.438199
179.539002,3182.885551,9326.594869,612.876398
179.539323,3330.926739,9252.574275,842.705048
179.539644,3182.885551,9104.533087,919.314598
179.539965,3627.009116,8512.368333,689.485948
179.540286,4293.194464,8512.368333,1072.533697
179.540607,4071.132681,8364.327145,1149.143247
179.540928,4515.256246,8290.306550,536.266849
179.541249,5255.462188,8142.265362,153.219100
179.541571,5403.503377,7846.182985,0.000000
179.541892,5847.626942,7624.121203,0.000000
179.542213,5847.626942,7624.121203,153.219100
179.542534,6143.709319,7328.038826,76.609550
179.542855,6143.709319,7920.203579,0.000000
179.543176,6069.688724,7846.182985,-689.485948
179.543497,5625.565159,7698.141797,-689.485948
179.543819,5181.441594,7994.224174,-1149.143247
179.544140,4589.276840,8068.244768,-1072.533697
179.544461,4145.153275,8364.327145,-995.924147
179.544782,3775.050304,8512.368333,-306.438199
179.545103,3478.967927,8364.327145,0.000000
179.545424,2886.803174,8364.327145,-306.438199
179.545745,3182.885551,8142.265362,-76.609550
179.546067,2812.782580,8290.306550,153.219100
179.546388,3034.844362,7920.203579,306.438199
179.546709,3256.906145,7846.182985,766.095498
179.547030,3701.029710,7772.162391,689.485948
179.547351,4071.132681,7476.080014,689.485948
179.547672,4441.235652,7105.977043,459.657299
179.547993,5329.482782,6809.894666,229.828649
179.548315,6069.688724,6587.832884,153.219100
179.548636,6587.832884,6513.812290,0.000000
179.548957,6809.894666,6735.874072,0.000000
179.549278,7105.977043,6809.894666,-383.047749
179.549599,7105.977043,7402.059420,-1072.533697
179.549920,7550.100608,7402.059420,-689.485948
179.550241,7179.997637,7624.121203,-1302.362347
179.550562,6735.874072,7772.162391,-842.705048
179.550884,6069.688724,8068.244768,-842.705048
179.551205,5551.544565,8290.306550,-995.924147
179.551526,5107.421000,8956.491898,-842.705048
179.551847,4959.379811,8808.450710,-306.438199
179.552168,4367.215058,8956.491898,-229.828649
179.552489,3849.070898,8956.491898,229.828649
179.552810,3923.091493,9178.553681,306.438199
179.553132,3552.988522,8882.471304,383.047749
179.553453,3627.009116,8882.471304,536.266849
179.553774,4145.153275,8956.491898,536.266849
179.554095,4219.173869,8660.409521,459.657299
179.554416,4589.276840,8438.347739,612.876398
179.554737,4737.318029,8216.285956,383.047749
179.555058,5107.421000,7994.224174,229.828649
179.555380,5625.565159,8216.285956,-536.266849
179.555701,5995.668130,7846.182985,-536.266849
179.556022,6439.791695,7550.100608,-612.876398
179.556343,6809.894666,7994.224174,-612.876398
179.556664,6439.791695,8068.244768,-612.876398
179.556985,6587.832884,8216.285956,-689.485948
179.557306,5921.647536,8290.306550,-612.876398
179.557627,5625.565159,8364.327145,-1072.533697
179.557949,5255.462188,8438.347739,-1225.752797
179.558270,4515.256246,8882.471304,-1072.533697
179.558591,3923.091493,8734.430116,-842.705048
179.558912,3404.947333,8512.368333,-536.266849
179.559233,3478.967927,8660.409521,-229.828649
179.559554,2738.761985,9030.512492,-383.047749
179.559875,2590.720797,8956.491898,76.609550
179.560197,2516.700203,9104.533087,153.219100
179.560518,2590.720797,8808.450710,383.047749
179.560839,2960.823768,8364.327145,536.266849
179.561160,3701.029710,8068.244768,689.485948
179.561481,3775.050304,7698.141797,842.705048
179.561802,4367.215058,7476.080014,76.609550
179.562123,4959.379811,7105.977043,76.609550
179.562445,5773.606348,6809.894666,76.609550
179.562766,6809.894666,6365.771101,383.047749
179.563087,7624.121203,6661.853478,536.266849
179.563408,7772.162391,6513.812290,76.609550
179.563729,7994.224174,6439.791695,-689.485948
179.564050,7994.224174,6809.894666,-1072.533697
179.564371,8364.327145,6883.915261,-995.924147
179.564693,7846.182985,7031.956449,-995.924147
179.565014,7105.977043,7328.038826,-1302.362347
179.565335,6809.894666,7698.141797,-1072.533697
179.565656,5995.668130,7994.224174,-536.266849
179.565977,5329.482782,8586.388927,-766.095498
179.566298,4737.318029,8660.409521,-306.438199
179.566619,3775.050304,8882.471304,306.438199
179.566940,3775.050304,8808.450710,383.047749
179.567262,3182.885551,8734.430116,612.876398
179.567583,3182.885551,8882.471304,842.705048
179.567904,3182.885551,8808.450710,612.876398
179.568225,2960.823768,8364.327145,1302.362347
179.568546,2960.823768,8512.368333,1149.143247
179.568867,3627.009116,8660.409521,1149.143247
179.569188,3997.112087,8216.285956,919.314598
179.569510,4663.297435,8142.265362,383.047749
179.569831,4959.379811,8216.285956,383.047749
179.570152,5403.503377,7920.203579,229.828649
179.570473,5477.523971,7772.162391,76.609550
179.570794,5551.544565,7772.162391,0.000000
179.571115,5773.606348,7994.224174,-383.047749
179.571436,5995.668130,8142.265362,-612.876398
179.571758,5921.647536,8068.244768,-536.266849
179.572079,5699.585753,7994.224174,-1072.533697
179.572400,4959.379811,8586.388927,-1532.190996
179.572721,4589.276840,8512.368333,-1225.752797
179.573042,4145.153275,8512.368333,-1225.752797
179.573363,3923.091493,8586.388927,-612.876398
179.573684,3701.029710,8808.450710,-689.485948
179.574006,3330.926739,8882.471304,-536.266849
179.574327,3108.864956,8882.471304,-612.876398
179.574648,2812.782580,8660.409521,0.000000
179.574969,3775.050304,8142.265362,-76.609550
179.575290,4293.194464,8068.244768,0.000000
179.575611,4071.132681,8142.265362,-153.219100
179.575932,4367.215058,8068.244768,0.000000
179.576253,4811.338623,7624.121203,0.000000
179.576575,5773.606348,7550.100608,-153.219100
179.576896,6143.709319,6957.935855,0.000000
179.577217,6587.832884,6587.832884,229.828649
179.577538,6883.915261,7105.977043,-306.438199
179.577859,6957.935855,7179.997637,-536.266849
179.578180,7476.080014,7179.997637,-1149.143247
179.578501,7550.100608,7624.121203,-1302.362347
179.578823,7550.100608,7254.018232,-919.314598
179.579144,7105.977043,7624.121203,-1149.143247
179.579465,6587.832884,7772.162391,-1149.143247
179.579786,6365.771101,8142.265362,-1302.362347
179.580107,5403.503377,8290.306550,-612.876398
179.580428,4959.379811,8734.430116,-612.876398
179.580749,4737.318029,9030.512492,-383.047749
179.581071,4441.235652,9178.553681,-306.438199
179.581392,4293.194464,9326.594869,459.657299
179.581713,3775.050304,8734.430116,306.438199
179.582034,3923.091493,8512.368333,306.438199
179.582355,3923.091493,8586.388927,689.485948
179.582676,3997.112087,8438.347739,766.095498
179.582997,4219.173869,8586.388927,919.314598
179.583318,4367.215058,7624.121203,1072.533697
179.583640,4737.318029,7476.080014,766.095498
179.583961,5255.462188,7550.100608,459.657299
179.584282,5773.606348,7328.038826,229.828649
179.584603,5921.647536,7254.018232,-612.876398
179.584924,6439.791695,7624.121203,-76.609550
179.585245,5995.668130,7624.121203,153.219100
179.585566,6069.688724,7698.141797,0.000000
179.585888,6069.688724,7994.224174,-153.219100
179.586208,5995.668130,7920.203579,-766.095498
179.586529,5255.462188,7920.203579,-995.924147
179.586850,4737.318029,8216.285956,-995.924147
179.587171,4441.235652,8216.285956,-842.705048
179.587492,3997.112087,8142.265362,-689.485948
179.587813,4145.153275,8068.244768,0.000000
179.588134,2812.782580,8290.306550,0.000000
179.588455,2960.823768,8660.409521,-229.828649
179.588776,2442.679609,8660.409521,0.000000
179.589096,2664.741391,8438.347739,306.438199
179.589417,3182.885551,8142.265362,459.657299
179.589738,3552.988522,7846.182985,536.266849
179.590059,3997.112087,7476.080014,459.657299
179.590380,4219.173869,7624.121203,76.609550
179.590701,4737.318029,7105.977043,76.609550
179.591022,5995.668130,6883.915261,0.000000
179.591343,6143.709319,6883.915261,0.000000
179.591664,6735.874072,7031.956449,0.000000
179.591984,7179.997637,7105.977043,-306.438199
179.592305,7031.956449,7402.059420,-383.047749
179.592626,7179.997637,7328.038826,-995.924147
179.592947,7179.997637,7846.182985,-1378.971896
179.593268,6957.935855,7772.162391,-1225.752797
179.593589,6587.832884,7994.224174,-1225.752797
179.593910,5921.647536,8512.368333,-1072.533697
179.594231,5107.421000,8956.491898,-995.924147
179.594552,4885.359217,8808.450710,-689.485948
179.594872,4145.153275,9104.533087,-612.876398
179.595193,3849.070898,9104.533087,0.000000
179.595514,3775.050304,9326.594869,536.266849
179.595835,3404.947333,9178.553681,459.657299
179.596156,3404.947333,9178.553681,459.657299
179.596477,3478.967927,9030.512492,536.266849
179.596798,3552.988522,8808.450710,1072.533697
179.597119,3997.112087,8734.430116,766.095498
179.597440,4515.256246,8512.368333,306.438199
179.597760,4737.318029,7994.224174,612.876398
179.598081,5181.441594,7994.224174,0.000000
179.598402,5699.585753,8068.244768,0.000000
179.598723,6143.709319,7846.182985,-459.657299
179.599044,6513.812290,7698.141797,-229.828649
179.599365,6439.791695,7698.141797,-306.438199
179.599686,6735.874072,7698.141797,-306.438199
179.600007,6735.874072,7846.182985,-612.876398
179.600328,6809.894666,7476.080014,-459.657299
179.600648,5847.626942,7550.100608,-536.266849
179.600969,5773.606348,7994.224174,-1378.971896
179.601290,4885.359217,8068.244768,-1225.752797
179.601611,4589.276840,8586.388927,-1378.971896
179.601932,4145.153275,8438.347739,-383.047749
179.602253,3552.988522,8586.388927,-459.657299
179.602574,3330.926739,8512.368333,-383.047749
179.602895,2960.823768,8734.430116,0.000000
179.603216,2664.741391,8512.368333,153.219100
179.603536,3256.906145,8142.265362,229.828649
179.603857,3256.906145,7772.162391,459.657299
179.604178,3775.050304,7846.182985,689.485948
179.604499,4145.153275,7772.162391,383.047749
179.604820,4589.276840,7179.997637,0.000000
179.605141,5181.441594,7105.977043,306.438199
179.605462,6069.688724,6809.894666,229.828649
179.605783,6587.832884,6513.812290,153.219100
179.606104,6883.915261,6439.791695,0.000000
179.606424,7105.977043,6883.915261,-383.047749
179.606745,7105.977043,7105.977043,-383.047749
179.607066,7624.121203,7254.018232,-1225.752797
179.607387,7179.997637,7476.080014,-766.095498
179.607708,6661.853478,7550.100608,-612.876398
179.608029,6069.688724,7846.182985,-1072.533697
179.608350,5551.544565,8290.306550,-1072.533697
179.608671,5181.441594,8438.347739,-536.266849
179.608992,4589.276840,9178.553681,-536.266849
179.609312,4145.153275,9400.615463,-306.438199
179.609633,3404.947333,9326.594869,76.609550
179.609954,3478.967927,9548.656652,536.266849
179.610275,3034.844362,9400.615463,842.705048
179.610596,3108.864956,8660.409521,1225.752797
179.610917,3034.844362,8956.491898,919.314598
179.611238,3478.967927,8364.327145,612.876398
179.611559,3849.070898,8290.306550,995.924147
179.611880,4441.235652,7920.203579,1072.533697
179.612200,4663.297435,8068.244768,612.876398
179.612521,5255.462188,7624.121203,459.657299
179.612842,5773.606348,7698.141797,0.000000
179.613163,6217.729913,7402.059420,-306.438199
179.613484,6587.832884,7698.141797,-689.485948
179.613805,6365.771101,7920.203579,-766.095498
179.614126,6513.812290,7920.203579,-612.876398
179.614447,6439.791695,7994.224174,-842.705048
179.614768,6217.729913,8068.244768,-995.924147
179.615088,5921.647536,7994.224174,-1455.581446
179.615409,5255.462188,8216.285956,-1149.143247
179.615730,4811.338623,7994.224174,-1302.362347
179.616051,4293.194464,8216.285956,-766.095498
179.616372,3923.091493,8068.244768,-612.876398
179.616693,3108.864956,8290.306550,-536.266849
179.617014,3182.885551,8512.368333,0.000000
179.617335,2442.679609,8882.471304,0.000000
179.617656,2960.823768,8512.368333,0.000000
179.617976,2960.823768,8438.347739,306.438199
179.618297,3404.947333,8512.368333,919.314598
179.618618,3627.009116,8290.306550,229.828649
179.618939,3775.050304,8142.265362,0.000000
179.619260,4589.276840,7402.059420,0.000000
179.619581,5329.482782,7105.977043,-153.219100
179.619902,6365.771101,6735.874072,229.828649
179.620223,6735.874072,7179.997637,306.438199
179.620544,6957.935855,7031.956449,0.000000
179.620864,7179.997637,7179.997637,-306.438199
179.621185,7402.059420,7402.059420,-766.095498
179.621506,7402.059420,7476.080014,-612.876398
179.621827,7105.977043,7476.080014,-1149.143247
179.622148,6809.894666,7698.141797,-1149.143247
179.622469,6217.729913,8068.244768,-766.095498
179.622790,5699.585753,8290.306550,-536.266849
179.623111,5403.503377,8808.450710,-766.095498
179.623432,4441.235652,9326.594869,-689.485948
179.623752,3923.091493,9030.512492,-229.828649
179.624073,3775.050304,9178.553681,0.000000
179.624394,3627.009116,9104.533087,536.266849
179.624715,3849.070898,9252.574275,459.657299
179.625036,3182.885551,9030.512492,612.876398
179.625357,3256.906145,8808.450710,612.876398
179.625678,3701.029710,8438.347739,842.705048
179.625999,3997.112087,8734.430116,1072.533697
179.626320,4293.194464,8438.347739,1455.581446
179.626640,5107.421000,7624.121203,459.657299
179.626961,5255.462188,7994.224174,76.609550
179.627282,5847.626942,7328.038826,306.438199
179.627603,5995.668130,7476.080014,0.000000
179.627924,6143.709319,7698.141797,0.000000
179.628245,6365.771101,8068.244768,-383.047749
179.628566,6439.791695,7772.162391,-306.438199
179.628887,6365.771101,7772.162391,-689.485948
179.629208,6069.688724,7772.162391,-919.314598
179.629528,5477.523971,7624.121203,-1302.362347
179.629849,4737.318029,8068.244768,-1149.143247
179.630170,4515.256246,7846.182985,-995.924147
179.630491,3923.091493,8142.265362,-383.047749
179.630812,3552.988522,8512.368333,0.000000
179.631133,3182.885551,8512.368333,-459.657299
179.631454,2886.803174,8734.430116,-229.828649
179.631775,2516.700203,8364.327145,0.000000
179.632096,2886.803174,8216.285956,153.219100
179.632416,3256.906145,8068.244768,689.485948
179.632737,3330.926739,7920.203579,612.876398
179.633058,3701.029710,7994.224174,383.047749
179.633379,4219.173869,7624.121203,76.609550
179.633700,5033.400406,7105.977043,153.219100
179.634021,5847.626942,6957.935855,229.828649
179.634342,6735.874072,6513.812290,0.000000
179.634663,6809.894666,7031.956449,0.000000
179.634984,7031.956449,7328.038826,-536.266849
179.635304,7254.018232,7105.977043,-689.485948
179.635625,7772.162391,7402.059420,-689.485948
179.635946,7476.080014,7402.059420,-919.314598
179.636267,7179.997637,7772.162391,-1302.362347
179.636588,6365.771101,8142.265362,-1225.752797
179.636909,5847.626942,7994.224174,-1072.533697
179.637230,5255.462188,8586.388927,-919.314598
179.637551,4811.338623,9030.512492,-383.047749
179.637872,4145.153275,9178.553681,-383.047749
179.638192,3775.050304,9474.636058,-306.438199
179.638513,3552.988522,9474.636058,153.219100
179.638834,3775.050304,8956.491898,536.266849
179.639155,3627.009116,9104.533087,153.219100
179.639476,3478.967927,9252.574275,766.095498
179.639797,3404.947333,8438.347739,612.876398
179.640118,3997.112087,8290.306550,766.095498
179.640439,4293.194464,7994.224174,766.095498
179.640760,4737.318029,8068.244768,536.266849
179.641080,5181.441594,8216.285956,229.828649
179.641401,5699.585753,8068.244768,76.609550
179.641722,6439.791695,7328.038826,-459.657299
179.642043,6661.853478,7550.100608,-612.876398
179.642364,7105.977043,7328.038826,-306.438199
179.642685,6957.935855,7698.141797,-459.657299
179.643006,6735.874072,7698.141797,-689.485948
179.643327,6513.812290,7402.059420,-919.314598
179.643648,6143.709319,7698.141797,-1225.752797
179.643968,5403.503377,7772.162391,-1225.752797
179.644289,4737.318029,7994.224174,-1072.533697
179.644610,4441.235652,8142.265362,-612.876398
179.644931,4441.235652,7994.224174,0.000000
179.645252,3552.988522,8290.306550,-383.047749
179.645573,3108.864956,8734.430116,-229.828649
179.645894,2664.741391,8734.430116,76.609550
179.646215,2664.741391,8956.491898,0.000000
179.646536,3108.864956,8290.306550,153.219100
179.646856,3404.947333,8068.244768,229.828649
179.647177,3701.029710,7994.224174,383.047749
179.647498,3997.112087,7624.121203,76.609550
179.647819,4515.256246,7402.059420,153.219100
179.648140,4959.379811,6809.894666,0.000000
179.648461,6069.688724,6809.894666,383.047749
179.648782,6513.812290,7179.997637,76.609550
179.649103,7031.956449,7254.018232,-229.828649
179.649424,7179.997637,7254.018232,-383.047749
179.649744,7550.100608,7105.977043,-766.095498
179.650065,7179.997637,7476.080014,-1225.752797
179.650386,7105.977043,7624.121203,-995.924147
179.650707,6735.874072,7772.162391,-995.924147
179.651028,6143.709319,7846.182985,-919.314598
179.651349,5921.647536,8142.265362,-842.705048
179.651670,5255.462188,8290.306550,-919.314598
179.651991,4663.297435,8882.471304,-306.438199
179.652312,4367.215058,8882.471304,0.000000
179.652632,3849.070898,9030.512492,0.000000
179.652953,3627.009116,9400.615463,383.047749
179.653274,3552.988522,9326.594869,842.705048
179.653595,3478.967927,8882.471304,459.657299
179.653916,3849.070898,8438.347739,689.485948
179.654237,3849.070898,8290.306550,536.266849
179.654558,4441.235652,8290.306550,1149.143247
179.654879,4737.318029,7920.203579,995.924147
179.655200,5033.400406,7698.141797,0.000000
179.655520,5551.544565,8142.265362,383.047749
179.655841,5773.606348,7550.100608,459.657299
179.656162,6291.750507,7624.121203,76.609550
179.656483,6143.709319,7994.224174,-383.047749
179.656804,6217.729913,8142.265362,-229.828649
179.657125,5995.668130,8068.244768,-689.485948
179.657446,6069.688724,7772.162391,-689.485948
179.657767,5847.626942,7846.182985,-919.314598
179.658088,5181.441594,7994.224174,-1149.143247
179.658408,4737.318029,8068.244768,-1225.752797
179.658729,4219.173869,8216.285956,-1225.752797
179.659050,4219.173869,8068.244768,-536.266849
179.659371,3775.050304,8216.285956,-383.047749
179.659692,3552.988522,8216.285956,-383.047749
179.660013,2812.782580,8438.347739,0.000000
179.660334,2960.823768,8290.306550,-229.828649
179.660655,3108.864956,7994.224174,0.000000
179.660976,3849.070898,8068.244768,0.000000
179.661296,4071.132681,8068.244768,306.438199
179.661617,4145.153275,8142.265362,306.438199
179.661938,4663.297435,7698.141797,-229.828649
179.662259,5033.400406,7476.080014,-306.438199
179.662580,5921.647536,7105.977043,0.000000
179.662901,6661.853478,6809.894666,0.000000
179.663222,6883.915261,6883.915261,842.705048
179.663543,6883.915261,7179.997637,-536.266849
179.663864,7105.977043,7105.977043,-1072.533697
179.664184,7254.018232,7328.038826,-1072.533697
179.664505,7105.977043,7550.100608,-766.095498
179.664826,6587.832884,7328.038826,-995.924147
179.665147,6217.729913,7550.100608,-919.314598
179.665468,5625.565159,8068.244768,-766.095498
179.665789,5107.421000,8586.388927,-689.485948
179.666110,4589.276840,9104.533087,-612.876398
179.666431,4663.297435,9030.512492,-536.266849
179.666752,3775.050304,9326.594869,0.000000
179.667072,3701.029710,9326.594869,383.047749
179.667393,3701.029710,9178.553681,689.485948
179.667714,3627.009116,9104.533087,919.314598
179.668035,3478.967927,9104.533087,689.485948
179.668356,4145.153275,8512.368333,612.876398
179.668677,4219.173869,7698.141797,919.314598
179.668998,4663.297435,7624.121203,1072.533697
179.669319,5255.462188,7476.080014,766.095498
179.669640,5255.462188,7846.182985,229.828649
179.669960,6143.709319,7402.059420,153.219100
179.670281,6809.894666,7328.038826,0.000000
179.670602,7179.997637,7254.018232,0.000000
179.670923,6957.935855,7402.059420,0.000000
179.671244,6735.874072,7476.080014,0.000000
179.671565,6439.791695,7624.121203,-689.485948
179.671886,6217.729913,7698.141797,-995.924147
179.672207,5995.668130,7994.224174,-1225.752797
179.672528,5403.503377,8068.244768,-1302.362347
179.672848,4885.359217,8142.265362,-995.924147
179.673169,4367.215058,8216.285956,-536.266849
179.673490,3478.967927,8216.285956,-383.047749
179.673811,2960.823768,8364.327145,0.000000
179.674132,2664.741391,9030.512492,-306.438199
179.674453,2812.782580,8734.430116,0.000000
179.674774,2368.659014,9104.533087,306.438199
179.675095,2590.720797,8808.450710,383.047749
179.675416,3034.844362,7920.203579,842.705048
179.675736,2960.823768,8216.285956,612.876398
179.676057,3404.947333,7920.203579,459.657299
179.676378,4145.153275,7476.080014,76.609550
179.676699,5033.400406,7105.977043,0.000000
179.677020,5921.647536,7105.977043,76.609550
179.677341,6513.812290,6883.915261,0.000000
179.677662,6883.915261,6809.894666,0.000000
179.677983,7402.059420,7105.977043,-1072.533697
179.678304,7254.018232,7254.018232,-1072.533697
179.678624,7328.038826,7254.018232,-1072.533697
179.678945,7772.162391,7254.018232,-1991.848295
179.679266,7031.956449,7846.182985,-1302.362347
179.679587,6513.812290,7772.162391,-1302.362347
179.679908,6069.688724,8290.306550,-1149.143247
179.680229,5403.503377,8364.327145,-919.314598
179.680550,4737.318029,8290.306550,-536.266849
179.680871,4441.235652,8512.368333,-536.266849
179.681192,3849.070898,8808.450710,-383.047749
179.681512,3701.029710,9326.594869,0.000000
179.681833,3849.070898,9474.636058,306.438199
179.682154,3034.844362,9326.594869,689.485948
179.682475,3627.009116,8882.471304,919.314598
179.682796,3552.988522,8438.347739,1149.143247
179.683117,3775.050304,8068.244768,995.924147
179.683438,4219.173869,8290.306550,1455.581446
179.683758,4737.318029,8660.409521,536.266849
179.684079,5625.565159,7920.203579,229.828649
179.684400,5773.606348,7550.100608,-153.219100
179.684721,6143.709319,7846.182985,76.609550
179.685042,6513.812290,7550.100608,0.000000
179.685363,6439.791695,7698.141797,0.000000
179.685683,6661.853478,7550.100608,-536.266849
179.686004,6957.935855,7698.141797,-1072.533697
179.686325,6661.853478,7846.182985,-1302.362347
179.686646,5921.647536,7920.203579,-1302.362347
179.686967,5329.482782,7994.224174,-919.314598
179.687287,5033.400406,8586.388927,-1225.752797
179.687608,4515.256246,8216.285956,-612.876398
179.687929,3997.112087,8290.306550,-689.485948
179.688250,3404.947333,8364.327145,0.000000
179.688571,3256.906145,8882.471304,-306.438199
179.688892,2960.823768,8290.306550,-229.828649
179.689212,2886.803174,8142.265362,0.000000
179.689533,3256.906145,8364.327145,76.609550
179.689854,3552.988522,8586.388927,612.876398
179.690175,3256.906145,8438.347739,306.438199
179.690496,3627.009116,8216.285956,229.828649
179.690817,4811.338623,7698.141797,153.219100
179.691137,5255.462188,7328.038826,0.000000
179.691458,5699.585753,7402.059420,0.000000
179.691779,5921.647536,7624.121203,-306.438199
179.692100,6439.791695,7550.100608,0.000000
179.692421,6735.874072,7402.059420,0.000000
179.692741,7179.997637,7550.100608,-536.266849
179.693062,6661.853478,7402.059420,-383.047749
179.693383,5995.668130,7328.038826,-766.095498
179.693704,5477.523971,7550.100608,-536.266849
179.694025,5847.626942,7994.224174,-536.266849
179.694346,5403.503377,8068.244768,-383.047749
179.694666,4589.276840,8438.347739,-459.657299
179.694987,4219.173869,9178.553681,-153.219100
179.695308,3849.070898,9178.553681,-153.219100
179.695629,3849.070898,8956.491898,0.000000
179.695950,3552.988522,8956.491898,76.609550
179.696271,4071.132681,9030.512492,306.438199
179.696591,3775.050304,9030.512492,306.438199
179.696912,3849.070898,8290.306550,536.266849
179.697233,4737.318029,7846.182985,1225.752797
179.697554,4663.297435,7698.141797,689.485948
179.697875,4811.338623,7402.059420,383.047749
179.698195,5181.441594,7698.141797,76.609550
179.698516,5773.606348,7624.121203,0.000000
179.698837,6291.750507,7328.038826,76.609550
179.699158,6587.832884,7179.997637,0.000000
179.699479,6513.812290,7550.100608,0.000000
179.699800,6143.709319,7920.203579,-383.047749
179.700120,6069.688724,8290.306550,-766.095498
179.700441,6291.750507,8142.265362,-919.314598
179.700762,5995.668130,8216.285956,-1149.143247
179.701083,5181.441594,8216.285956,-995.924147
179.701404,4441.235652,8216.285956,-842.705048
179.701725,3627.009116,8364.327145,-459.657299
179.702045,3552.988522,8660.409521,-766.095498
179.702366,3330.926739,8512.368333,-536.266849
179.702687,2886.803174,8956.491898,0.000000
179.703008,2886.803174,9030.512492,153.219100
179.703329,2738.761985,9104.533087,0.000000
179.703649,2886.803174,8438.347739,612.876398
179.703970,3330.926739,8142.265362,459.657299
179.704291,3627.009116,7994.224174,459.657299
179.704612,3849.070898,7994.224174,0.000000
179.704933,4589.276840,7550.100608,0.000000
179.705254,5033.400406,7254.018232,153.219100
179.705574,6365.771101,6809.894666,383.047749
179.705895,6883.915261,6809.894666,0.000000
179.706216,6883.915261,6735.874072,-306.438199
179.706537,7105.977043,7105.977043,-842.705048
179.706858,7698.141797,6957.935855,-459.657299
179.707179,7846.182985,7402.059420,-995.924147
179.707499,7402.059420,7846.182985,-1302.362347
179.707820,7254.018232,7920.203579,-1302.362347
179.708141,6513.812290,8142.265362,-1149.143247
179.708462,5255.462188,8290.306550,-1072.533697
179.708783,5107.421000,8586.388927,-766.095498
179.709103,4071.132681,8660.409521,-842.705048
179.709424,3775.050304,8734.430116,-306.438199
179.709745,3404.947333,8956.491898,153.219100
179.710066,3182.885551,9326.594869,766.095498
179.710387,3182.885551,9696.697840,766.095498
179.710708,2960.823768,9400.615463,766.095498
179.711028,3182.885551,9030.512492,612.876398
179.711349,3627.009116,8512.368333,919.314598
179.711670,3923.091493,8216.285956,995.924147
179.711991,4071.132681,7846.182985,919.314598
179.712312,4589.276840,8142.265362,459.657299
179.712633,5181.441594,7846.182985,0.000000
179.712953,5699.585753,7920.203579,0.000000
179.713274,6217.729913,7254.018232,0.000000
179.713595,6587.832884,7550.100608,153.219100
179.713916,6661.853478,7476.080014,0.000000
179.714237,6661.853478,7328.038826,-229.828649
179.714557,6587.832884,7624.121203,-612.876398
179.714878,6365.771101,7550.100608,-842.705048
179.715199,5995.668130,7846.182985,-995.924147
179.715520,5403.503377,7920.203579,-1302.362347
179.715841,4737.318029,8142.265362,-1225.752797
179.716162,4811.338623,8364.327145,-689.485948
179.716482,3997.112087,8364.327145,-76.609550
179.716803,3552.988522,7920.203579,153.219100
179.717124,3404.947333,8512.368333,-153.219100
179.717445,2590.720797,8734.430116,-536.266849
179.717766,2886.803174,8438.347739,-383.047749
179.718087,3034.844362,8290.306550,229.828649
179.718407,3701.029710,7920.203579,1378.971896
179.718728,3627.009116,7698.141797,1302.362347
179.719049,4145.153275,7476.080014,689.485948
179.719370,4293.194464,7105.977043,-229.828649
179.719691,5551.544565,6661.853478,0.000000
179.720011,5847.626942,6809.894666,306.438199
179.720332,6809.894666,6957.935855,0.000000
179.720653,6735.874072,7031.956449,0.000000
179.720974,7105.977043,7624.121203,0.000000
179.721295,7179.997637,7772.162391,-689.485948
179.721616,7254.018232,7402.059420,-995.924147
179.721936,6735.874072,7254.018232,-1072.533697
179.722257,6365.771101,7698.141797,-1225.752797
179.722578,5995.668130,7920.203579,-1455.581446
179.722899,5181.441594,8142.265362,-1225.752797
179.723220,4885.359217,9400.615463,-1225.752797
179.723541,4145.153275,9400.615463,-689.485948
179.723861,3627.009116,9326.594869,-459.657299
179.724182,3627.009116,9400.615463,0.000000
179.724503,3627.009116,9252.574275,689.485948
179.724824,3256.906145,9104.533087,1149.143247
179.725145,3478.967927,8586.388927,919.314598
179.725465,3552.988522,8364.327145,842.705048
179.725786,4071.132681,8364.327145,995.924147
179.726107,4367.215058,8216.285956,536.266849
179.726428,5033.400406,8068.244768,766.095498
179.726749,5329.482782,8512.368333,383.047749
179.727070,6143.709319,8068.244768,0.000000
179.727390,6735.874072,7254.018232,229.828649
179.727711,6809.894666,7254.018232,-459.657299
179.728032,6809.894666,7772.162391,-689.485948
179.728353,7031.956449,7772.162391,-612.876398
179.728674,6883.915261,8142.265362,-842.705048
179.728995,6661.853478,7994.224174,-766.095498
179.729315,6143.709319,7772.162391,-842.705048
179.729636,5625.565159,8142.265362,-919.314598
179.729957,4885.359217,7920.203579,-919.314598
179.730278,4367.215058,8142.265362,-536.266849
179.730599,3997.112087,8068.244768,-689.485948
179.730919,3552.988522,8068.244768,-612.876398
179.731240,2960.823768,8882.471304,-306.438199
179.731561,2886.803174,9104.533087,0.000000
179.731882,2442.679609,9030.512492,229.828649
179.732203,3034.844362,8586.388927,229.828649
179.732524,3034.844362,8290.306550,306.438199
179.732844,3775.050304,7994.224174,76.609550
179.733165,4145.153275,7254.018232,459.657299
179.733486,4515.256246,7105.977043,612.876398
179.733807,5329.482782,6883.915261,306.438199
179.734128,6217.729913,6587.832884,153.219100
179.734449,6513.812290,6587.832884,76.609550
179.734769,7031.956449,6735.874072,-383.047749
179.735090,7105.977043,6957.935855,-459.657299
179.735411,7698.141797,7105.977043,-842.705048
179.735732,7328.038826,7179.997637,-995.924147
179.736053,7105.977043,7328.038826,-995.924147
179.736373,6809.894666,7550.100608,-995.924147
179.736694,5921.647536,8290.306550,-766.095498
179.737015,5477.523971,8068.244768,-1225.752797
179.737336,4959.379811,8216.285956,-612.876398
179.737657,4219.173869,8882.471304,-536.266849
179.737978,3775.050304,8956.491898,76.609550
179.738298,3552.988522,9252.574275,383.047749
179.738619,3330.926739,8956.491898,459.657299
179.738940,3182.885551,9326.594869,842.705048
179.739261,3256.906145,9178.553681,919.314598
179.739582,3330.926739,8882.471304,919.314598
179.739903,3923.091493,8808.450710,1072.533697
179.740223,3997.112087,8364.327145,1072.533697
179.740544,4589.276840,8068.244768,689.485948
179.740865,4959.379811,7920.203579,306.438199
179.741186,5699.585753,7846.182985,153.219100
179.741507,6365.771101,7624.121203,-229.828649
179.741827,6587.832884,7476.080014,229.828649
179.742148,6957.935855,7476.080014,229.828649
179.742469,6957.935855,7698.141797,229.828649
179.742790,6883.915261,7698.141797,-689.485948
179.743111,7031.956449,7698.141797,-919.314598
179.743432,6587.832884,7846.182985,-995.924147
179.743752,5921.647536,8142.265362,-1225.752797
179.744073,5403.503377,8142.265362,-1149.143247
179.744394,4737.318029,8586.388927,-689.485948
179.744715,4293.194464,8586.388927,-459.657299
179.745036,3108.864956,8586.388927,-153.219100
179.745357,2960.823768,8512.368333,-536.266849
179.745677,2738.761985,8512.368333,0.000000
179.745998,2812.782580,8660.409521,153.219100
179.746319,2738.761985,8142.265362,0.000000
179.746640,2886.803174,7920.203579,229.828649
179.746961,3256.906145,7994.224174,383.047749
179.747281,3627.009116,8068.244768,383.047749
179.747602,4293.194464,7698.141797,-536.266849
179.747923,4959.379811,7476.080014,0.000000
179.748244,5773.606348,6957.935855,-306.438199
179.748565,6587.832884,6735.874072,-306.438199
179.748886,6661.853478,6883.915261,-766.095498
179.749206,7031.956449,7179.997637,-689.485948
179.749527,7179.997637,7105.977043,-1072.533697
179.749848,7476.080014,7105.977043,-1302.362347
179.750169,7476.080014,7698.141797,-919.314598
179.750490,6883.915261,7624.121203,-1072.533697
179.750811,6365.771101,7920.203579,-1532.190996
179.751131,5699.585753,7920.203579,-1149.143247
179.751452,5255.462188,8216.285956,-919.314598
179.751773,5255.462188,9104.533087,-842.705048
179.752094,4293.194464,8956.491898,-842.705048
179.752415,3997.112087,9252.574275,-306.438199
179.752735,3701.029710,9474.636058,153.219100
179.753056,3478.967927,9178.553681,536.266849
179.753377,3108.864956,9622.677246,766.095498
179.753698,3552.988522,9030.512492,536.266849
179.754019,3701.029710,8734.430116,612.876398
179.754340,3701.029710,8068.244768,995.924147
179.754660,4811.338623,8068.244768,1225.752797
179.754981,4885.359217,8290.306550,919.314598
179.755302,5255.462188,8216.285956,0.000000
179.755623,5847.626942,7846.182985,0.000000
179.755944,6587.832884,7624.121203,0.000000
179.756265,6883.915261,7402.059420,76.609550
179.756585,7031.956449,7328.038826,383.047749
179.756906,7031.956449,7402.059420,76.609550
179.757227,6809.894666,7846.182985,-306.438199
179.757548,6365.771101,7846.182985,-919.314598
179.757869,5847.626942,7772.162391,-1149.143247
179.758189,5403.503377,7846.182985,-995.924147
179.758510,4811.338623,8216.285956,-995.924147
179.758831,4145.153275,8068.244768,-842.705048
179.759152,3552.988522,8364.327145,-383.047749
179.759473,2960.823768,8438.347739,-536.266849
179.759794,2664.741391,8586.388927,-383.047749
179.760114,2368.659014,9030.512492,76.609550
179.760435,2368.659014,8882.471304,153.219100
179.760756,2664.741391,8586.388927,459.657299
179.761077,2738.761985,8290.306550,612.876398
179.761398,3034.844362,8364.327145,306.438199
179.761719,3404.947333,7476.080014,76.609550
179.762039,3775.050304,7254.018232,0.000000
179.762360,4811.338623,7031.956449,153.219100
179.762681,5921.647536,6661.853478,612.876398
179.763002,6661.853478,6513.812290,536.266849
179.763323,7105.977043,6735.874072,0.000000
179.763643,7254.018232,7031.956449,-919.314598
179.763964,7476.080014,7254.018232,-1072.533697
179.764285,7624.121203,7402.059420,-1685.410096
179.764606,7105.977043,7550.100608,-842.705048
179.764927,7105.977043,7772.162391,-1378.971896
179.765248,6439.791695,8068.244768,-1302.362347
179.765568,5921.647536,7994.224174,-1149.143247
179.765889,5329.482782,8734.430116,-919.314598
179.766210,4663.297435,8586.388927,-842.705048
179.766531,4145.153275,8660.409521,-612.876398
179.766852,3775.050304,8882.471304,229.828649
179.767173,3478.967927,8882.471304,612.876398
179.767493,3552.988522,9104.533087,919.314598
179.767814,3256.906145,9400.615463,842.705048
179.768135,3775.050304,9104.533087,919.314598
179.768456,3775.050304,8660.409521,995.924147
179.768777,4071.132681,8364.327145,919.314598
179.769097,4589.276840,8364.327145,919.314598
179.769418,4959.379811,8290.306550,229.828649
179.769739,5551.544565,7994.224174,76.609550
179.770060,6143.709319,7624.121203,0.000000
179.770381,6439.791695,7402.059420,-153.219100
179.770702,6809.894666,7402.059420,0.000000
179.771022,6957.935855,7846.182985,0.000000
179.771343,7031.956449,7550.100608,-536.266849
179.771664,6809.894666,7624.121203,-459.657299
179.771985,6439.791695,7476.080014,-1149.143247
179.772306,6069.688724,7698.141797,-1149.143247
179.772627,5403.503377,7994.224174,-1302.362347
179.772947,4737.318029,8438.347739,-919.314598
179.773268,4441.235652,8808.450710,-459.657299
179.773589,3775.050304,8734.430116,-153.219100
179.773910,3182.885551,8956.491898,-536.266849
179.774231,2516.700203,8512.368333,0.000000
179.774551,2590.720797,8734.430116,-536.266849
179.774872,2368.659014,8438.347739,-153.219100
179.775193,2886.803174,8512.368333,229.828649
179.775514,3108.864956,8512.368333,459.657299
179.775835,2886.803174,8142.265362,842.705048
179.776156,3404.947333,8216.285956,459.657299
179.776476,4145.153275,7698.141797,0.000000
179.776797,5181.441594,7031.956449,-229.828649
179.777118,5403.503377,7254.018232,0.000000
179.777439,6069.688724,6883.915261,383.047749
179.777760,6661.853478,7105.977043,-306.438199
179.778081,6883.915261,7328.038826,-383.047749
179.778401,7105.977043,7476.080014,-459.657299
179.778722,7105.977043,7624.121203,-766.095498
179.779043,7031.956449,7846.182985,-459.657299
179.779364,6513.812290,7550.100608,-689.485948
179.779685,5847.626942,7846.182985,-1072.533697
179.780006,5329.482782,7994.224174,-766.095498
179.780326,4959.379811,8808.450710,-842.705048
179.780647,4367.215058,8734.430116,-536.266849
179.780968,4071.132681,9178.553681,-383.047749
179.781289,3256.906145,9474.636058,229.828649
179.781610,3775.050304,9474.636058,919.314598
179.781929,3552.988522,9252.574275,536.266849
179.782250,3775.050304,9030.512492,0.000000
179.782570,3552.988522,8734.430116,0.000000
179.782891,4071.132681,8216.285956,306.438199
179.783212,4441.235652,7846.182985,995.924147
179.783533,4441.235652,7698.141797,1149.143247
179.783854,5403.503377,7476.080014,919.314598
179.784175,5773.606348,7328.038826,0.000000
179.784496,6069.688724,7179.997637,-536.266849
179.784817,6587.832884,7550.100608,0.000000
179.785137,7105.977043,7772.162391,0.000000
179.785458,7105.977043,7476.080014,-459.657299
179.785779,6735.874072,7550.100608,-306.438199
179.786100,6439.791695,8068.244768,-612.876398
179.786421,6439.791695,8216.285956,-842.705048
179.786742,5403.503377,7994.224174,-1378.971896
179.787063,4959.379811,7920.203579,-919.314598
179.787384,4737.318029,8290.306550,-842.705048
179.787704,4071.132681,8734.430116,-536.266849
179.788025,2886.803174,8660.409521,-383.047749
179.788346,3404.947333,8586.388927,-153.219100
179.788667,2812.782580,8882.471304,0.000000
179.788988,2368.659014,8734.430116,-306.438199
179.789309,2886.803174,8290.306550,0.000000
179.789630,3330.926739,7920.203579,612.876398
179.789951,3552.988522,7698.141797,1072.533697
179.790272,4145.153275,7550.100608,229.828649
179.790592,4589.276840,7328.038826,-383.047749
179.790913,5551.544565,7179.997637,-536.266849
179.791234,6217.729913,7105.977043,-536.266849
179.791555,7031.956449,6957.935855,0.000000
179.791876,7550.100608,7105.977043,0.000000
179.792197,7698.141797,7254.018232,0.000000
179.792518,7994.224174,7179.997637,-919.314598
179.792839,7550.100608,7328.038826,-995.924147
179.793159,7550.100608,7550.100608,-1072.533697
179.793480,6809.894666,7994.224174,-1532.190996
179.793801,6365.771101,8142.265362,-919.314598
179.794122,5477.523971,8512.368333,-1149.143247
179.794443,4737.318029,8586.388927,-689.485948
179.794764,4219.173869,8808.450710,-383.047749
179.795085,3849.070898,8586.388927,0.000000
179.795406,3330.926739,9030.512492,0.000000
179.795727,3034.844362,9252.574275,229.828649
179.796047,2812.782580,9770.718434,766.095498
179.796368,3034.844362,9622.677246,766.095498
179.796689,3552.988522,9326.594869,1378.971896
179.797010,3404.947333,8882.471304,919.314598
179.797331,3627.009116,8142.265362,536.266849
179.797652,3849.070898,8290.306550,459.657299
179.797973,4737.318029,8142.265362,689.485948
179.798294,5403.503377,7846.182985,612.876398
179.798614,6143.709319,7402.059420,0.000000
179.798935,6513.812290,7105.977043,229.828649
179.799256,6735.874072,7254.018232,0.000000
179.799577,6957.935855,7476.080014,0.000000
179.799898,7402.059420,7476.080014,-306.438199
179.800219,7328.038826,7624.121203,-919.314598
179.800540,7031.956449,7550.100608,-842.705048
179.800861,6069.688724,7550.100608,-1302.362347
179.801181,5255.462188,7846.182985,-1149.143247
179.801502,4959.379811,8142.265362,-766.095498
179.801823,4367.215058,8216.285956,-229.828649
179.802144,3997.112087,7994.224174,-306.438199
179.802465,3034.844362,8364.327145,-459.657299
179.802786,3034.844362,8438.347739,-689.485948
179.803107,2664.741391,8660.409521,0.000000
179.803428,2886.803174,7772.162391,536.266849
179.803749,3108.864956,7698.141797,689.485948
179.804069,3034.844362,7994.224174,536.266849
179.804390,3256.906145,8068.244768,612.876398
179.804711,3701.029710,8142.265362,153.219100
179.805032,4441.235652,7698.141797,0.000000
179.805353,5255.462188,7328.038826,-306.438199
179.805674,5921.647536,6883.915261,76.609550
179.805995,6217.729913,6809.894666,-229.828649
179.806316,6217.729913,7328.038826,-229.828649
179.806636,6513.812290,7476.080014,-536.266849
179.806957,7105.977043,7772.162391,-612.876398
179.807278,7105.977043,7402.059420,-766.095498
179.807599,6661.853478,7920.203579,-842.705048
179.807920,6513.812290,8142.265362,-1072.533697
179.808241,5773.606348,8290.306550,-1302.362347
179.808562,5255.462188,8438.347739,-995.924147
179.808883,4737.318029,8660.409521,-919.314598
179.809203,4219.173869,9252.574275,-689.485948
179.809524,4071.132681,9030.512492,459.657299
179.809845,3849.070898,9622.677246,0.000000
179.810166,3627.009116,9178.553681,229.828649
179.810487,3552.988522,8882.471304,153.219100
179.810808,3627.009116,9030.512492,153.219100
179.811129,4071.132681,8808.450710,229.828649
179.811450,4367.215058,8290.306550,536.266849
179.811771,4737.318029,7994.224174,766.095498
179.812091,5255.462188,7772.162391,459.657299
179.812412,5403.503377,7994.224174,229.828649
179.812733,6217.729913,7772.162391,0.000000
179.813054,6439.791695,7550.100608,0.000000
179.813375,6883.915261,7402.059420,-229.828649
179.813696,7105.977043,7624.121203,0.000000
179.814017,6883.915261,7846.182985,0.000000
179.814338,6809.894666,7846.182985,-459.657299
179.814658,6291.750507,7698.141797,-229.828649
179.814979,5847.626942,7772.162391,-842.705048
179.815300,5403.503377,7920.203579,-1149.143247
179.815621,4811.338623,7846.182985,-919.314598
179.815942,4515.256246,8068.244768,-153.219100
179.816263,3775.050304,8216.285956,-229.828649
179.816584,3478.967927,8068.244768,-306.438199
179.816905,3108.864956,8512.368333,-306.438199
179.817225,2664.741391,8734.430116,229.828649
179.817546,2960.823768,8734.430116,229.828649
179.817867,3034.844362,7994.224174,383.047749
179.818188,3478.967927,7846.182985,766.095498
179.818509,3997.112087,7624.121203,689.485948
179.818830,4367.215058,7254.018232,153.219100
179.819151,4367.215058,7328.038826,-153.219100
179.819472,5477.523971,6439.791695,0.000000
179.819793,6513.812290,5995.668130,-306.438199
179.820113,7254.018232,6217.729913,-76.609550
179.820434,7328.038826,6661.853478,76.609550
179.820755,7698.141797,6809.894666,-612.876398
179.821076,7846.182985,6883.915261,-1149.143247
179.821397,7772.162391,7179.997637,-1072.533697
179.821718,7179.997637,7476.080014,-1072.533697
179.822039,7105.977043,7550.100608,-842.705048
179.822360,5921.647536,7846.182985,-995.924147
179.822680,5329.482782,8290.306550,-689.485948
179.823001,4811.338623,8734.430116,-689.485948
179.823322,3775.050304,8808.450710,-612.876398
179.823643,3404.947333,9474.636058,-766.095498
179.823964,2960.823768,9400.615463,229.828649
179.824285,2886.803174,9696.697840,612.876398
179.824606,2812.782580,9770.718434,995.924147
179.824927,2590.720797,9770.718434,1302.362347
179.825248,2590.720797,9696.697840,1378.971896
179.825568,3182.885551,9030.512492,689.485948
179.825889,3478.967927,9104.533087,536.266849
179.826210,3997.112087,8660.409521,689.485948
179.826531,4515.256246,8438.347739,536.266849
179.826852,5403.503377,8290.306550,76.609550
179.827173,5921.647536,7254.018232,0.000000
179.827494,6069.688724,7550.100608,229.828649
179.827815,6587.832884,7550.100608,0.000000
179.828135,6957.935855,7846.182985,-153.219100
179.828456,7031.956449,8142.265362,-536.266849
179.828777,7105.977043,7476.080014,-459.657299
179.829098,7105.977043,7402.059420,-1378.971896
179.829419,6069.688724,7920.203579,-1225.752797
179.829740,5773.606348,7846.182985,-1532.190996
179.830061,5403.503377,8290.306550,-1455.581446
179.830382,4441.235652,8068.244768,-689.485948
179.830702,4145.153275,8364.327145,-383.047749
179.831023,3478.967927,8512.368333,-459.657299
179.831344,3108.864956,8734.430116,-76.609550
179.831665,3182.885551,8512.368333,0.000000
179.831986,2590.720797,8290.306550,0.000000
179.832307,2812.782580,7624.121203,0.000000
179.832628,3404.947333,7698.141797,229.828649
179.832949,3108.864956,7772.162391,459.657299
179.833270,4071.132681,7476.080014,153.219100
179.833590,4589.276840,7476.080014,229.828649
179.833911,5403.503377,6883.915261,0.000000
179.834232,6217.729913,6661.853478,0.000000
179.834553,6735.874072,6957.935855,229.828649
179.834874,6957.935855,7105.977043,-689.485948
179.835195,7328.038826,7402.059420,-1149.143247
179.835516,7550.100608,7179.997637,-1378.971896
179.835837,7698.141797,7254.018232,-919.314598
179.836157,7402.059420,7550.100608,-1149.143247
179.836478,6809.894666,7550.100608,-1072.533697
179.836799,6143.709319,7698.141797,-1072.533697
179.837120,5847.626942,7920.203579,-766.095498
179.837441,5181.441594,8068.244768,-612.876398
179.837762,4811.338623,8734.430116,-459.657299
179.838083,4145.153275,9252.574275,153.219100
179.838404,3997.112087,9252.574275,0.000000
179.838724,3775.050304,9252.574275,383.047749
179.839045,3404.947333,9252.574275,689.485948
179.839366,3404.947333,9252.574275,919.314598
179.839687,3552.988522,8882.471304,76.609550
179.840008,3775.050304,8290.306550,689.485948
179.840329,4071.132681,8290.306550,919.314598
179.840650,4663.297435,8364.327145,612.876398
179.840971,5181.441594,8512.368333,76.609550
179.841292,5181.441594,7994.224174,153.219100
179.841612,5921.647536,7920.203579,229.828649
179.841933,6217.729913,8068.244768,0.000000
179.842254,6069.688724,8216.285956,76.609550
179.842575,6439.791695,8216.285956,0.000000
179.842896,5995.668130,8216.285956,0.000000
179.843217,5847.626942,8290.306550,-383.047749
179.843538,5551.544565,7994.224174,-612.876398
179.843859,4737.318029,8068.244768,-766.095498
179.844179,4515.256246,8290.306550,-1302.362347
179.844500,3849.070898,7994.224174,-76.609550
179.844821,3627.009116,8586.388927,-689.485948
179.845142,3182.885551,8512.368333,-612.876398
179.845463,3034.844362,8586.388927,0.000000
179.845784,2738.761985,9030.512492,-229.828649
179.846105,2812.782580,8882.471304,0.000000
179.846426,2886.803174,8364.327145,153.219100
179.846747,3478.967927,7772.162391,459.657299
179.847067,3701.029710,7624.121203,612.876398
179.847388,3775.050304,7698.141797,0.000000
179.847709,4441.235652,7105.977043,-536.266849
179.848030,5181.441594,6809.894666,-383.047749
179.848351,6217.729913,6365.771101,0.000000
179.848672,6735.874072,6661.853478,0.000000
179.848993,7105.977043,6587.832884,0.000000
179.849314,7476.080014,7031.956449,-383.047749
179.849634,7476.080014,6957.935855,-919.314598
179.849955,7846.182985,7179.997637,-306.438199
179.850276,7772.162391,7624.121203,-1225.752797
179.850597,7105.977043,7698.141797,-1302.362347
179.850918,6143.709319,8142.265362,-1302.362347
179.851239,5551.544565,8068.244768,-1149.143247
179.851560,5329.482782,8512.368333,-306.438199
179.851881,4293.194464,8882.471304,-459.657299
179.852201,3701.029710,9104.533087,-306.438199
179.852522,3256.906145,9326.594869,0.000000
179.852843,3108.864956,9844.739029,153.219100
179.853164,3108.864956,9770.718434,919.314598
179.853485,2960.823768,9474.636058,689.485948
179.853806,2960.823768,9474.636058,459.657299
179.854127,3404.947333,9030.512492,536.266849
179.854448,3775.050304,8882.471304,689.485948
179.854769,4145.153275,8438.347739,536.266849
179.855089,4737.318029,8364.327145,459.657299
179.855410,5255.462188,8068.244768,0.000000
179.855731,6069.688724,7772.162391,0.000000
179.856052,6439.791695,7550.100608,0.000000
179.856373,6735.874072,7698.141797,76.609550
179.856694,6883.915261,7698.141797,76.609550
179.857015,6809.894666,7550.100608,-536.266849
179.857336,7031.956449,7994.224174,-919.314598
179.857656,7105.977043,7550.100608,-919.314598
179.857977,6735.874072,7698.141797,-1149.143247
179.858298,6143.709319,7772.162391,-1225.752797
179.858619,5329.482782,7994.224174,-1149.143247
179.858940,4737.318029,7994.224174,-766.095498
179.859261,4219.173869,8216.285956,-306.438199
179.859582,3404.947333,8290.306550,-689.485948
179.859903,3108.864956,8438.347739,-153.219100
179.860223,2812.782580,8364.327145,0.000000
179.860544,2812.782580,8364.327145,0.000000
179.860865,2812.782580,8216.285956,229.828649
179.861186,2960.823768,8216.285956,383.047749
179.861507,3108.864956,7994.224174,229.828649
179.861828,3627.009116,7846.182985,76.609550
179.862149,4219.173869,7550.100608,0.000000
179.862470,5107.421000,7105.977043,76.609550
179.862791,5699.585753,7031.956449,76.609550
179.863111,5921.647536,7105.977043,0.000000
179.863432,6365.771101,7179.997637,76.609550
179.863753,6661.853478,7328.038826,-306.438199
179.864074,7105.977043,7698.141797,-383.047749
179.864395,6957.935855,7328.038826,-689.485948
179.864716,6661.853478,7772.162391,-689.485948
179.865037,6291.750507,7994.224174,-919.314598
179.865358,5551.544565,7624.121203,-612.876398
179.865678,5625.565159,8142.265362,-995.924147
179.865999,4885.359217,8290.306550,-459.657299
179.866320,4367.215058,9030.512492,-383.047749
179.866641,4071.132681,8956.491898,0.000000
179.866962,3923.091493,9252.574275,306.438199
179.867283,4293.194464,9252.574275,766.095498
179.867604,4071.132681,9030.512492,612.876398
179.867925,3849.070898,9030.512492,536.266849
179.868245,3997.112087,8734.430116,612.876398
179.868566,3775.050304,8142.265362,536.266849
179.868887,4737.318029,7920.203579,842.705048
179.869208,5255.462188,7994.224174,766.095498
179.869529,5107.421000,8290.306550,306.438199
179.869850,5625.565159,7994.224174,0.000000
179.870171,6439.791695,7402.059420,153.219100
179.870492,6587.832884,7476.080014,76.609550
179.870813,6809.894666,8142.265362,76.609550
179.871133,6587.832884,7920.203579,153.219100
179.871454,6513.812290,8142.265362,0.000000
179.871775,6217.729913,7698.141797,-459.657299
179.872096,5773.606348,7772.162391,-536.266849
179.872417,5181.441594,7920.203579,-689.485948
179.872738,4737.318029,8068.244768,-919.314598
179.873059,3997.112087,8068.244768,-919.314598
179.873380,3478.967927,8808.450710,-536.266849
179.873700,3404.947333,8290.306550,-689.485948
179.874021,2738.761985,8956.491898,-459.657299
179.874342,2664.741391,9252.574275,-306.438199
179.874663,2590.720797,8808.450710,0.000000
179.874984,2368.659014,8734.430116,0.000000
179.875305,3182.885551,8364.327145,76.609550
179.875626,3478.967927,7994.224174,229.828649
179.875947,3849.070898,7846.182985,76.609550
179.876268,4293.194464,7105.977043,0.000000
179.876588,4885.359217,7179.997637,-383.047749
179.876909,5847.626942,6809.894666,76.609550
179.877230,6735.874072,6735.874072,76.609550
179.877551,6957.935855,6809.894666,0.000000
179.877872,7328.038826,7105.977043,-612.876398
179.878193,7179.997637,7328.038826,-1072.533697
179.878514,7328.038826,7624.121203,-1072.533697
179.878835,7328.038826,7624.121203,-995.924147
179.879155,6957.935855,7846.182985,-1072.533697
179.879476,6143.709319,7846.182985,-919.314598
179.879797,5847.626942,8364.327145,-1149.143247
179.880118,5033.400406,8734.430116,-995.924147
179.880439,4219.173869,8956.491898,-536.266849
179.880760,3552.988522,9326.594869,-153.219100
179.881081,3552.988522,8882.471304,-153.219100
179.881402,3182.885551,9326.594869,459.657299
179.881722,2960.823768,9326.594869,766.095498
179.882043,3256.906145,9548.656652,919.314598
179.882364,3256.906145,9326.594869,612.876398
179.882685,3701.029710,9030.512492,766.095498
179.883006,3997.112087,8586.388927,1072.533697
179.883327,4811.338623,8142.265362,842.705048
179.883648,5033.400406,8068.244768,612.876398
179.883969,5551.544565,7476.080014,0.000000
179.884290,6217.729913,7698.141797,-383.047749
179.884610,6809.894666,7254.018232,0.000000
179.884931,6661.853478,7328.038826,0.000000
179.885252,6883.915261,7179.997637,0.000000
179.885573,6883.915261,7624.121203,0.000000
179.885894,7105.977043,7772.162391,0.000000
179.886215,6809.894666,7476.080014,-842.705048
179.886536,6291.750507,7550.100608,-1455.581446
179.886857,5551.544565,7920.203579,-1378.971896
179.887178,4737.318029,7920.203579,-689.485948
179.887499,4441.235652,8438.347739,-306.438199
179.887820,3701.029710,8512.368333,-306.438199
179.888141,3034.844362,8364.327145,-383.047749
179.888462,2664.741391,8586.388927,-383.047749
179.888783,2886.803174,8808.450710,-153.219100
179.889104,2516.700203,8364.327145,76.609550
179.889424,2738.761985,7846.182985,612.876398
179.889745,2886.803174,7994.224174,766.095498
179.890066,3404.947333,7698.141797,689.485948
179.890387,4219.173869,7920.203579,459.657299
179.890708,4737.318029,7402.059420,0.000000
179.891029,5773.606348,7105.977043,-383.047749
179.891350,6513.812290,6957.935855,-459.657299
179.891671,6809.894666,6513.812290,-229.828649
179.891992,7328.038826,6883.915261,-229.828649
179.892313,7846.182985,7031.956449,-919.314598
179.892634,7624.121203,7179.997637,-1072.533697
179.892955,7846.182985,7402.059420,-995.924147
179.893276,7402.059420,7550.100608,-919.314598
179.893597,6809.894666,7846.182985,-1072.533697
179.893918,6291.750507,7476.080014,-919.314598
179.894238,5773.606348,7698.141797,-766.095498
179.894559,5107.421000,8142.265362,-995.924147
179.894880,4071.132681,8956.491898,-306.438199
179.895201,3923.091493,9178.553681,0.000000
179.895522,3627.009116,9400.615463,306.438199
179.895843,3330.926739,9770.718434,536.266849
179.896164,2960.823768,9696.697840,766.095498
179.896485,3478.967927,9104.533087,1608.800546
179.896806,3404.947333,9400.615463,536.266849
179.897127,3478.967927,8808.450710,766.095498
179.897448,3997.112087,8216.285956,995.924147
179.897769,4737.318029,8216.285956,842.705048
179.898090,4959.379811,8512.368333,536.266849
179.898411,5625.565159,8586.388927,0.000000
179.898731,5699.585753,7846.182985,-383.047749
179.899052,6291.750507,7624.121203,153.219100
179.899373,6809.894666,7994.224174,76.609550
179.899694,6513.812290,7846.182985,0.000000
179.900015,6513.812290,7624.121203,-153.219100
179.900336,6291.750507,7772.162391,-383.047749
179.900657,5921.647536,7772.162391,-766.095498
179.900978,5551.544565,7846.182985,-995.924147
179.901299,4959.379811,7846.182985,-995.924147
179.901620,4293.194464,8216.285956,-689.485948
179.901941,3849.070898,8216.285956,-766.095498
179.902262,3478.967927,8142.265362,-766.095498
179.902583,3330.926739,8734.430116,-1378.971896
179.902904,2738.761985,8660.409521,-612.876398
179.903225,2664.741391,8734.430116,-229.828649
179.903545,2812.782580,8438.347739,0.000000
179.903866,3034.844362,7846.182985,76.609550
179.904187,3552.988522,7698.141797,383.047749
179.904508,3701.029710,7846.182985,153.219100
179.904829,4515.256246,7254.018232,0.000000
179.905150,5107.421000,7105.977043,-306.438199
179.905471,5921.647536,6587.832884,-306.438199
179.905792,6587.832884,6439.791695,0.000000
179.906113,7105.977043,6365.771101,766.095498
179.906434,7476.080014,6809.894666,0.000000
179.906755,7624.121203,6809.894666,-689.485948
179.907076,8068.244768,6809.894666,-1072.533697
179.907397,7550.100608,7179.997637,-1225.752797
179.907718,7105.977043,7476.080014,-919.314598
179.908039,6439.791695,7994.224174,-919.314598
179.908359,6069.688724,8216.285956,-689.485948
179.908680,5329.482782,8586.388927,-1302.362347
179.909001,4959.379811,8586.388927,-689.485948
179.909322,3923.091493,9178.553681,-536.266849
179.909643,3330.926739,9326.594869,-153.219100
179.909964,3478.967927,9474.636058,383.047749
179.910285,3108.864956,9104.533087,919.314598
179.910606,3182.885551,9400.615463,842.705048
179.910927,3182.885551,9326.594869,689.485948
179.911248,3404.947333,8956.491898,612.876398
179.911569,3627.009116,8734.430116,995.924147
179.911890,4145.153275,8216.285956,459.657299
179.912211,4515.256246,8364.327145,612.876398
179.912532,5255.462188,8142.265362,383.047749
179.912853,5699.585753,7994.224174,0.000000
179.913173,6291.750507,7624.121203,-153.219100
179.913494,6809.894666,7624.121203,-153.219100
179.913815,6661.853478,7846.182985,-306.438199
179.914136,6957.935855,7624.121203,-383.047749
179.914457,6735.874072,7698.141797,-536.266849
179.914778,6587.832884,7476.080014,-766.095498
179.915099,5921.647536,7920.203579,-1072.533697
179.915420,5107.421000,7698.141797,-1149.143247
179.915741,4959.379811,8216.285956,-919.314598
179.916062,4145.153275,8216.285956,-306.438199
179.916383,3627.009116,8216.285956,-306.438199
179.916704,3182.885551,8364.327145,-229.828649
179.917025,2664.741391,8660.409521,-229.828649
179.917346,2590.720797,8660.409521,0.000000
179.917667,2368.659014,8438.347739,0.000000
179.917987,2960.823768,7846.182985,0.000000
179.918308,3552.988522,8216.285956,306.438199
179.918629,3627.009116,7772.162391,383.047749
179.918950,4145.153275,7698.141797,229.828649
179.919271,4663.297435,7550.100608,-306.438199
179.919592,5773.606348,7105.977043,-306.438199
179.919913,6365.771101,6661.853478,-306.438199
179.920234,6809.894666,6513.812290,0.000000
179.920555,7179.997637,6883.915261,-383.047749
179.920876,7328.038826,7402.059420,-919.314598
179.921197,7550.100608,7402.059420,-1072.533697
179.921518,7772.162391,7402.059420,-1072.533697
179.921839,7254.018232,7254.018232,-229.828649
179.922160,6587.832884,7550.100608,-995.924147
179.922481,5847.626942,7476.080014,-1225.752797
179.922801,5033.400406,8142.265362,-536.266849
179.923122,5107.421000,8438.347739,-459.657299
179.923443,4441.235652,8956.491898,-536.266849
179.923764,3923.091493,9178.553681,-306.438199
179.924085,3478.967927,9548.656652,612.876398
179.924406,3478.967927,9770.718434,306.438199
179.924727,3182.885551,9474.636058,306.438199
179.925048,3034.844362,9252.574275,459.657299
179.925369,3627.009116,8956.491898,306.438199
179.925690,3552.988522,8438.347739,612.876398
179.926011,3997.112087,8660.409521,995.924147
179.926332,4663.297435,8512.368333,919.314598
179.926653,4885.359217,8290.306550,536.266849
179.926974,5625.565159,7920.203579,0.000000
179.927295,6069.688724,7624.121203,383.047749
179.927615,6365.771101,7698.141797,229.828649
179.927936,6735.874072,7772.162391,229.828649
179.928257,6513.812290,7772.162391,229.828649
179.928578,6735.874072,7624.121203,-306.438199
179.928899,6439.791695,7994.224174,-766.095498
179.929220,5921.647536,7846.182985,-842.705048
179.929541,5477.523971,7698.141797,-842.705048
179.929862,5181.441594,7994.224174,-995.924147
179.930183,4663.297435,7994.224174,-995.924147
179.930504,3701.029710,8438.347739,-689.485948
179.930825,3478.967927,8512.368333,-689.485948
179.931146,2960.823768,8660.409521,-612.876398
179.931467,2812.782580,9104.533087,0.000000
179.931788,2516.700203,8660.409521,0.000000
179.932109,2738.761985,8364.327145,153.219100
179.932429,3108.864956,7920.203579,229.828649
179.932750,3627.009116,7920.203579,229.828649
179.933071,3627.009116,7772.162391,76.609550
179.933392,4145.153275,7476.080014,536.266849
179.933713,4737.318029,7402.059420,-153.219100
179.934034,5625.565159,6735.874072,76.609550
179.934355,6587.832884,6587.832884,76.609550
179.934676,7105.977043,6809.894666,0.000000
179.934997,7031.956449,7105.977043,-995.924147
179.935318,7550.100608,7179.997637,-1072.533697
179.935639,7624.121203,7328.038826,-1225.752797
179.935960,7254.018232,7550.100608,-842.705048
179.936281,7031.956449,7698.141797,-995.924147
179.936602,6439.791695,8290.306550,-1225.752797
179.936923,5551.544565,8216.285956,-1225.752797
179.937243,5477.523971,8290.306550,-919.314598
179.937564,4515.256246,8734.430116,-612.876398
179.937885,3775.050304,8660.409521,-536.266849
179.938206,3627.009116,8808.450710,383.047749
179.938527,3404.947333,9326.594869,459.657299
179.938848,3478.967927,9326.594869,612.876398
179.939169,3330.926739,9326.594869,306.438199
179.939490,3478.967927,9104.533087,153.219100
179.939811,3478.967927,8808.450710,459.657299
179.940132,4145.153275,8142.265362,1149.143247
179.940453,4589.276840,8142.265362,919.314598
179.940774,4885.359217,8216.285956,383.047749
179.941095,5551.544565,7994.224174,0.000000
179.941416,6217.729913,7254.018232,0.000000
179.941737,6661.853478,7328.038826,0.000000
179.942057,6587.832884,7624.121203,0.000000
179.942378,6957.935855,7994.224174,-76.609550
179.942699,7254.018232,7624.121203,-229.828649
179.943020,6587.832884,7994.224174,-536.266849
179.943341,6365.771101,7550.100608,-766.095498
179.943662,6069.688724,7772.162391,-1378.971896
179.943983,5403.503377,7920.203579,-1072.533697
179.944304,5107.421000,8364.327145,-919.314598
179.944625,4145.153275,8290.306550,-76.609550
179.944946,3849.070898,8438.347739,-306.438199
179.945267,3034.844362,8586.388927,-383.047749
179.945588,3034.844362,8956.491898,229.828649
179.945909,3034.844362,8660.409521,0.000000
179.946230,2812.782580,8512.368333,0.000000
179.946550,2960.823768,8142.265362,229.828649
179.946871,3256.906145,7920.203579,229.828649
179.947192,3701.029710,8068.244768,612.876398
179.947513,3701.029710,7920.203579,459.657299
179.947834,4589.276840,7476.080014,0.000000
179.948155,5329.482782,7105.977043,-306.438199
179.948476,5995.668130,6957.935855,0.000000
179.948797,6809.894666,7254.018232,306.438199
179.949118,6883.915261,7031.956449,0.000000
179.949439,7105.977043,7105.977043,-536.266849
179.949760,7254.018232,7105.977043,-689.485948
179.950081,7254.018232,7328.038826,-689.485948
179.950402,6883.915261,7772.162391,-612.876398
179.950723,5995.668130,7476.080014,-536.266849
179.951044,5847.626942,8068.244768,-995.924147
179.951364,5403.503377,8068.244768,-1149.143247
179.951685,4737.318029,8660.409521,-612.876398
179.952006,4145.153275,8734.430116,-689.485948
179.952327,3478.967927,9104.533087,-383.047749
179.952648,3256.906145,9178.553681,153.219100
179.952969,3034.844362,9400.615463,306.438199
179.953290,3182.885551,9770.718434,0.000000
179.953611,3256.906145,9474.636058,153.219100
179.953932,3404.947333,8586.388927,536.266849
179.954253,4071.132681,8142.265362,383.047749
179.954574,3997.112087,7846.182985,1149.143247
179.954895,4663.297435,7772.162391,919.314598
179.955216,5477.523971,7846.182985,459.657299
179.955537,5921.647536,7772.162391,229.828649
179.955858,6513.812290,7476.080014,0.000000
179.956178,7105.977043,7328.038826,229.828649
179.956499,7476.080014,7698.141797,-306.438199
179.956820,7105.977043,7402.059420,76.609550
179.957141,7476.080014,7624.121203,-689.485948
179.957462,7179.997637,7846.182985,-842.705048
179.957783,6587.832884,7476.080014,-919.314598
179.958104,6069.688724,7772.162391,-1302.362347
179.958425,5551.544565,8142.265362,-1149.143247
179.958746,4589.276840,8438.347739,-766.095498
179.959067,4293.194464,8216.285956,-383.047749
179.959388,3775.050304,8364.327145,-459.657299
179.959709,3182.885551,8808.450710,-306.438199
179.960030,2664.741391,9178.553681,76.609550
179.960351,2368.659014,9104.533087,76.609550
179.960672,2368.659014,8438.347739,229.828649
179.960992,3108.864956,8438.347739,306.438199
179.961313,3404.947333,8216.285956,995.924147
179.961634,3552.988522,7920.203579,459.657299
179.961955,4145.153275,7476.080014,612.876398
179.962276,4959.379811,7031.956449,153.219100
179.962597,5625.565159,6883.915261,153.219100
179.962918,6661.853478,6957.935855,0.000000
179.963239,7105.977043,7031.956449,0.000000
179.963560,6809.894666,7624.121203,-612.876398
179.963881,7254.018232,7254.018232,-842.705048
179.964202,7624.121203,7476.080014,-995.924147
179.964523,7328.038826,7402.059420,-306.438199
179.964844,7105.977043,7550.100608,-1149.143247
179.965165,6217.729913,7772.162391,-1302.362347
179.965486,5699.585753,8142.265362,-1225.752797
179.965806,5033.400406,8586.388927,-383.047749
179.966127,4811.338623,8734.430116,-689.485948
179.966448,3849.070898,8882.471304,-76.609550
179.966769,3478.967927,8660.409521,383.047749
179.967090,3256.906145,8882.471304,153.219100
179.967411,3404.947333,9474.636058,383.047749
179.967732,3404.947333,9548.656652,383.047749
179.968053,3478.967927,9178.553681,536.266849
179.968374,3552.988522,9104.533087,536.266849
179.968695,3997.112087,8512.368333,689.485948
179.969016,4293.194464,8142.265362,459.657299
179.969337,4589.276840,8586.388927,76.609550
179.969658,5551.544565,7698.141797,229.828649
179.969979,5773.606348,7402.059420,383.047749
179.970300,6513.812290,7254.018232,76.609550
179.970620,7105.977043,7476.080014,76.609550
179.970941,7031.956449,7476.080014,153.219100
179.971262,6957.935855,7476.080014,0.000000
179.971583,7105.977043,7402.059420,-536.266849
179.971904,6809.894666,7402.059420,-766.095498
179.972225,6365.771101,7476.080014,-1072.533697
179.972546,5921.647536,7624.121203,-1225.752797
179.972867,4959.379811,8068.244768,-766.095498
179.973188,4663.297435,8216.285956,-919.314598
179.973509,4145.153275,8364.327145,-612.876398
179.973830,3701.029710,8956.491898,-459.657299
179.974151,3108.864956,8808.450710,-689.485948
179.974472,2738.761985,8660.409521,0.000000
179.974793,2516.700203,8438.347739,229.828649
179.975114,2960.823768,8142.265362,76.609550
179.975434,2960.823768,7994.224174,536.266849
179.975755,3478.967927,8216.285956,306.438199
179.976076,3627.009116,7772.162391,459.657299
179.976397,4441.235652,7772.162391,0.000000
179.976718,5181.441594,7105.977043,0.000000
179.977039,5847.626942,6809.894666,229.828649
179.977360,6069.688724,6957.935855,76.609550
179.977681,6439.791695,7105.977043,0.000000
179.978002,6809.894666,7105.977043,-383.047749
179.978323,7179.997637,7328.038826,-919.314598
179.978644,7179.997637,7624.121203,-689.485948
179.978965,7105.977043,7402.059420,-689.485948
179.979286,6365.771101,8216.285956,-766.095498
179.979607,5847.626942,7994.224174,-1072.533697
179.979928,5329.482782,8216.285956,-1149.143247
179.980248,4959.379811,8512.368333,-1302.362347
179.980569,4367.215058,8956.491898,-995.924147
179.980890,3775.050304,9326.594869,-383.047749
179.981211,3627.009116,9474.636058,153.219100
179.981532,3256.906145,9548.656652,306.438199
179.981853,3108.864956,9474.636058,536.266849
179.982174,3330.926739,9400.615463,383.047749
179.982495,3552.988522,8956.491898,612.876398
179.982816,3701.029710,8586.388927,689.485948
179.983137,4145.153275,7994.224174,842.705048
179.983458,4589.276840,8216.285956,1072.533697
179.983779,4959.379811,8364.327145,536.266849
179.984100,5551.544565,8290.306550,229.828649
179.984421,6365.771101,7994.224174,-306.438199
179.984741,6957.935855,7254.018232,76.609550
179.985062,6735.874072,7550.100608,0.000000
179.985383,6587.832884,7550.100608,0.000000
179.985704,6809.894666,7698.141797,-306.438199
179.986025,6439.791695,8068.244768,-306.438199
179.986346,6217.729913,7328.038826,-306.438199
179.986667,5625.565159,7698.141797,-1072.533697
179.986988,5255.462188,7994.224174,-689.485948
179.987309,4663.297435,8216.285956,-689.485948
179.987630,4071.132681,8586.388927,-919.314598
179.987951,3775.050304,8216.285956,-459.657299
179.988272,3330.926739,8364.327145,-459.657299
179.988592,2812.782580,8734.430116,0.000000
179.988913,2516.700203,8734.430116,76.609550
179.989234,2738.761985,8808.450710,689.485948
179.989555,3256.906145,8216.285956,229.828649
179.989876,3701.029710,7920.203579,612.876398
179.990197,3923.091493,7698.141797,229.828649
179.990518,4589.276840,7179.997637,0.000000
179.990839,4737.318029,6957.935855,0.000000
179.991160,5699.585753,6809.894666,0.000000
179.991481,6587.832884,6661.853478,153.219100
179.991802,6883.915261,6809.894666,-229.828649
179.992123,7328.038826,7105.977043,-459.657299
179.992443,7476.080014,7105.977043,-689.485948
179.992764,7402.059420,7105.977043,-766.095498
179.993085,7179.997637,7328.038826,-995.924147
179.993406,7031.956449,7254.018232,-919.314598
179.993727,6069.688724,8068.244768,-919.314598
179.994048,5551.544565,8512.368333,-1149.143247
179.994369,5329.482782,8290.306550,-842.705048
179.994690,4663.297435,8808.450710,-459.657299
179.995011,3849.070898,8808.450710,-383.047749
179.995332,3478.967927,8956.491898,0.000000
179.995653,3182.885551,9252.574275,76.609550
179.995974,2960.823768,9770.718434,536.266849
179.996295,3034.844362,9622.677246,306.438199
179.996615,3108.864956,9622.677246,306.438199
179.996936,3330.926739,9400.615463,459.657299
179.997257,3701.029710,8956.491898,612.876398
179.997578,4071.132681,8364.327145,995.924147
179.997899,4441.235652,8512.368333,612.876398
179.998220,4959.379811,8290.306550,153.219100
179.998541,5699.585753,7920.203579,76.609550
179.998862,6439.791695,7846.182985,153.219100
179.999183,6957.935855,7328.038826,0.000000
179.999504,6735.874072,7550.100608,0.000000
179.999825,6883.915261,7476.080014,0.000000
180.000146,7031.956449,7550.100608,-612.876398
180.000466,6957.935855,7846.182985,-842.705048
180.000787,6143.709319,7550.100608,-1378.971896
180.001108,5995.668130,7698.141797,-1378.971896
180.001429,4959.379811,7994.224174,-689.485948
180.001750,4737.318029,8364.327145,-842.705048
180.002071,4145.153275,8882.471304,-766.095498
180.002392,3182.885551,8438.347739,-612.876398
180.002713,2812.782580,8808.450710,-383.047749
180.003034,2812.782580,8586.388927,0.000000
180.003355,2886.803174,8216.285956,76.609550
180.003676,3034.844362,8216.285956,229.828649
180.003997,3034.844362,7920.203579,306.438199
180.004317,3478.967927,7698.141797,536.266849
180.004638,3849.070898,7772.162391,306.438199
180.004959,4515.256246,7402.059420,76.609550
180.005280,5255.462188,7105.977043,-612.876398
180.005601,6217.729913,6587.832884,0.000000
180.005922,6587.832884,6735.874072,76.609550
180.006243,7031.956449,6809.894666,0.000000
180.006564,7105.977043,7031.956449,-689.485948
180.006885,7476.080014,7254.018232,-1149.143247
180.007206,7476.080014,7550.100608,-1149.143247
180.007527,7476.080014,7476.080014,-766.095498
180.007848,6883.915261,7550.100608,-995.924147
180.008168,6439.791695,7476.080014,-919.314598
180.008489,5847.626942,8068.244768,-1149.143247
180.008810,5255.462188,8586.388927,-1225.752797
180.009131,4441.235652,8808.450710,-995.924147
180.009452,4145.153275,8882.471304,0.000000
180.009773,3478.967927,9622.677246,229.828649
180.010094,3330.926739,9474.636058,383.047749
180.010415,3256.906145,9548.656652,536.266849
180.010736,3034.844362,9474.636058,229.828649
180.011057,3478.967927,9178.553681,306.438199
180.011378,3627.009116,8660.409521,383.047749
180.011699,3775.050304,8734.430116,383.047749
180.012019,3997.112087,8364.327145,995.924147
180.012340,4737.318029,8438.347739,306.438199
180.012661,5107.421000,8364.327145,76.609550
180.012982,6069.688724,7994.224174,153.219100
180.013303,6365.771101,7920.203579,0.000000
180.013624,6365.771101,7920.203579,76.609550
180.013945,6513.812290,7772.162391,0.000000
180.014266,6513.812290,7920.203579,-306.438199
180.014587,6587.832884,7846.182985,-1072.533697
180.014908,6291.750507,8216.285956,-1149.143247
180.015229,5699.585753,7920.203579,-1225.752797
180.015550,5329.482782,8290.306550,-1072.533697
180.015871,4811.338623,8216.285956,-995.924147
180.016191,3923.091493,8364.327145,-1225.752797
180.016512,3775.050304,8142.265362,-612.876398
180.016833,3404.947333,8512.368333,-459.657299
180.017154,3330.926739,8512.368333,0.000000
180.017475,2886.803174,8808.450710,0.000000
180.017796,2886.803174,8808.450710,0.000000
180.018117,2960.823768,8364.327145,0.000000
180.018438,3404.947333,7772.162391,76.609550
180.018759,3923.091493,7624.121203,0.000000
180.019080,3701.029710,7624.121203,0.000000
180.019401,4959.379811,7254.018232,0.000000
180.019722,5477.523971,6809.894666,0.000000
180.020042,6217.729913,6587.832884,229.828649
180.020363,6735.874072,6735.874072,76.609550
180.020684,7105.977043,7402.059420,-612.876398
180.021005,7254.018232,7179.997637,-612.876398
180.021326,7402.059420,7179.997637,-1149.143247
180.021647,7328.038826,7328.038826,-1072.533697
180.021968,6957.935855,7328.038826,-842.705048
180.022289,6217.729913,7624.121203,-995.924147
180.022610,5773.606348,7994.224174,-919.314598
180.022931,5181.441594,8290.306550,-689.485948
180.023252,4885.359217,8512.368333,-612.876398
180.023573,4367.215058,8956.491898,0.000000
180.023893,4145.153275,9104.533087,0.000000
180.024214,3478.967927,9178.553681,459.657299
180.024535,3256.906145,9548.656652,229.828649
180.024856,3552.988522,9104.533087,536.266849
180.025177,3701.029710,9104.533087,306.438199
180.025498,3478.967927,8956.491898,536.266849
180.025819,3997.112087,8290.306550,689.485948
180.026140,4589.276840,8216.285956,689.485948
180.026461,4959.379811,8068.244768,459.657299
180.026782,5551.544565,7846.182985,0.000000
180.027103,5773.606348,7254.018232,0.000000
180.027424,6365.771101,7402.059420,-153.219100
180.027744,6883.915261,7846.182985,0.000000
180.028065,6883.915261,7698.141797,229.828649
180.028386,7105.977043,7920.203579,0.000000
180.028707,6957.935855,8216.285956,-459.657299
180.029028,6587.832884,8068.244768,-1072.533697
180.029349,5773.606348,7994.224174,-1302.362347
180.029670,5477.523971,8216.285956,-1225.752797
180.029991,4737.318029,8586.388927,-919.314598
180.030312,4071.132681,8808.450710,-689.485948
180.030633,3404.947333,8882.471304,0.000000
180.030954,2812.782580,8956.491898,-229.828649
180.031275,2516.700203,9030.512492,-229.828649
180.031595,2294.638420,8956.491898,0.000000
180.031916,2220.617826,8956.491898,0.000000
180.032237,2442.679609,8438.347739,306.438199
180.032558,2738.761985,8142.265362,612.876398
180.032879,2812.782580,7994.224174,536.266849
180.033200,3404.947333,7772.162391,383.047749
180.033521,4293.194464,7328.038826,0.000000
180.033842,5403.503377,7105.977043,0.000000
180.034163,6439.791695,6809.894666,-383.047749
180.034484,6809.894666,6661.853478,-229.828649
180.034805,7254.018232,6809.894666,-76.609550
180.035126,7624.121203,6883.915261,-919.314598
180.035446,7624.121203,7254.018232,-1302.362347
180.035767,7920.203579,7179.997637,-1302.362347
180.036088,7550.100608,7179.997637,-1072.533697
180.036409,7031.956449,7476.080014,-766.095498
180.036730,6365.771101,7846.182985,-919.314598
180.037051,5921.647536,7698.141797,-842.705048
180.037372,5477.523971,8068.244768,-1072.533697
180.037693,4589.276840,8512.368333,-536.266849
180.038014,4071.132681,9178.553681,-383.047749
180.038335,3923.091493,8734.430116,76.609550
180.038656,3701.029710,9030.512492,459.657299
180.038977,3330.926739,9104.533087,689.485948
180.039298,3182.885551,9178.553681,919.314598
180.039618,3404.947333,8882.471304,153.219100
180.039939,3552.988522,8512.368333,689.485948
180.040260,3701.029710,8068.244768,1302.362347
180.040581,4441.235652,8068.244768,995.924147
180.040902,5181.441594,8364.327145,919.314598
180.041223,5033.400406,8290.306550,0.000000
180.041544,5995.668130,7846.182985,0.000000
180.041865,6513.812290,7624.121203,0.000000
180.042186,6513.812290,7550.100608,153.219100
180.042507,6957.935855,7846.182985,0.000000
180.042828,6587.832884,7846.182985,76.609550
180.043149,6735.874072,7920.203579,-383.047749
180.043469,6069.688724,8216.285956,-1072.533697
180.043790,5921.647536,7846.182985,-1378.971896
180.044111,5329.482782,8142.265362,-842.705048
180.044432,4515.256246,8364.327145,-842.705048
180.044753,3849.070898,8512.368333,-689.485948
180.045074,3701.029710,8290.306550,-153.219100
180.045395,3034.844362,8364.327145,-153.219100
180.045716,2886.803174,9030.512492,0.000000
180.046037,2516.700203,9326.594869,0.000000
180.046358,2368.659014,8882.471304,0.000000
180.046679,2368.659014,8586.388927,76.609550
180.047000,3108.864956,8512.368333,689.485948
180.047320,3478.967927,7920.203579,612.876398
180.047641,3775.050304,7846.182985,383.047749
180.047962,4515.256246,7402.059420,-229.828649
180.048283,5107.421000,7254.018232,0.000000
180.048604,6217.729913,6809.894666,153.219100
180.048925,6439.791695,6957.935855,153.219100
180.049246,6809.894666,7105.977043,76.609550
180.049567,7031.956449,7105.977043,-995.924147
180.049888,7402.059420,7105.977043,-689.485948
180.050209,7624.121203,7550.100608,-1685.410096
180.050530,6809.894666,7624.121203,-919.314598
180.050851,6291.750507,7550.100608,-459.657299
180.051171,5995.668130,7772.162391,-842.705048
180.051492,5329.482782,8586.388927,-1149.143247
180.051813,4885.359217,8586.388927,-612.876398
180.052134,4441.235652,8882.471304,-842.705048
180.052455,3849.070898,8956.491898,-153.219100
180.052776,3627.009116,9030.512492,306.438199
180.053097,3701.029710,9252.574275,842.705048
180.053418,3701.029710,9326.594869,1225.752797
180.053739,3256.906145,8734.430116,383.047749
180.054060,3552.988522,8660.409521,689.485948
180.054381,4071.132681,8216.285956,842.705048
180.054702,4515.256246,7846.182985,919.314598
180.055022,5181.441594,7994.224174,612.876398
180.055343,5255.462188,7920.203579,76.609550
180.055664,5773.606348,7698.141797,-383.047749
180.055985,6513.812290,7402.059420,0.000000
180.056306,7179.997637,7698.141797,-153.219100
180.056627,7105.977043,7476.080014,76.609550
180.056948,7031.956449,7624.121203,-383.047749
180.057269,6661.853478,7624.121203,-842.705048
180.057590,6587.832884,7772.162391,-766.095498
180.057911,6291.750507,7772.162391,-919.314598
180.058232,5921.647536,8068.244768,-995.924147
180.058553,5181.441594,8290.306550,-842.705048
180.058874,4367.215058,8438.347739,-612.876398
180.059194,3923.091493,8364.327145,0.000000
180.059515,3330.926739,8882.471304,-229.828649
180.059836,2886.803174,9104.533087,0.000000
180.060157,2368.659014,8808.450710,0.000000
180.060478,2516.700203,8586.388927,0.000000
180.060799,2516.700203,8512.368333,306.438199
180.061120,2960.823768,8290.306550,766.095498
180.061441,3108.864956,7772.162391,995.924147
180.061762,3627.009116,7846.182985,536.266849
180.062083,4219.173869,7772.162391,0.000000
180.062404,4959.379811,7550.100608,-383.047749
180.062725,6217.729913,7031.956449,0.000000
180.063045,6439.791695,7105.977043,536.266849
180.063366,6661.853478,6957.935855,0.000000
180.063687,7105.977043,7105.977043,-842.705048
180.064008,7402.059420,7179.997637,-842.705048
180.064329,7179.997637,7550.100608,-995.924147
180.064650,6957.935855,7624.121203,-1072.533697
180.064971,6587.832884,7846.182985,-995.924147
180.065292,5847.626942,7772.162391,-1072.533697
180.065613,5403.503377,7698.141797,-1149.143247
180.065934,5329.482782,7920.203579,-919.314598
180.066255,4441.235652,8586.388927,0.000000
180.066576,3775.050304,9252.574275,-459.657299
180.066896,2960.823768,9474.636058,0.000000
180.067217,3034.844362,9474.636058,536.266849
180.067538,3330.926739,9400.615463,536.266849
180.067859,3404.947333,9548.656652,153.219100
180.068180,3256.906145,9104.533087,306.438199
180.068501,3478.967927,8734.430116,306.438199
180.068822,3849.070898,8068.244768,612.876398
180.069143,4589.276840,7994.224174,842.705048
180.069464,5181.441594,8290.306550,306.438199
180.069785,5625.565159,8216.285956,229.828649
180.070106,6291.750507,7624.121203,229.828649
180.070427,6587.832884,7550.100608,-229.828649
180.070747,7105.977043,7476.080014,153.219100
180.071068,7179.997637,7254.018232,0.000000
180.071389,7105.977043,7624.121203,-306.438199
180.071710,7179.997637,7550.100608,-766.095498
180.072031,6809.894666,7476.080014,-919.314598
180.072352,6735.874072,7328.038826,-842.705048
180.072673,6217.729913,7920.203579,-919.314598
180.072994,5255.462188,7772.162391,-919.314598
180.073315,4885.359217,7994.224174,-919.314598
180.073636,4145.153275,8216.285956,-459.657299
180.073957,3627.009116,8290.306550,-459.657299
180.074278,3182.885551,8808.450710,-229.828649
180.074598,2960.823768,8808.450710,0.000000
180.074919,3034.844362,8216.285956,-306.438199
180.075240,3182.885551,8142.265362,306.438199
180.075561,3552.988522,7772.162391,536.266849
180.075882,3701.029710,7994.224174,766.095498
180.076203,4071.132681,7698.141797,0.000000
180.076524,4589.276840,7179.997637,0.000000
180.076845,5033.400406,7179.997637,-306.438199
180.077166,5921.647536,6587.832884,229.828649
180.077487,6439.791695,7031.956449,229.828649
180.077808,6735.874072,7328.038826,-306.438199
180.078129,7031.956449,7624.121203,-689.485948
180.078449,7179.997637,7328.038826,-842.705048
180.078770,6957.935855,7550.100608,-919.314598
180.079091,6957.935855,8068.244768,-536.266849
180.079412,6069.688724,8142.265362,-919.314598
180.079733,5329.482782,8290.306550,-1225.752797
180.080054,5033.400406,8512.368333,-919.314598
180.080375,4663.297435,9104.533087,-383.047749
180.080696,4071.132681,9030.512492,-536.266849
180.081017,3478.967927,9030.512492,-306.438199
180.081338,3108.864956,9400.615463,229.828649
180.081659,3034.844362,9474.636058,459.657299
180.081980,2886.803174,9770.718434,842.705048
180.082301,3182.885551,9474.636058,0.000000
180.082621,3256.906145,8882.471304,766.095498
180.082942,3701.029710,8660.409521,842.705048
180.083263,4367.215058,8290.306550,689.485948
180.083584,4959.379811,8216.285956,536.266849
180.083905,5181.441594,7994.224174,0.000000
180.084226,5921.647536,7550.100608,-229.828649
180.084547,6735.874072,7179.997637,76.609550
180.084868,6883.915261,7328.038826,536.266849
180.085189,7105.977043,7550.100608,383.047749
180.085510,7031.956449,7624.121203,-383.047749
180.085830,7254.018232,7402.059420,-766.095498
180.086151,6587.832884,7624.121203,-842.705048
180.086472,6365.771101,7772.162391,-1225.752797
180.086793,5773.606348,7920.203579,-1149.143247
180.087114,5033.400406,8216.285956,-995.924147
180.087435,4441.235652,8216.285956,-536.266849
180.087756,3627.009116,8290.306550,0.000000
180.088077,3330.926739,8438.347739,0.000000
180.088398,3034.844362,8586.388927,229.828649
180.088718,2442.679609,8734.430116,0.000000
180.089039,2072.576638,8512.368333,306.438199
180.089360,2442.679609,8364.327145,459.657299
180.089681,2960.823768,7920.203579,383.047749
180.090002,3034.844362,7920.203579,919.314598
180.090323,3552.988522,7698.141797,306.438199
180.090644,4219.173869,7550.100608,0.000000
180.090965,4885.359217,7402.059420,0.000000
180.091286,6143.709319,6883.915261,383.047749
180.091606,6883.915261,6735.874072,76.609550
180.091927,7105.977043,7031.956449,-229.828649
180.092248,7402.059420,6957.935855,-306.438199
180.092569,7920.203579,7105.977043,-995.924147
180.092890,8142.265362,7179.997637,-995.924147
180.093211,7550.100608,7624.121203,-842.705048
180.093532,7328.038826,7402.059420,-1225.752797
180.093853,6809.894666,7402.059420,-1072.533697
180.094174,6143.709319,7624.121203,-766.095498
180.094495,5921.647536,8142.265362,-842.705048
180.094815,4663.297435,8734.430116,-995.924147
180.095136,4145.153275,8734.430116,-153.219100
180.095457,3997.112087,9030.512492,0.000000
180.095778,3552.988522,9178.553681,229.828649
180.096099,3256.906145,9622.677246,612.876398
180.096420,3256.906145,9696.697840,536.266849
180.096741,2960.823768,9178.553681,536.266849
180.097062,3478.967927,8882.471304,689.485948
180.097383,3552.988522,8512.368333,689.485948
180.097703,4219.173869,8216.285956,1225.752797
180.098024,4663.297435,8512.368333,229.828649
180.098345,4811.338623,8216.285956,0.000000
180.098666,5921.647536,8438.347739,0.000000
180.098987,6217.729913,7994.224174,153.219100
180.099308,6587.832884,8290.306550,76.609550
180.099629,6661.853478,7772.162391,0.000000
180.099950,6587.832884,7920.203579,-383.047749
180.100271,6439.791695,7698.141797,-536.266849
180.100592,6217.729913,7994.224174,-383.047749
180.100912,5995.668130,7846.182985,-612.876398
180.101233,5255.462188,7920.203579,-1225.752797
180.101554,4441.235652,8142.265362,-689.485948
180.101875,4145.153275,8290.306550,-612.876398
180.102196,3849.070898,8142.265362,-536.266849
180.102517,3478.967927,8438.347739,-306.438199
180.102838,2812.782580,8808.450710,-383.047749
180.103159,2664.741391,8734.430116,0.000000
180.103480,2738.761985,8364.327145,-229.828649
180.103800,3182.885551,8438.347739,0.000000
180.104121,3552.988522,7846.182985,383.047749
180.104442,3997.112087,7698.141797,0.000000
180.104763,4145.153275,7328.038826,-229.828649
180.105084,4959.379811,7105.977043,-229.828649
180.105405,5551.544565,6883.915261,76.609550
180.105726,6587.832884,6513.812290,153.219100
180.106047,6883.915261,6513.812290,153.219100
180.106368,7179.997637,6957.935855,-306.438199
180.106688,7402.059420,7105.977043,-689.485948
180.107009,7624.121203,7105.977043,-766.095498
180.107330,7179.997637,7179.997637,-995.924147
180.107651,7254.018232,7772.162391,-919.314598
180.107972,6513.812290,7624.121203,-919.314598
180.108293,5773.606348,7994.224174,-1149.143247
180.108614,5477.523971,8290.306550,-689.485948
180.108935,4811.338623,8660.409521,-306.438199
180.109256,4071.132681,8808.450710,-459.657299
180.109577,3552.988522,9030.512492,153.219100
180.109897,3552.988522,9400.615463,0.000000
180.110218,3256.906145,9474.636058,229.828649
180.110539,3034.844362,9474.636058,919.314598
180.110860,3108.864956,9178.553681,766.095498
180.111181,3034.844362,9104.533087,612.876398
180.111502,3701.029710,9030.512492,995.924147
180.111823,3997.112087,8512.368333,459.657299
180.112144,4737.318029,8438.347739,536.266849
180.112465,5033.400406,8216.285956,229.828649
180.112785,5403.503377,7994.224174,0.000000
180.113106,6069.688724,7846.182985,0.000000
180.113427,6513.812290,7624.121203,459.657299
180.113748,6661.853478,7698.141797,229.828649
180.114069,7105.977043,7772.162391,-536.266849
180.114390,6883.915261,7772.162391,-689.485948
180.114711,6587.832884,7550.100608,-536.266849
180.115032,6291.750507,7772.162391,-842.705048
180.115353,5625.565159,7920.203579,-1225.752797
180.115674,4885.359217,8142.265362,-1149.143247
180.115994,4441.235652,8364.327145,-919.314598
180.116315,3849.070898,8438.347739,-306.438199
180.116636,3182.885551,8660.409521,-229.828649
180.116957,2886.803174,8808.450710,0.000000
180.117278,2368.659014,9178.553681,76.609550
180.117599,2368.659014,9030.512492,0.000000
180.117920,2516.700203,8734.430116,0.000000
180.118241,2664.741391,8290.306550,766.095498
180.118562,3108.864956,7994.224174,459.657299
180.118882,3256.906145,7846.182985,306.438199
180.119203,4071.132681,7624.121203,0.000000
180.119524,5033.400406,7179.997637,-153.219100
180.119845,5995.668130,6809.894666,0.000000
180.120166,6587.832884,6735.874072,0.000000
180.120487,6957.935855,7105.977043,-306.438199
180.120808,7328.038826,7105.977043,-995.924147
180.121129,7550.100608,6957.935855,-1072.533697
180.121450,7846.182985,6735.874072,-766.095498
180.121770,7846.182985,6957.935855,-1072.533697
180.122091,7105.977043,7031.956449,-383.047749
180.122412,6587.832884,7254.018232,-1072.533697
180.122733,6291.750507,7402.059420,-1225.752797
180.123054,6069.688724,7698.141797,-689.485948
180.123375,5181.441594,8216.285956,-536.266849
180.123696,4441.235652,8586.388927,0.000000
180.124017,4441.235652,8882.471304,0.000000
180.124338,4145.153275,9178.553681,229.828649
180.124659,3552.988522,9104.533087,459.657299
180.124979,3256.906145,9178.553681,459.657299
180.125300,3701.029710,9622.677246,612.876398
180.125621,3552.988522,8660.409521,383.047749
180.125942,3849.070898,8142.265362,612.876398
180.126263,4071.132681,7994.224174,689.485948
180.126584,4589.276840,8290.306550,536.266849
180.126905,5181.441594,8364.327145,383.047749
180.127226,5625.565159,8290.306550,0.000000
180.127547,6069.688724,7772.162391,0.000000
180.127867,6587.832884,8142.265362,153.219100
180.128188,6513.812290,7846.182985,0.000000
180.128509,6513.812290,8364.327145,-229.828649
180.128830,6217.729913,8290.306550,-536.266849
180.129151,5921.647536,8290.306550,-842.705048
180.129472,5847.626942,7994.224174,-919.314598
180.129793,5477.523971,8142.265362,-1072.533697
180.130114,4219.173869,8586.388927,-766.095498
180.130435,4071.132681,8512.368333,-459.657299
180.130755,3256.906145,8882.471304,-153.219100
180.131076,3108.864956,8586.388927,-612.876398
180.131397,2886.803174,9104.533087,153.219100
180.131718,2886.803174,9104.533087,0.000000
180.132039,2664.741391,8586.388927,0.000000
180.132360,2886.803174,8364.327145,0.000000
180.132681,2960.823768,8290.306550,306.438199
180.133002,3330.926739,8068.244768,76.609550
180.133323,3775.050304,7402.059420,689.485948
180.133644,4737.318029,7476.080014,-306.438199
180.133964,5181.441594,7254.018232,0.000000
180.134285,5847.626942,7031.956449,0.000000
180.134606,6513.812290,6735.874072,-76.609550
180.134927,7105.977043,6809.894666,-229.828649
180.135248,7031.956449,7254.018232,-842.705048
180.135569,7624.121203,7328.038826,-689.485948
180.135890,7402.059420,7105.977043,-459.657299
180.136211,7105.977043,7254.018232,-766.095498
180.136532,6735.874072,7698.141797,-612.876398
180.136852,6069.688724,7994.224174,-1378.971896
180.137173,5921.647536,7846.182985,-1149.143247
180.137494,5477.523971,7994.224174,-689.485948
180.137815,4959.379811,7846.182985,-766.095498
180.138136,4367.215058,8364.327145,0.000000
180.138457,3997.112087,8808.450710,383.047749
180.138778,4071.132681,8956.491898,689.485948
180.139099,3775.050304,9030.512492,612.876398
180.139420,3627.009116,9030.512492,459.657299
180.139741,3849.070898,8586.388927,612.876398
180.140061,4293.194464,8068.244768,383.047749
180.140382,4441.235652,8142.265362,536.266849
180.140703,4811.338623,7994.224174,459.657299
180.141024,5403.503377,7550.100608,0.000000
180.141345,5921.647536,7624.121203,-306.438199
180.141666,6291.750507,7402.059420,0.000000
180.141987,6735.874072,7328.038826,229.828649
180.142308,7105.977043,7476.080014,-76.609550
180.142629,7105.977043,7994.224174,0.000000
180.142949,6957.935855,7920.203579,-383.047749
180.143270,6809.894666,8142.265362,-1072.533697
180.143591,5995.668130,7846.182985,-1532.190996
180.143912,5625.565159,8142.265362,-995.924147
180.144233,4959.379811,8290.306550,-689.485948
180.144554,4145.153275,8660.409521,-766.095498
180.144875,3478.967927,8660.409521,-689.485948
180.145196,2886.803174,8882.471304,-229.828649
180.145517,2590.720797,9400.615463,-306.438199
180.145837,2368.659014,9104.533087,0.000000
180.146158,2072.576638,9178.553681,153.219100
180.146479,1998.556043,8364.327145,306.438199
180.146800,2368.659014,8438.347739,842.705048
180.147121,2812.782580,8216.285956,842.705048
180.147442,3256.906145,8068.244768,229.828649
180.147763,3849.070898,7920.203579,0.000000
180.148084,4811.338623,7254.018232,0.000000
180.148405,5699.585753,7105.977043,-383.047749
180.148726,6587.832884,7031.956449,0.000000
180.149046,7179.997637,6809.894666,-306.438199
180.149367,7105.977043,7254.018232,-995.924147
180.149688,7550.100608,6957.935855,-995.924147
180.150009,7846.182985,7105.977043,-995.924147
180.150330,7994.224174,7624.121203,-459.657299
180.150651,7254.018232,7402.059420,-689.485948
180.150972,6883.915261,7402.059420,-842.705048
180.151293,6291.750507,7328.038826,-536.266849
180.151614,5921.647536,7550.100608,-1225.752797
180.151934,5403.503377,7772.162391,-1072.533697
180.152255,4219.173869,8290.306550,-383.047749
180.152576,4293.194464,8808.450710,0.000000
180.152897,3775.050304,8882.471304,229.828649
180.153218,3849.070898,9178.553681,1149.143247
180.153539,3256.906145,9400.615463,536.266849
180.153860,3404.947333,9104.533087,383.047749
180.154181,3330.926739,8882.471304,536.266849
180.154502,3849.070898,8216.285956,766.095498
180.154823,4367.215058,8364.327145,766.095498
180.155143,4737.318029,8142.265362,766.095498
180.155464,5107.421000,8438.347739,153.219100
180.155785,5773.606348,7846.182985,306.438199
180.156106,6143.709319,7476.080014,76.609550
180.156427,6587.832884,7624.121203,229.828649
180.156748,6883.915261,7550.100608,229.828649
180.157069,6735.874072,7846.182985,0.000000
180.157390,6883.915261,7698.141797,-306.438199
180.157711,6513.812290,7920.203579,-536.266849
180.158031,5995.668130,7698.141797,-1072.533697
180.158352,5699.585753,7920.203579,-842.705048
180.158673,4811.338623,8364.327145,-766.095498
180.158994,4293.194464,8364.327145,-842.705048
180.159315,4219.173869,8290.306550,-612.876398
180.159636,3552.988522,8808.450710,-612.876398
180.159957,2812.782580,8882.471304,-229.828649
180.160278,2738.761985,8956.491898,0.000000
180.160599,2442.679609,8734.430116,-229.828649
180.160919,2664.741391,8512.368333,76.609550
180.161240,3034.844362,8290.306550,306.438199
180.161561,3404.947333,8068.244768,153.219100
180.161882,3849.070898,7772.162391,0.000000
180.162203,4737.318029,7476.080014,-306.438199
180.162524,5107.421000,7105.977043,0.000000
180.162845,5995.668130,6809.894666,0.000000
180.163166,6735.874072,7031.956449,0.000000
180.163487,6661.853478,7254.018232,-306.438199
180.163808,7105.977043,7402.059420,-689.485948
180.164128,7476.080014,7402.059420,-995.924147
180.164449,7254.018232,7328.038826,-766.095498
180.164770,6809.894666,7624.121203,-766.095498
180.165091,6365.771101,7698.141797,-919.314598
180.165412,5773.606348,7920.203579,-1225.752797
180.165733,5625.565159,8216.285956,-842.705048
180.166054,4811.338623,8808.450710,-459.657299
180.166375,4293.194464,8808.450710,-536.266849
180.166696,3701.029710,8956.491898,0.000000
180.167016,3256.906145,9104.533087,0.000000
180.167337,3404.947333,9326.594869,612.876398
180.167658,3256.906145,9178.553681,536.266849
180.167979,3330.926739,9030.512492,383.047749
180.168300,3404.947333,8882.471304,383.047749
180.168621,3849.070898,8956.491898,919.314598
180.168942,3923.091493,8364.327145,842.705048
180.169263,4663.297435,7994.224174,766.095498
180.169584,5107.421000,8142.265362,0.000000
180.169904,5773.606348,7920.203579,0.000000
180.170225,6291.750507,7550.100608,612.876398
180.170546,6735.874072,7476.080014,76.609550
180.170867,6809.894666,7254.018232,0.000000
180.171188,7105.977043,7328.038826,76.609550
180.171509,6735.874072,7846.182985,-842.705048
180.171830,6661.853478,7550.100608,-306.438199
180.172151,6143.709319,7402.059420,-919.314598
180.172472,5773.606348,7476.080014,-766.095498
180.172793,5329.482782,7772.162391,-842.705048
180.173113,4589.276840,8142.265362,-459.657299
180.173434,4071.132681,8364.327145,-76.609550
180.173755,3478.967927,8216.285956,0.000000
180.174076,3182.885551,8512.368333,0.000000
180.174397,2664.741391,8512.368333,0.000000
180.174718,2960.823768,8512.368333,459.657299
180.175039,3256.906145,8364.327145,0.000000
180.175360,3256.906145,7920.203579,536.266849
180.175681,3330.926739,7846.182985,0.000000
180.176001,3701.029710,7476.080014,76.609550
180.176322,4293.194464,7402.059420,-153.219100
180.176643,5477.523971,6957.935855,-459.657299
180.176964,5921.647536,6957.935855,-153.219100
180.177285,6957.935855,6809.894666,-383.047749
180.177606,7105.977043,7105.977043,-612.876398
180.177927,7105.977043,7179.997637,-842.705048
180.178248,7550.100608,7402.059420,-766.095498
180.178569,7402.059420,7476.080014,-612.876398
180.178890,7698.141797,7550.100608,-689.485948
180.179210,6883.915261,7698.141797,-1072.533697
180.179531,6217.729913,7772.162391,-919.314598
180.179852,5699.585753,7994.224174,-842.705048
180.180173,5107.421000,8290.306550,-612.876398
180.180494,4219.173869,8882.471304,-612.876398
180.180815,3923.091493,8956.491898,0.000000
180.181136,3627.009116,9548.656652,383.047749
180.181457,3182.885551,9474.636058,919.314598
180.181778,2368.659014,9474.636058,842.705048
180.182098,2886.803174,9474.636058,536.266849
180.182419,2960.823768,9326.594869,536.266849
180.182740,3552.988522,9030.512492,536.266849
180.183061,3627.009116,8438.347739,612.876398
180.183382,4293.194464,8290.306550,612.876398
180.183703,4737.318029,8438.347739,229.828649
180.184024,5255.462188,8512.368333,0.000000
180.184345,6513.812290,7994.224174,229.828649
180.184666,6513.812290,7698.141797,153.219100
180.184986,6735.874072,7476.080014,229.828649
180.185307,6809.894666,7550.100608,0.000000
180.185628,7105.977043,7402.059420,-306.438199
180.185949,6365.771101,7772.162391,-766.095498
180.186270,6587.832884,7328.038826,-1225.752797
180.186591,5995.668130,7476.080014,-995.924147
180.186912,5477.523971,7920.203579,-1302.362347
180.187233,4515.256246,8438.347739,-612.876398
180.187554,3997.112087,8068.244768,-76.609550
180.187875,3552.988522,8216.285956,-383.047749
180.188196,3108.864956,8068.244768,-306.438199
180.188516,2664.741391,8512.368333,0.000000
180.188837,2368.659014,8808.450710,-153.219100
180.189158,2812.782580,8290.306550,76.609550
180.189479,3108.864956,8068.244768,306.438199
180.189800,3256.906145,7994.224174,306.438199
180.190121,3775.050304,7698.141797,306.438199
180.190442,4071.132681,7402.059420,-229.828649
180.190763,4663.297435,7254.018232,-229.828649
180.191084,5773.606348,6587.832884,0.000000
180.191405,6661.853478,6735.874072,0.000000
180.191726,6809.894666,6809.894666,0.000000
180.192046,7772.162391,7105.977043,0.000000
180.192367,7698.141797,7105.977043,-919.314598
180.192688,7550.100608,7179.997637,-919.314598
180.193009,7920.203579,7179.997637,-842.705048
180.193330,7179.997637,7402.059420,-842.705048
180.193651,6513.812290,8142.265362,-689.485948
180.193972,5921.647536,7846.182985,-689.485948
180.194293,5255.462188,8660.409521,-995.924147
180.194614,4811.338623,8808.450710,-766.095498
180.194935,4219.173869,8882.471304,0.000000
180.195256,3775.050304,9030.512492,229.828649
180.195577,3182.885551,9548.656652,536.266849
180.195897,3182.885551,9400.615463,766.095498
180.196218,2738.761985,9622.677246,612.876398
180.196539,3108.864956,9474.636058,919.314598
180.196860,3034.844362,8882.471304,383.047749
180.197181,3330.926739,8438.347739,1225.752797
180.197502,4071.132681,8290.306550,766.095498
180.197823,4441.235652,8586.388927,536.266849
180.198144,5181.441594,8438.347739,0.000000
180.198465,5847.626942,8068.244768,-383.047749
180.198786,6439.791695,7772.162391,-306.438199
180.199107,6809.894666,7550.100608,0.000000
180.199427,6661.853478,7698.141797,153.219100
180.199748,7031.956449,7550.100608,-229.828649
180.200069,6661.853478,7772.162391,-766.095498
180.200390,6439.791695,7846.182985,-919.314598
180.200711,6069.688724,7624.121203,-1378.971896
180.201032,5625.565159,7920.203579,-1072.533697
180.201353,5255.462188,7994.224174,-766.095498
180.201674,4515.256246,8142.265362,-689.485948
180.201995,3627.009116,8290.306550,-459.657299
180.202316,3256.906145,8586.388927,-306.438199
180.202637,2442.679609,9104.533087,153.219100
180.202957,2442.679609,8882.471304,0.000000
180.203278,2368.659014,8882.471304,76.609550
180.203599,2590.720797,8216.285956,383.047749
180.203920,3034.844362,7920.203579,842.705048
180.204241,3404.947333,8068.244768,383.047749
180.204562,3849.070898,7698.141797,-76.609550
180.204883,4293.194464,7476.080014,-153.219100
180.205204,5255.462188,7105.977043,0.000000
180.205525,6291.750507,6809.894666,0.000000
180.205846,7105.977043,6735.874072,-153.219100
180.206167,7476.080014,6735.874072,-306.438199
180.206488,7846.182985,6883.915261,-766.095498
180.206808,8290.306550,7031.956449,-766.095498
180.207129,8216.285956,7105.977043,-766.095498
180.207450,7772.162391,7476.080014,-1072.533697
180.207771,7698.141797,7328.038826,-1225.752797
180.208092,6809.894666,7328.038826,-919.314598
180.208413,5921.647536,7846.182985,-842.705048
180.208734,5551.544565,8290.306550,-919.314598
180.209055,4737.318029,8808.450710,-536.266849
180.209376,3849.070898,8956.491898,0.000000
180.209697,3701.029710,9030.512492,229.828649
180.210018,3108.864956,9400.615463,459.657299
180.210338,2886.803174,9548.656652,612.876398
180.210659,2368.659014,9252.574275,536.266849
180.210980,2664.741391,9178.553681,689.485948
180.211301,2960.823768,8882.471304,995.924147
180.211622,3256.906145,8586.388927,1072.533697
180.211943,3775.050304,7920.203579,1532.190996
180.212264,4515.256246,8364.327145,612.876398
180.212585,5033.400406,8364.327145,459.657299
180.212906,5847.626942,7846.182985,76.609550
180.213227,6661.853478,7772.162391,306.438199
180.213548,7031.956449,7698.141797,536.266849
180.213868,6957.935855,7772.162391,76.609550
180.214189,6957.935855,7402.059420,-459.657299
180.214510,6957.935855,7698.141797,-689.485948
180.214831,6587.832884,7550.100608,-689.485948
180.215152,6513.812290,7698.141797,-1302.362347
180.215473,5847.626942,7772.162391,-1225.752797
180.215794,4737.318029,8142.265362,-842.705048
180.216115,4293.194464,8216.285956,-459.657299
180.216436,4071.132681,8068.244768,0.000000
180.216757,3182.885551,8364.327145,0.000000
180.217078,2442.679609,8512.368333,-76.609550
180.217398,2368.659014,9178.553681,-306.438199
180.217719,2368.659014,8734.430116,0.000000
180.218040,2664.741391,8660.409521,306.438199
180.218361,3034.844362,8586.388927,383.047749
180.218682,3182.885551,7994.224174,153.219100
180.219003,3256.906145,8068.244768,0.000000
180.219324,4219.173869,7328.038826,-229.828649
180.219645,5329.482782,7031.956449,76.609550
180.219966,5699.585753,7254.018232,536.266849
180.220287,6587.832884,7031.956449,229.828649
180.220608,7105.977043,7105.977043,-76.609550
180.220929,7328.038826,7105.977043,-536.266849
180.221249,7624.121203,7254.018232,-766.095498
180.221570,7698.141797,7105.977043,-919.314598
180.221891,7328.038826,7254.018232,-1149.143247
180.222212,6809.894666,7550.100608,-1225.752797
180.222533,6439.791695,7846.182985,-766.095498
180.222854,5921.647536,8290.306550,-689.485948
180.223175,5403.503377,8586.388927,-689.485948
180.223496,4663.297435,8660.409521,-689.485948
180.223817,4071.132681,8882.471304,-76.609550
180.224138,3997.112087,8882.471304,229.828649
180.224459,3478.967927,8956.491898,153.219100
180.224779,3478.967927,8956.491898,766.095498
180.225100,3108.864956,9178.553681,229.828649
180.225421,3108.864956,8734.430116,306.438199
180.225742,3552.988522,8512.368333,536.266849
180.226063,4145.153275,8068.244768,689.485948
180.226384,4367.215058,8364.327145,919.314598
180.226705,5181.441594,8142.265362,76.609550
180.227026,5551.544565,7920.203579,-229.828649
180.227347,6143.709319,7550.100608,0.000000
180.227668,6661.853478,7476.080014,0.000000
180.227989,6957.935855,7328.038826,0.000000
180.228309,6735.874072,7476.080014,0.000000
180.228630,6957.935855,7550.100608,-153.219100
180.228951,6735.874072,7698.141797,-536.266849
180.229272,6439.791695,8068.244768,-842.705048
180.229593,5551.544565,7550.100608,-1072.533697
180.229914,4737.318029,7846.182985,-459.657299
180.230235,4219.173869,8364.327145,-459.657299
180.230556,3552.988522,8512.368333,-229.828649
180.230877,3182.885551,8660.409521,-612.876398
180.231198,3034.844362,8808.450710,-536.266849
180.231519,2368.659014,9104.533087,153.219100
180.231840,2294.638420,8734.430116,153.219100
180.232160,2442.679609,8438.347739,306.438199
180.232481,2590.720797,8142.265362,689.485948
180.232802,3034.844362,7772.162391,306.438199
180.233123,3256.906145,7846.182985,0.000000
180.233444,3997.112087,7624.121203,-306.438199
180.233765,4885.359217,7179.997637,0.000000
180.234086,5921.647536,7254.018232,-306.438199
180.234407,6661.853478,7105.977043,-306.438199
180.234728,6957.935855,7105.977043,-76.609550
180.235049,7476.080014,7105.977043,-383.047749
180.235370,7772.162391,7624.121203,-383.047749
180.235690,8216.285956,7476.080014,-383.047749
180.236011,7550.100608,7105.977043,-612.876398
180.236332,7105.977043,7550.100608,-766.095498
180.236653,6439.791695,7402.059420,-612.876398
180.236974,5921.647536,7624.121203,-153.219100
180.237295,5477.523971,8142.265362,-383.047749
180.237616,4737.318029,8512.368333,-459.657299
180.237937,4219.173869,8586.388927,0.000000
180.238258,3997.112087,8956.491898,383.047749
180.238579,3701.029710,9252.574275,306.438199
180.238900,3108.864956,9030.512492,383.047749
180.239220,3330.926739,9326.594869,229.828649
180.239541,3256.906145,9030.512492,306.438199
180.239862,3627.009116,8586.388927,536.266849
180.240183,3849.070898,8586.388927,689.485948
180.240504,4367.215058,7994.224174,612.876398
180.240825,4737.318029,8068.244768,229.828649
180.241146,5181.441594,8142.265362,0.000000
180.241467,5995.668130,7846.182985,0.000000
180.241788,6809.894666,7328.038826,-383.047749
180.242109,7031.956449,7328.038826,76.609550
180.242430,6809.894666,7105.977043,-76.609550
180.242751,7031.956449,7328.038826,-153.219100
180.243071,6957.935855,7698.141797,-842.705048
180.243392,6735.874072,7402.059420,-689.485948
180.243713,6143.709319,7994.224174,-1378.971896
180.244034,5403.503377,7698.141797,-1149.143247
180.244355,4959.379811,8290.306550,-995.924147
180.244676,4663.297435,8290.306550,-153.219100
180.244997,3775.050304,8142.265362,-229.828649
180.245318,3182.885551,8586.388927,-689.485948
180.245639,2368.659014,8882.471304,-383.047749
180.245960,2368.659014,9252.574275,0.000000
180.246281,2442.679609,9030.512492,0.000000
180.246601,2368.659014,8586.388927,459.657299
180.246922,2886.803174,8438.347739,459.657299
180.247243,2960.823768,8512.368333,153.219100
180.247564,3404.947333,8068.244768,0.000000
180.247885,4071.132681,7698.141797,0.000000
180.248206,5107.421000,7105.977043,0.000000
180.248527,5995.668130,7328.038826,153.219100
180.248848,6217.729913,7254.018232,153.219100
180.249169,7105.977043,7105.977043,0.000000
180.249490,7254.018232,7402.059420,-383.047749
180.249811,7624.121203,7254.018232,-689.485948
180.250131,7772.162391,7476.080014,-842.705048
180.250452,7476.080014,7328.038826,-919.314598
