#time,accel_x,accel_y,accel_z
155.284451,4885.359217,8142.265362,0.000000
155.284771,5033.400406,7920.203579,0.000000
155.285092,4959.379811,7994.224174,0.000000
155.285413,5181.441594,7994.224174,-383.047749
155.285733,4885.359217,8068.244768,-306.438199
155.286054,4737.318029,8142.265362,0.000000
155.286375,5107.421000,8142.265362,0.000000
155.286695,5107.421000,8068.244768,0.000000
155.287016,4737.318029,8142.265362,-153.219100
155.287336,4959.379811,8068.244768,0.000000
155.287657,4959.379811,8068.244768,0.000000
155.287978,5181.441594,7994.224174,-383.047749
155.288298,4885.359217,8438.347739,-76.609550
155.288619,4737.318029,8216.285956,-306.438199
155.288940,4885.359217,8290.306550,-306.438199
155.289260,4959.379811,7994.224174,-153.219100
155.289581,4737.318029,7994.224174,-612.876398
155.289901,5033.400406,8142.265362,0.000000
155.290222,4959.379811,8068.244768,76.609550
155.290543,5033.400406,8068.244768,0.000000
155.290863,5181.441594,8142.265362,-229.828649
155.291184,5033.400406,7698.141797,0.000000
155.291505,5107.421000,8290.306550,0.000000
155.291825,5107.421000,8216.285956,-536.266849
155.292146,4885.359217,7994.224174,-306.438199
155.292467,5033.400406,8142.265362,0.000000
155.292787,5181.441594,8364.327145,-229.828649
155.293108,4885.359217,8142.265362,-153.219100
155.293428,4959.379811,7994.224174,-229.828649
155.293749,5181.441594,7994.224174,-153.219100
155.294070,4811.338623,8142.265362,0.000000
155.294390,5181.441594,7994.224174,-229.828649
155.294711,4959.379811,8068.244768,-306.438199
155.295032,4811.338623,7624.121203,-459.657299
155.295352,4441.235652,7402.059420,-306.438199
155.295673,4071.132681,7550.100608,0.000000
155.295993,4515.256246,8512.368333,0.000000
155.296314,4441.235652,9474.636058,-612.876398
155.296635,4737.318029,9474.636058,-1225.752797
155.296955,4589.276840,9474.636058,-1225.752797
155.297276,3923.091493,9400.615463,-459.657299
155.297597,3552.988522,8438.347739,612.876398
155.297917,2960.823768,8882.471304,1072.533697
155.298238,2738.761985,9326.594869,689.485948
155.298559,2738.761985,8956.491898,76.609550
155.298879,2886.803174,8290.306550,0.000000
155.299200,3034.844362,8142.265362,-612.876398
155.299520,3108.864956,9178.553681,0.000000
155.299841,2960.823768,9474.636058,383.047749
155.300162,2442.679609,9326.594869,153.219100
155.300482,2368.659014,9326.594869,76.609550
155.300803,2516.700203,9696.697840,0.000000
155.301124,2072.576638,10658.965565,-612.876398
155.301444,1702.473667,11621.233289,-1302.362347
155.301765,1406.391290,11843.295072,-1608.800546
155.302085,1332.370696,11251.130318,-1149.143247
155.302406,296.082377,11177.109724,-1225.752797
155.302727,-444.123565,11547.212695,-1149.143247
155.303047,-1406.391290,12509.480420,-153.219100
155.303368,-1850.514855,13101.645173,612.876398
155.303689,-2072.576638,12361.439231,766.095498
155.304009,-1406.391290,11843.295072,1608.800546
155.304330,-1184.329507,12065.356855,1991.848295
155.304651,-2146.597232,12361.439231,1532.190996
155.304971,-2812.782580,11917.315666,536.266849
155.305292,-2220.617826,10658.965565,-919.314598
155.305612,-1406.391290,10214.842000,-229.828649
155.305933,-888.247130,10362.883188,1072.533697
155.306254,-370.102971,10732.986159,1149.143247
155.306574,0.000000,11325.150913,-306.438199
155.306895,666.185348,11769.274478,-1455.581446
155.307216,1554.432478,11769.274478,-1378.971896
155.307536,1998.556043,10658.965565,-229.828649
155.307857,2664.741391,11029.068536,383.047749
155.308177,2516.700203,10436.903782,-306.438199
155.308498,1924.535449,9770.718434,-2145.067394
155.308819,1702.473667,9252.574275,-2451.505594
155.309139,1924.535449,9696.697840,-995.924147
155.309460,2368.659014,9770.718434,-229.828649
155.309781,1924.535449,10066.800811,0.000000
155.310101,1110.308913,10658.965565,-76.609550
155.310422,592.164754,11473.192101,-306.438199
155.310743,0.000000,11473.192101,0.000000
155.311063,-296.082377,10658.965565,0.000000
155.311384,74.020594,9918.759623,229.828649
155.311704,148.041188,9918.759623,995.924147
155.312025,-296.082377,10214.842000,1915.238745
155.312346,-888.247130,10658.965565,1532.190996
155.312666,0.000000,10658.965565,1072.533697
155.312987,1036.288319,11103.089130,1072.533697
155.313308,1480.411884,10881.027347,612.876398
155.313628,1776.494261,10362.883188,-306.438199
155.313949,2220.617826,10214.842000,-1149.143247
155.314269,1702.473667,9696.697840,-1149.143247
155.314590,1998.556043,9252.574275,-612.876398
155.314911,2294.638420,8290.306550,229.828649
155.315231,2664.741391,8438.347739,0.000000
155.315552,3034.844362,9770.718434,306.438199
155.315873,3182.885551,10955.047942,-689.485948
155.316193,2886.803174,10881.027347,-766.095498
155.316514,3404.947333,10436.903782,-1149.143247
155.316835,3923.091493,9474.636058,-842.705048
155.317155,3330.926739,9104.533087,-919.314598
155.317476,2442.679609,9474.636058,-842.705048
155.317796,1850.514855,10955.047942,-306.438199
155.318117,1184.329507,11843.295072,-306.438199
155.318438,888.247130,11769.274478,-459.657299
155.318758,1110.308913,11251.130318,-1072.533697
155.319079,-74.020594,10140.821405,-1378.971896
155.319400,-1332.370696,9474.636058,-919.314598
155.319720,-2146.597232,8882.471304,-536.266849
155.320041,-2072.576638,9104.533087,766.095498
155.320361,-962.267725,10881.027347,1378.971896
155.320682,74.020594,13027.624579,2145.067394
155.321003,0.000000,14359.995275,1072.533697
155.321323,0.000000,14508.036463,0.000000
155.321644,592.164754,13471.748144,-612.876398
155.321965,666.185348,11917.315666,-153.219100
155.322285,888.247130,10214.842000,0.000000
155.322606,444.123565,9104.533087,-1149.143247
155.322927,-444.123565,9252.574275,-1915.238745
155.323247,-1628.453072,10362.883188,-1532.190996
155.323568,-1702.473667,11103.089130,-842.705048
155.323888,-962.267725,11029.068536,-153.219100
155.324209,1406.391290,12065.356855,612.876398
155.324530,1628.453072,13767.830521,689.485948
155.324850,814.226536,13915.871710,-306.438199
155.325171,888.247130,13545.768739,-1072.533697
155.325492,740.205942,12509.480420,-612.876398
155.325812,814.226536,10362.883188,-1225.752797
155.326133,1036.288319,8142.265362,-459.657299
155.326453,1628.453072,7994.224174,-459.657299
155.326774,1110.308913,9400.615463,612.876398
155.327095,0.000000,11251.130318,1838.629195
155.327415,518.144159,11399.171507,1149.143247
155.327736,518.144159,9548.656652,229.828649
155.328057,444.123565,8586.388927,689.485948
155.328377,1554.432478,9474.636058,995.924147
155.328698,1258.350101,10362.883188,0.000000
155.329019,592.164754,11251.130318,-1991.848295
155.329339,1480.411884,12509.480420,-2145.067394
155.329660,1036.288319,12213.398043,-1762.019645
155.329980,1332.370696,12953.603985,-1532.190996
155.330301,1258.350101,13175.665768,229.828649
155.330622,222.061783,12361.439231,612.876398
155.330942,0.000000,10140.821405,1532.190996
155.331263,222.061783,9104.533087,2528.115143
155.331584,-1258.350101,8290.306550,1149.143247
155.331904,-2368.659014,7994.224174,689.485948
155.332225,-1628.453072,8068.244768,689.485948
155.332545,-592.164754,8586.388927,0.000000
155.332866,888.247130,10066.800811,689.485948
155.333187,2368.659014,11991.336260,612.876398
155.333507,1702.473667,13841.851115,-1149.143247
155.333828,1628.453072,13397.727550,-995.924147
155.334149,1036.288319,10510.924376,-1838.629195
155.334469,1554.432478,6365.771101,-2528.115143
155.334790,2738.761985,5847.626942,76.609550
155.335111,2812.782580,9696.697840,1915.238745
155.335431,666.185348,13027.624579,-229.828649
155.335752,740.205942,14211.954086,-3600.648841
155.336072,1776.494261,13249.686362,-3370.820191
155.336393,1776.494261,9474.636058,-1915.238745
155.336714,-222.061783,7105.977043,0.000000
155.337034,-1480.411884,7105.977043,-153.219100
155.337355,-1110.308913,11547.212695,76.609550
155.337676,-1702.473667,14508.036463,995.924147
155.337996,-2146.597232,14359.995275,689.485948
155.338317,0.000000,14137.933492,229.828649
155.338637,-370.102971,14211.954086,612.876398
155.338958,-1924.535449,13249.686362,383.047749
155.339279,-1850.514855,11547.212695,-459.657299
155.339599,148.041188,10436.903782,306.438199
155.339920,518.144159,9548.656652,1685.410096
155.340241,222.061783,8882.471304,2145.067394
155.340561,0.000000,9178.553681,842.705048
155.340882,0.000000,10362.883188,536.266849
155.341202,2368.659014,10658.965565,919.314598
155.341523,4885.359217,10288.862594,306.438199
155.341844,6439.791695,10510.924376,-842.705048
155.342164,5181.441594,11177.109724,-1762.019645
155.342485,3256.906145,10658.965565,-3370.820191
155.342806,1776.494261,9252.574275,-3524.039291
155.343126,2294.638420,7328.038826,-2068.457845
155.343447,4071.132681,7846.182985,536.266849
155.343768,4367.215058,10955.047942,1762.019645
155.344088,2368.659014,13619.789333,0.000000
155.344409,666.185348,12879.583391,-2298.286494
155.344730,0.000000,9622.677246,-1608.800546
155.345050,518.144159,7994.224174,1149.143247
155.345371,148.041188,7254.018232,2145.067394
155.345692,962.267725,8734.430116,1455.581446
155.346012,2072.576638,10510.924376,-153.219100
155.346333,888.247130,11399.171507,0.000000
155.346654,1258.350101,9918.759623,2145.067394
155.346974,2146.597232,8364.327145,3064.381992
155.347295,1628.453072,7846.182985,3140.991542
155.347616,2590.720797,8512.368333,2221.676944
155.347936,3701.029710,7846.182985,76.609550
155.348257,3627.009116,5477.523971,-2221.676944
155.348578,5107.421000,4367.215058,-1072.533697
155.348898,6291.750507,4959.379811,919.314598
155.349219,8068.244768,7698.141797,536.266849
155.349540,7920.203579,9844.739029,-306.438199
155.349860,7698.141797,10362.883188,-2911.162892
155.350181,8956.491898,8956.491898,-2834.553343
155.350502,7698.141797,6365.771101,-1378.971896
155.350822,6587.832884,5181.441594,-229.828649
155.351143,5773.606348,6957.935855,-1302.362347
155.351464,4663.297435,9178.553681,-2374.896044
155.351784,2072.576638,9548.656652,-2145.067394
155.352105,3256.906145,8734.430116,-383.047749
155.352426,3330.926739,7550.100608,1302.362347
155.352746,2072.576638,9104.533087,2451.505594
155.353067,2368.659014,9696.697840,2374.896044
155.353388,1702.473667,10066.800811,1915.238745
155.353708,1036.288319,8586.388927,1838.629195
155.354029,2960.823768,7624.121203,2911.162892
155.354350,3923.091493,7550.100608,1455.581446
155.354670,4071.132681,8660.409521,-459.657299
155.354991,4515.256246,9844.739029,-1378.971896
155.355312,5033.400406,9474.636058,-2374.896044
155.355632,5477.523971,7550.100608,153.219100
155.355953,7254.018232,6809.894666,1838.629195
155.356274,7550.100608,7920.203579,383.047749
155.356594,6069.688724,8142.265362,-1225.752797
155.356915,6957.935855,7994.224174,-2911.162892
155.357236,8364.327145,7179.997637,-2987.772442
155.357556,8512.368333,6143.709319,0.000000
155.357877,8364.327145,5995.668130,76.609550
155.358198,8438.347739,7402.059420,-1532.190996
155.358518,5033.400406,7994.224174,-3217.601092
155.358839,5033.400406,9474.636058,-3217.601092
155.359160,6439.791695,9548.656652,-919.314598
155.359480,6661.853478,8882.471304,459.657299
155.359801,5255.462188,7994.224174,76.609550
155.360122,4737.318029,7328.038826,-919.314598
155.360442,2812.782580,8068.244768,-1685.410096
155.360763,1110.308913,9326.594869,0.000000
155.361084,2220.617826,10214.842000,919.314598
155.361404,3108.864956,10436.903782,459.657299
155.361725,2294.638420,9844.739029,536.266849
155.362046,2664.741391,10510.924376,383.047749
155.362366,2442.679609,10510.924376,1149.143247
155.362687,1702.473667,10881.027347,1608.800546
155.363008,1184.329507,10140.821405,2068.457845
155.363328,2220.617826,9030.512492,842.705048
155.363649,3182.885551,8290.306550,919.314598
155.363970,3923.091493,8734.430116,1532.190996
155.364290,3552.988522,9104.533087,1302.362347
155.364611,4145.153275,8142.265362,76.609550
155.364932,4219.173869,6365.771101,-842.705048
155.365252,5699.585753,5181.441594,-1072.533697
155.365573,7328.038826,6365.771101,229.828649
155.365894,8068.244768,8216.285956,919.314598
155.366214,7772.162391,9326.594869,-1455.581446
155.366535,7179.997637,8438.347739,-2604.724693
155.366856,8882.471304,7328.038826,-1225.752797
155.367176,9178.553681,6883.915261,689.485948
155.367497,7994.224174,6069.688724,383.047749
155.367818,7031.956449,6439.791695,-2451.505594
155.368138,7031.956449,5921.647536,-3677.258390
155.368459,6365.771101,4959.379811,-2068.457845
155.368780,6661.853478,4737.318029,459.657299
155.369101,7254.018232,6291.750507,2374.896044
155.369421,6291.750507,8290.306550,2298.286494
155.369742,4145.153275,8216.285956,1302.362347
155.370063,2590.720797,6365.771101,1072.533697
155.370383,4071.132681,6661.853478,1685.410096
155.370704,5181.441594,8586.388927,2987.772442
155.371025,3552.988522,8734.430116,1915.238745
155.371345,4293.194464,7772.162391,-842.705048
155.371666,3849.070898,6883.915261,-1455.581446
155.371987,2590.720797,6217.729913,-689.485948
155.372307,3775.050304,7920.203579,842.705048
155.372628,4515.256246,9770.718434,1455.581446
155.372949,5255.462188,9252.574275,0.000000
155.373269,6587.832884,7698.141797,-612.876398
155.373590,6365.771101,5921.647536,-1149.143247
155.373911,5033.400406,5921.647536,-689.485948
155.374231,5773.606348,7624.121203,459.657299
155.374552,6735.874072,8660.409521,-1532.190996
155.374873,7550.100608,8142.265362,-2834.553343
155.375193,7476.080014,6439.791695,-2451.505594
155.375514,8438.347739,8216.285956,-995.924147
155.375835,6365.771101,10214.842000,0.000000
155.376155,5329.482782,10066.800811,-1378.971896
155.376476,6069.688724,9178.553681,-2374.896044
155.376797,5255.462188,6217.729913,-1072.533697
155.377117,4219.173869,5847.626942,919.314598
155.377438,3923.091493,7328.038826,1915.238745
155.377759,1776.494261,10436.903782,0.000000
155.378079,2442.679609,10881.027347,-1991.848295
155.378400,3256.906145,9474.636058,-1762.019645
155.378721,4145.153275,8364.327145,-612.876398
155.379041,4071.132681,8956.491898,1915.238745
155.379362,3627.009116,10288.862594,2834.553343
155.379683,3182.885551,10584.944971,76.609550
155.380003,2886.803174,9770.718434,-1149.143247
155.380324,4737.318029,7328.038826,76.609550
155.380645,5773.606348,7402.059420,689.485948
155.380965,4515.256246,7550.100608,536.266849
155.381286,5107.421000,9400.615463,-1991.848295
155.381607,5625.565159,7698.141797,-3370.820191
155.381927,5255.462188,5033.400406,-2528.115143
155.382248,9474.636058,4589.276840,919.314598
155.382569,8068.244768,7328.038826,2068.457845
155.382889,5921.647536,9178.553681,-76.609550
155.383210,6587.832884,9474.636058,-2604.724693
155.383531,7402.059420,7328.038826,-2528.115143
155.383851,8216.285956,6439.791695,-383.047749
155.384172,8734.430116,6661.853478,1762.019645
155.384493,6957.935855,6069.688724,-1608.800546
155.384813,5329.482782,6809.894666,-3370.820191
155.385134,4663.297435,6143.709319,-1991.848295
155.385455,5551.544565,5255.462188,-459.657299
155.385775,5033.400406,5773.606348,1762.019645
155.386096,4885.359217,8438.347739,2221.676944
155.386417,4737.318029,10955.047942,842.705048
155.386737,3182.885551,9622.677246,0.000000
155.387058,4441.235652,7476.080014,-383.047749
155.387379,5847.626942,7550.100608,1149.143247
155.387699,4441.235652,8660.409521,1991.848295
155.388020,4145.153275,7846.182985,612.876398
155.388341,3627.009116,7254.018232,-1685.410096
155.388661,4367.215058,7179.997637,-1378.971896
155.388982,5107.421000,7179.997637,1455.581446
155.389303,4885.359217,7772.162391,2757.943793
155.389623,5551.544565,9104.533087,1608.800546
155.389944,5255.462188,8808.450710,-306.438199
155.390265,5107.421000,6069.688724,-1838.629195
155.390585,6809.894666,5329.482782,-689.485948
155.390906,6587.832884,6291.750507,1762.019645
155.391227,6291.750507,7920.203579,153.219100
155.391547,5995.668130,8660.409521,-1991.848295
155.391868,4737.318029,7476.080014,-2528.115143
155.392189,5995.668130,7328.038826,-229.828649
155.392509,7846.182985,7476.080014,2068.457845
155.392830,6439.791695,6883.915261,0.000000
155.393151,5403.503377,6883.915261,-2068.457845
155.393471,5773.606348,7476.080014,-2298.286494
155.393792,4589.276840,7920.203579,-995.924147
155.394113,4145.153275,7179.997637,612.876398
155.394433,6439.791695,8290.306550,1225.752797
155.394754,5033.400406,8734.430116,-536.266849
155.395075,4071.132681,8882.471304,-1225.752797
155.395396,4737.318029,9326.594869,-689.485948
155.395716,4145.153275,9770.718434,229.828649
155.396037,3552.988522,9326.594869,1608.800546
155.396358,4219.173869,9030.512492,1532.190996
155.396678,2442.679609,7994.224174,-612.876398
155.396999,2294.638420,7920.203579,-842.705048
155.397320,3256.906145,8660.409521,1072.533697
155.397640,3404.947333,9104.533087,1072.533697
155.397961,4293.194464,8364.327145,689.485948
155.398282,5255.462188,7328.038826,-995.924147
155.398602,5033.400406,7105.977043,-2298.286494
155.398923,5551.544565,8660.409521,-153.219100
155.399244,5995.668130,9770.718434,766.095498
155.399564,6143.709319,9326.594869,-153.219100
155.399885,6069.688724,7624.121203,-919.314598
155.400206,6735.874072,6735.874072,-689.485948
155.400526,5773.606348,7105.977043,-689.485948
155.400847,5773.606348,9030.512492,-459.657299
155.401168,5995.668130,9474.636058,-2145.067394
155.401488,5921.647536,7328.038826,-3294.210641
155.401809,6365.771101,5181.441594,-1532.190996
155.402130,6661.853478,5477.523971,1149.143247
155.402450,5551.544565,7105.977043,1608.800546
155.402771,4219.173869,9030.512492,0.000000
155.403092,4441.235652,9918.759623,-1991.848295
155.403412,5921.647536,8808.450710,-1608.800546
155.403733,6587.832884,7846.182985,536.266849
155.404054,6513.812290,7698.141797,1455.581446
155.404374,4293.194464,7772.162391,-76.609550
155.404695,2664.741391,8068.244768,-1149.143247
155.405016,1776.494261,7846.182985,-1072.533697
155.405336,3034.844362,6735.874072,-383.047749
155.405657,5551.544565,7328.038826,1762.019645
155.405978,6365.771101,10140.821405,2604.724693
155.406298,4071.132681,10214.842000,-383.047749
155.406619,3849.070898,8512.368333,-2681.334243
155.406940,5255.462188,6735.874072,-1378.971896
155.407260,5847.626942,6217.729913,1225.752797
155.407581,6735.874072,7402.059420,2145.067394
155.407902,6587.832884,9622.677246,-842.705048
155.408222,4367.215058,9104.533087,-2911.162892
155.408543,4737.318029,8068.244768,-1762.019645
155.408864,5995.668130,7105.977043,612.876398
155.409184,5847.626942,7772.162391,1149.143247
155.409505,5329.482782,8956.491898,76.609550
155.409826,4737.318029,8734.430116,-1915.238745
155.410146,4367.215058,7402.059420,-2528.115143
155.410467,4885.359217,7105.977043,459.657299
155.410788,5033.400406,8586.388927,1762.019645
155.411108,4145.153275,9918.759623,612.876398
155.411429,4071.132681,9400.615463,-1378.971896
155.411750,3330.926739,8438.347739,-1608.800546
155.412070,5033.400406,7698.141797,306.438199
155.412391,4293.194464,7105.977043,1838.629195
155.412712,3108.864956,7550.100608,612.876398
155.413032,3404.947333,8882.471304,-536.266849
155.413353,4441.235652,9400.615463,-842.705048
155.413674,4145.153275,7994.224174,-383.047749
155.413994,5625.565159,8068.244768,689.485948
155.414315,4959.379811,9400.615463,459.657299
155.414636,4737.318029,9622.677246,-842.705048
155.414956,4737.318029,7328.038826,-1532.190996
155.415277,6439.791695,6291.750507,-919.314598
155.415598,5995.668130,6587.832884,689.485948
155.415918,4737.318029,9400.615463,1302.362347
155.416239,3997.112087,9770.718434,-766.095498
155.416560,4219.173869,8290.306550,-1532.190996
155.416880,5551.544565,6661.853478,0.000000
155.417201,6439.791695,6809.894666,1225.752797
155.417522,5255.462188,7105.977043,612.876398
155.417842,4737.318029,8364.327145,-1072.533697
155.418163,5033.400406,9696.697840,-2528.115143
155.418484,4515.256246,8068.244768,-1225.752797
155.418804,5773.606348,7328.038826,229.828649
155.419125,5921.647536,9178.553681,2145.067394
155.419446,3182.885551,11103.089130,153.219100
155.419766,2368.659014,9844.739029,-1532.190996
155.420087,3256.906145,7624.121203,-1762.019645
155.420408,3404.947333,7402.059420,0.000000
155.420728,4293.194464,9252.574275,2374.896044
155.421049,2738.761985,10288.862594,1149.143247
155.421370,1924.535449,10362.883188,-1225.752797
155.421691,2590.720797,9326.594869,0.000000
155.422011,3775.050304,7476.080014,919.314598
155.422332,5033.400406,7624.121203,1302.362347
155.422653,4145.153275,8364.327145,842.705048
155.422973,3404.947333,8882.471304,-536.266849
155.423294,4589.276840,8068.244768,-612.876398
155.423615,5107.421000,7624.121203,-229.828649
155.423935,5625.565159,7772.162391,-383.047749
155.424256,6513.812290,8364.327145,-229.828649
155.424577,5033.400406,8438.347739,-1149.143247
155.424897,5255.462188,7031.956449,-1532.190996
155.425218,6587.832884,5847.626942,-306.438199
155.425539,6513.812290,7254.018232,229.828649
155.425859,6365.771101,7994.224174,-536.266849
155.426180,6587.832884,9326.594869,-1378.971896
155.426501,6365.771101,8956.491898,-2451.505594
155.426821,5625.565159,6957.935855,-1915.238745
155.427142,5699.585753,6513.812290,1302.362347
155.427463,5551.544565,7254.018232,2068.457845
155.427783,3997.112087,8068.244768,689.485948
155.428104,4293.194464,7624.121203,-1378.971896
155.428425,4367.215058,7105.977043,-1608.800546
155.428745,3997.112087,7105.977043,-153.219100
155.429066,4589.276840,9104.533087,1915.238745
155.429387,3627.009116,9400.615463,995.924147
155.429707,3849.070898,8364.327145,-229.828649
155.430028,4589.276840,7994.224174,0.000000
155.430349,4071.132681,7698.141797,306.438199
155.430669,4663.297435,8142.265362,306.438199
155.430990,5329.482782,8956.491898,229.828649
155.431311,5181.441594,8512.368333,-1225.752797
155.431631,6513.812290,7328.038826,-766.095498
155.431952,6735.874072,6365.771101,153.219100
155.432273,6513.812290,7994.224174,153.219100
155.432593,5847.626942,9844.739029,76.609550
155.432914,5773.606348,9474.636058,-766.095498
155.433235,6439.791695,7920.203579,-1149.143247
155.433555,6883.915261,6809.894666,306.438199
155.433876,6217.729913,7476.080014,919.314598
155.434197,6365.771101,8808.450710,306.438199
155.434517,4219.173869,8586.388927,-2068.457845
155.434838,3552.988522,7550.100608,-2451.505594
155.435159,4515.256246,7105.977043,306.438199
155.435479,4737.318029,8142.265362,2374.896044
155.435800,3182.885551,9918.759623,1991.848295
155.436121,3108.864956,10807.006753,0.000000
155.436441,3108.864956,10066.800811,-2374.896044
155.436762,2368.659014,8660.409521,-2145.067394
155.437083,2886.803174,7698.141797,536.266849
155.437403,3256.906145,8808.450710,1991.848295
155.437724,2664.741391,9474.636058,919.314598
155.438045,2738.761985,9696.697840,-689.485948
155.438365,3034.844362,8882.471304,-2221.676944
155.438686,3256.906145,8290.306550,-1838.629195
155.439007,3923.091493,9474.636058,1455.581446
155.439327,4293.194464,10066.800811,1915.238745
155.439648,4589.276840,8956.491898,995.924147
155.439969,4441.235652,6957.935855,-612.876398
155.440289,5255.462188,6809.894666,-995.924147
155.440610,4589.276840,7920.203579,229.828649
155.440931,4811.338623,9178.553681,0.000000
155.441251,5847.626942,9104.533087,-1455.581446
155.441572,5551.544565,7179.997637,-766.095498
155.441893,5477.523971,6365.771101,459.657299
155.442213,6587.832884,7550.100608,1608.800546
155.442534,3997.112087,8808.450710,0.000000
155.442855,3997.112087,9326.594869,-2145.067394
155.443175,5033.400406,8068.244768,-2145.067394
155.443496,5773.606348,6143.709319,-612.876398
155.443817,6883.915261,6513.812290,2451.505594
155.444137,6587.832884,7920.203579,2681.334243
155.444458,3552.988522,8068.244768,-1838.629195
155.444779,3478.967927,7846.182985,-2451.505594
155.445100,5033.400406,7772.162391,-1072.533697
155.445420,5329.482782,7476.080014,612.876398
155.445741,6439.791695,8364.327145,2221.676944
155.446062,6809.894666,9104.533087,229.828649
155.446382,3330.926739,7994.224174,-2374.896044
155.446703,3701.029710,5847.626942,-2145.067394
155.447024,5921.647536,5995.668130,919.314598
155.447344,6587.832884,6883.915261,1991.848295
155.447665,7105.977043,8512.368333,1149.143247
155.447986,6587.832884,8438.347739,-1915.238745
155.448306,5625.565159,7179.997637,-3217.601092
155.448627,7328.038826,7698.141797,0.000000
155.448948,7994.224174,7328.038826,2145.067394
155.449268,7328.038826,7624.121203,689.485948
155.449589,7031.956449,7624.121203,-689.485948
155.449910,6143.709319,7402.059420,-1378.971896
155.450230,5181.441594,6735.874072,-1149.143247
155.450551,6143.709319,7179.997637,842.705048
155.450872,5995.668130,8290.306550,536.266849
155.451193,4293.194464,8216.285956,-1225.752797
155.451513,4145.153275,7698.141797,-1378.971896
155.451834,4959.379811,6735.874072,0.000000
155.452155,4663.297435,7179.997637,1608.800546
155.452475,4737.318029,9474.636058,1915.238745
155.452796,4145.153275,10807.006753,-1072.533697
155.453117,3775.050304,9474.636058,-2757.943793
155.453437,4219.173869,8142.265362,-612.876398
155.453758,4885.359217,7402.059420,1532.190996
155.454079,3849.070898,7846.182985,919.314598
155.454399,2886.803174,9326.594869,-995.924147
155.454720,2590.720797,9474.636058,-2451.505594
155.455041,3552.988522,7994.224174,-1532.190996
155.455361,5699.585753,7328.038826,1149.143247
155.455682,5181.441594,9030.512492,2145.067394
155.456003,5329.482782,10214.842000,536.266849
155.456324,4441.235652,9178.553681,-1378.971896
155.456644,4663.297435,7179.997637,-1302.362347
155.456965,6291.750507,6587.832884,919.314598
155.457286,6809.894666,7402.059420,2068.457845
155.457606,5403.503377,8364.327145,-306.438199
155.457927,5329.482782,8882.471304,-2757.943793
155.458248,5625.565159,7254.018232,-2604.724693
155.458568,6735.874072,6809.894666,-306.438199
155.458889,6957.935855,7402.059420,2298.286494
155.459210,4737.318029,8734.430116,1378.971896
155.459530,4145.153275,8956.491898,-1608.800546
155.459851,4811.338623,8142.265362,-2068.457845
155.460172,4811.338623,6513.812290,-459.657299
155.460492,4959.379811,6587.832884,1225.752797
155.460813,5329.482782,8586.388927,1838.629195
155.461134,3182.885551,9696.697840,-536.266849
155.461454,3034.844362,8290.306550,-1225.752797
155.461775,4663.297435,6661.853478,-689.485948
155.462096,6587.832884,7254.018232,229.828649
155.462417,5329.482782,9400.615463,1762.019645
155.462737,4441.235652,10066.800811,-842.705048
155.463058,4737.318029,9400.615463,-2221.676944
155.463379,5551.544565,7031.956449,-612.876398
155.463699,6883.915261,5181.441594,2298.286494
155.464020,5995.668130,6661.853478,2145.067394
155.464341,4663.297435,8734.430116,-612.876398
155.464661,4737.318029,9474.636058,-2604.724693
155.464982,6883.915261,7698.141797,-2068.457845
155.465303,8068.244768,6069.688724,459.657299
155.465623,7772.162391,6735.874072,2681.334243
155.465944,5995.668130,8364.327145,1149.143247
155.466265,4959.379811,9844.739029,-766.095498
155.466585,4145.153275,8068.244768,-995.924147
155.466906,7105.977043,6069.688724,306.438199
155.467227,7994.224174,6069.688724,2451.505594
155.467547,4589.276840,7105.977043,536.266849
155.467868,3552.988522,7402.059420,-2604.724693
155.468189,3923.091493,6883.915261,-2451.505594
155.468510,4663.297435,5255.462188,-536.266849
155.468830,6661.853478,6291.750507,2221.676944
155.469151,6291.750507,9252.574275,1149.143247
155.469472,4293.194464,11695.253884,-2451.505594
155.469792,4737.318029,11325.150913,-2681.334243
155.470113,5477.523971,8512.368333,-919.314598
155.470434,6217.729913,6217.729913,1072.533697
155.470754,5477.523971,6513.812290,2528.115143
155.471075,3478.967927,8512.368333,-1149.143247
155.471396,2442.679609,9400.615463,-2757.943793
155.471716,3330.926739,7994.224174,-1991.848295
155.472037,5995.668130,6439.791695,536.266849
155.472358,6513.812290,6883.915261,2528.115143
155.472678,5107.421000,8956.491898,2298.286494
155.472999,4589.276840,9918.759623,-536.266849
155.473320,3404.947333,8068.244768,-1302.362347
155.473640,5699.585753,7105.977043,306.438199
155.473961,7550.100608,7105.977043,1532.190996
155.474282,5921.647536,8290.306550,383.047749
155.474603,5329.482782,10066.800811,-1225.752797
155.474923,4515.256246,9548.656652,-2987.772442
155.475244,4589.276840,7920.203579,-1532.190996
155.475565,5181.441594,7476.080014,689.485948
155.475885,4589.276840,8660.409521,1378.971896
155.476206,3849.070898,10362.883188,153.219100
155.476527,2516.700203,9178.553681,-229.828649
155.476847,3997.112087,6883.915261,76.609550
155.477168,5329.482782,6069.688724,689.485948
155.477489,4219.173869,6365.771101,1072.533697
155.477809,3775.050304,9030.512492,-459.657299
155.478130,4515.256246,10658.965565,-2374.896044
155.478451,4293.194464,8956.491898,-1532.190996
155.478771,7105.977043,7254.018232,536.266849
155.479092,7994.224174,7328.038826,1838.629195
155.479413,4737.318029,8142.265362,306.438199
155.479734,4293.194464,8586.388927,-1915.238745
155.480054,5625.565159,7994.224174,-2068.457845
155.480375,6735.874072,6439.791695,229.828649
155.480696,8216.285956,6587.832884,2451.505594
155.481016,7476.080014,7624.121203,995.924147
155.481337,4737.318029,7994.224174,-2298.286494
155.481658,4737.318029,6809.894666,-842.705048
155.481978,6809.894666,5625.565159,919.314598
155.482299,7550.100608,5699.585753,1991.848295
155.482620,6513.812290,7105.977043,1455.581446
155.482940,6217.729913,8956.491898,-1532.190996
155.483261,4737.318029,8512.368333,-2068.457845
155.483582,5181.441594,7254.018232,0.000000
155.483902,6217.729913,6365.771101,766.095498
155.484223,4737.318029,6883.915261,-689.485948
155.484544,3404.947333,8142.265362,-842.705048
155.484864,4071.132681,8586.388927,-1149.143247
155.485185,4367.215058,7994.224174,-1072.533697
155.485506,4515.256246,7772.162391,-153.219100
155.485827,4737.318029,8808.450710,0.000000
155.486147,3701.029710,10140.821405,-1149.143247
155.486468,4219.173869,10732.986159,-306.438199
155.486789,4219.173869,8956.491898,76.609550
155.487109,4515.256246,7179.997637,0.000000
155.487430,3701.029710,7920.203579,1072.533697
155.487751,3330.926739,9178.553681,612.876398
155.488071,3552.988522,8882.471304,-919.314598
155.488392,4737.318029,7179.997637,-1149.143247
155.488713,6365.771101,7402.059420,-76.609550
155.489033,5551.544565,8290.306550,1225.752797
155.489354,4441.235652,9918.759623,689.485948
155.489675,4959.379811,9548.656652,0.000000
155.489995,5033.400406,8216.285956,-459.657299
155.490316,5699.585753,6513.812290,229.828649
155.490637,6365.771101,7328.038826,1685.410096
155.490957,4367.215058,8438.347739,-459.657299
155.491278,3923.091493,9992.780217,-2145.067394
155.491599,4367.215058,7994.224174,-1915.238745
155.491920,5255.462188,6809.894666,-536.266849
155.492240,5699.585753,7920.203579,766.095498
155.492561,4367.215058,9178.553681,383.047749
155.492882,3849.070898,9252.574275,-1072.533697
155.493202,4515.256246,8216.285956,-1225.752797
155.493523,4885.359217,7031.956449,-383.047749
155.493844,5995.668130,6809.894666,229.828649
155.494164,5625.565159,8882.471304,383.047749
155.494485,3775.050304,10732.986159,-1225.752797
155.494806,3256.906145,9252.574275,-2451.505594
155.495126,4663.297435,7328.038826,-766.095498
155.495447,5477.523971,7550.100608,1302.362347
155.495768,4515.256246,9400.615463,1838.629195
155.496088,3701.029710,9696.697840,612.876398
155.496409,4589.276840,8586.388927,-842.705048
155.496730,4959.379811,6439.791695,0.000000
155.497050,6291.750507,4737.318029,1685.410096
155.497371,6661.853478,7846.182985,2145.067394
155.497692,4885.359217,9696.697840,536.266849
155.498013,4441.235652,9178.553681,-1225.752797
155.498333,7105.977043,6217.729913,-995.924147
155.498654,6957.935855,4737.318029,153.219100
155.498975,6439.791695,6069.688724,919.314598
155.499295,5033.400406,9400.615463,-612.876398
155.499616,3775.050304,9696.697840,-2834.553343
155.499937,5107.421000,8290.306550,-1762.019645
155.500257,6809.894666,5773.606348,612.876398
155.500578,5921.647536,6365.771101,76.609550
155.500899,4071.132681,9104.533087,-306.438199
155.501219,2294.638420,10584.944971,-2221.676944
155.501540,3552.988522,9178.553681,-1838.629195
155.501861,5551.544565,6217.729913,0.000000
155.502181,6291.750507,6809.894666,1149.143247
155.502502,4219.173869,9622.677246,766.095498
155.502823,2664.741391,11251.130318,-766.095498
155.503143,3997.112087,11103.089130,-1455.581446
155.503464,4441.235652,7105.977043,306.438199
155.503785,6143.709319,6143.709319,2681.334243
155.504106,5995.668130,8142.265362,2681.334243
155.504426,2072.576638,9696.697840,0.000000
155.504747,2368.659014,9770.718434,-2451.505594
155.505068,4885.359217,6809.894666,-842.705048
155.505388,5773.606348,5033.400406,1149.143247
155.505709,5995.668130,7920.203579,2834.553343
155.506030,4589.276840,11177.109724,1302.362347
155.506350,2664.741391,10807.006753,-1991.848295
155.506671,4737.318029,8216.285956,-1838.629195
155.506992,6513.812290,6365.771101,612.876398
155.507312,6217.729913,6513.812290,1302.362347
155.507633,4885.359217,8364.327145,229.828649
155.507954,4663.297435,10066.800811,-2604.724693
155.508274,4441.235652,9030.512492,-3600.648841
155.508595,5773.606348,6661.853478,-689.485948
155.508916,6069.688724,7105.977043,919.314598
155.509237,5033.400406,8586.388927,229.828649
155.509557,3997.112087,9548.656652,-383.047749
155.509878,4441.235652,8586.388927,-1378.971896
155.510199,4737.318029,6439.791695,-766.095498
155.510519,5329.482782,6217.729913,995.924147
155.510840,5181.441594,9104.533087,1302.362347
155.511161,4145.153275,10732.986159,-689.485948
155.511481,3775.050304,10214.842000,-1608.800546
155.511802,5255.462188,7105.977043,-306.438199
155.512123,6143.709319,6587.832884,1149.143247
155.512443,5551.544565,8216.285956,2145.067394
155.512764,3923.091493,9474.636058,306.438199
155.513085,3775.050304,9474.636058,-1915.238745
155.513405,4367.215058,7920.203579,-1225.752797
155.513726,5477.523971,6809.894666,689.485948
155.514047,5329.482782,7476.080014,1532.190996
155.514367,3849.070898,9030.512492,1149.143247
155.514688,3256.906145,9918.759623,-919.314598
155.515009,3701.029710,8882.471304,-1225.752797
155.515330,4367.215058,7105.977043,-153.219100
155.515650,6365.771101,7698.141797,1072.533697
155.515971,5329.482782,9030.512492,229.828649
155.516292,3552.988522,8660.409521,-1532.190996
155.516612,4737.318029,7994.224174,-2374.896044
155.516933,6143.709319,7772.162391,-995.924147
155.517254,5107.421000,8660.409521,842.705048
155.517574,5329.482782,8956.491898,229.828649
155.517895,4885.359217,9178.553681,-1608.800546
155.518216,4589.276840,8956.491898,-1762.019645
155.518536,4959.379811,7402.059420,-153.219100
155.518857,5847.626942,6957.935855,1072.533697
155.519178,5255.462188,8512.368333,1302.362347
155.519498,3849.070898,10066.800811,1378.971896
155.519819,3775.050304,9474.636058,0.000000
155.520140,3775.050304,7698.141797,0.000000
155.520460,4367.215058,7105.977043,1685.410096
155.520781,4367.215058,7328.038826,2374.896044
155.521102,4367.215058,8586.388927,919.314598
155.521423,3849.070898,8068.244768,-459.657299
155.521743,4293.194464,6957.935855,-1838.629195
155.522064,5033.400406,6291.750507,-153.219100
155.522385,5477.523971,7105.977043,1991.848295
155.522705,5107.421000,9474.636058,1072.533697
155.523026,5403.503377,9400.615463,-995.924147
155.523347,4811.338623,7179.997637,-2298.286494
155.523667,6143.709319,6513.812290,-919.314598
155.523988,6365.771101,7179.997637,536.266849
155.524309,4737.318029,8216.285956,-766.095498
155.524629,4811.338623,8660.409521,-2451.505594
155.524950,5773.606348,7846.182985,-2221.676944
155.525271,5625.565159,7105.977043,-536.266849
155.525591,6513.812290,6883.915261,1608.800546
155.525912,5995.668130,8068.244768,1072.533697
155.526233,4293.194464,9104.533087,-306.438199
155.526553,4219.173869,7624.121203,-766.095498
155.526874,6069.688724,6291.750507,-153.219100
155.527195,6809.894666,6735.874072,1072.533697
155.527516,5847.626942,8216.285956,1302.362347
155.527836,4811.338623,9474.636058,-919.314598
155.528157,4737.318029,9030.512492,-2374.896044
155.528478,3997.112087,7846.182985,-842.705048
155.528798,4811.338623,7402.059420,1838.629195
155.529119,5403.503377,9400.615463,2451.505594
155.529440,3627.009116,11103.089130,229.828649
155.529760,2812.782580,10510.924376,-1225.752797
155.530081,4959.379811,8142.265362,-766.095498
155.530402,4737.318029,6365.771101,536.266849
155.530722,4293.194464,6735.874072,1685.410096
155.531043,3627.009116,9104.533087,766.095498
155.531364,2812.782580,10288.862594,-919.314598
155.531684,3775.050304,8438.347739,-1225.752797
155.532005,6439.791695,7550.100608,-766.095498
155.532326,6365.771101,8438.347739,383.047749
155.532646,5477.523971,10066.800811,229.828649
155.532967,4293.194464,10881.027347,-612.876398
155.533288,3552.988522,8438.347739,-1608.800546
155.533609,5551.544565,6069.688724,0.000000
155.533929,6809.894666,6217.729913,1685.410096
155.534250,4737.318029,8438.347739,1302.362347
155.534571,3182.885551,9918.759623,-919.314598
155.534891,5255.462188,8734.430116,-2374.896044
155.535212,6587.832884,5921.647536,-612.876398
155.535533,6809.894666,4811.338623,2604.724693
155.535853,6439.791695,8142.265362,2451.505594
155.536174,4663.297435,10362.883188,-383.047749
155.536495,2368.659014,8956.491898,-1762.019645
155.536815,5921.647536,5995.668130,-536.266849
155.537136,7105.977043,4589.276840,1762.019645
155.537457,5773.606348,5921.647536,1302.362347
155.537777,4441.235652,8586.388927,-1302.362347
155.538098,3404.947333,8660.409521,-3907.087040
155.538419,4737.318029,6365.771101,-2298.286494
155.538740,7846.182985,6365.771101,1762.019645
155.539060,7105.977043,7328.038826,2221.676944
155.539381,4737.318029,9252.574275,-995.924147
155.539702,4145.153275,10881.027347,-2298.286494
155.540022,4219.173869,8660.409521,-1991.848295
155.540343,6365.771101,5995.668130,-306.438199
155.540664,7105.977043,5403.503377,1072.533697
155.540984,4811.338623,7328.038826,-995.924147
155.541305,2886.803174,8882.471304,-1532.190996
155.541626,3923.091493,8438.347739,-1838.629195
155.541946,6069.688724,6809.894666,-536.266849
155.542267,6217.729913,6883.915261,1532.190996
155.542588,5551.544565,9474.636058,2068.457845
155.542908,4737.318029,11399.171507,0.000000
155.543229,3478.967927,9918.759623,-1685.410096
155.543550,4737.318029,7624.121203,-1072.533697
155.543870,6143.709319,6217.729913,536.266849
155.544191,4663.297435,7402.059420,919.314598
155.544512,3997.112087,9474.636058,0.000000
155.544833,3849.070898,9474.636058,-1762.019645
155.545153,4737.318029,8142.265362,-1762.019645
155.545474,5329.482782,7698.141797,459.657299
155.545795,5329.482782,8660.409521,1608.800546
155.546115,5625.565159,10436.903782,153.219100
155.546436,5403.503377,9696.697840,-1072.533697
155.546756,5329.482782,7698.141797,-1378.971896
155.547077,6957.935855,7179.997637,0.000000
155.547398,5773.606348,7920.203579,689.485948
155.547718,4515.256246,8660.409521,-919.314598
155.548039,5403.503377,9104.533087,-1915.238745
155.548359,5699.585753,7698.141797,-1762.019645
155.548680,6661.853478,5773.606348,-229.828649
155.549000,6661.853478,6291.750507,1302.362347
155.549321,5329.482782,8586.388927,1455.581446
155.549642,4959.379811,9696.697840,0.000000
155.549962,5625.565159,8586.388927,-383.047749
155.550283,6439.791695,6661.853478,0.000000
155.550603,6661.853478,6143.709319,612.876398
155.550924,4737.318029,7254.018232,306.438199
155.551245,4145.153275,8438.347739,-1149.143247
155.551565,3627.009116,7624.121203,-1915.238745
155.551886,4737.318029,6957.935855,-306.438199
155.552206,5773.606348,7402.059420,612.876398
155.552527,4663.297435,9326.594869,1225.752797
155.552847,3478.967927,10288.862594,0.000000
155.553168,3849.070898,9400.615463,-459.657299
155.553489,4145.153275,8068.244768,459.657299
155.553809,4737.318029,6217.729913,612.876398
155.554130,4885.359217,7105.977043,689.485948
155.554450,4589.276840,8290.306550,-612.876398
155.554771,3108.864956,8216.285956,-1378.971896
155.555091,3849.070898,6809.894666,-1072.533697
155.555412,6365.771101,7476.080014,306.438199
155.555733,5329.482782,8882.471304,1302.362347
155.556053,4737.318029,9548.656652,229.828649
155.556374,5477.523971,8290.306550,-153.219100
155.556694,4737.318029,6439.791695,-1378.971896
155.557015,5699.585753,5181.441594,306.438199
155.557336,5847.626942,6513.812290,1149.143247
155.557656,5403.503377,7624.121203,153.219100
155.557977,5847.626942,8660.409521,-1532.190996
155.558297,5551.544565,7772.162391,-1915.238745
155.558618,5477.523971,6439.791695,-1378.971896
155.558938,6217.729913,7476.080014,459.657299
155.559259,5181.441594,8512.368333,229.828649
155.559580,5181.441594,9400.615463,-306.438199
155.559900,4811.338623,8142.265362,-995.924147
155.560221,5921.647536,7105.977043,-995.924147
155.560541,6069.688724,8142.265362,0.000000
155.560862,4071.132681,9400.615463,76.609550
155.561182,4515.256246,10436.903782,-1685.410096
155.561503,4737.318029,8586.388927,-1225.752797
155.561824,4885.359217,6069.688724,-153.219100
155.562144,5699.585753,6587.832884,1608.800546
155.562465,3849.070898,9844.739029,1225.752797
155.562785,2516.700203,12213.398043,-766.095498
155.563106,2960.823768,10732.986159,-1302.362347
155.563427,5403.503377,7994.224174,-229.828649
155.563747,7105.977043,7402.059420,1915.238745
155.564068,5107.421000,7179.997637,2374.896044
155.564388,3552.988522,8068.244768,-995.924147
155.564709,4441.235652,8364.327145,-2604.724693
155.565029,4811.338623,7624.121203,-995.924147
155.565350,7105.977043,7105.977043,383.047749
155.565671,7698.141797,8068.244768,612.876398
155.565991,5995.668130,10066.800811,-919.314598
155.566312,5107.421000,10214.842000,-2221.676944
155.566632,5181.441594,7179.997637,-1532.190996
155.566953,6883.915261,4885.359217,-306.438199
155.567273,7402.059420,5847.626942,1302.362347
155.567594,5477.523971,7772.162391,-536.266849
155.567915,5107.421000,9474.636058,-2681.334243
155.568235,4811.338623,9030.512492,-2604.724693
155.568556,6069.688724,6809.894666,-766.095498
155.568876,7624.121203,6069.688724,1225.752797
155.569197,5625.565159,7402.059420,1608.800546
155.569518,4145.153275,9252.574275,-1072.533697
155.569838,3108.864956,8290.306550,-2145.067394
155.570159,4071.132681,6883.915261,-1455.581446
155.570479,5255.462188,7105.977043,1378.971896
155.570800,4811.338623,9326.594869,2911.162892
155.571120,4293.194464,11399.171507,0.000000
155.571441,2220.617826,10214.842000,-1532.190996
155.571762,2590.720797,8290.306550,-995.924147
155.572082,3997.112087,6735.874072,842.705048
155.572403,3552.988522,7328.038826,2451.505594
155.572723,2738.761985,8586.388927,1608.800546
155.573044,3404.947333,9474.636058,153.219100
155.573364,3775.050304,7772.162391,-842.705048
155.573685,5403.503377,6291.750507,0.000000
155.574006,5625.565159,7402.059420,-306.438199
155.574326,4885.359217,8660.409521,-383.047749
155.574647,5551.544565,9548.656652,-1532.190996
155.574967,6291.750507,7994.224174,-2068.457845
155.575288,7031.956449,6883.915261,-1378.971896
155.575609,7920.203579,7698.141797,919.314598
155.575929,5107.421000,9252.574275,-689.485948
155.576250,3849.070898,10140.821405,-2451.505594
155.576570,4959.379811,8882.471304,-995.924147
155.576891,6957.935855,7105.977043,1225.752797
155.577211,6439.791695,6513.812290,1991.848295
155.577532,4293.194464,8438.347739,995.924147
155.577853,2368.659014,9770.718434,-1838.629195
155.578173,2294.638420,9030.512492,-1762.019645
155.578494,3923.091493,7550.100608,1608.800546
155.578814,5921.647536,7105.977043,3370.820191
155.579135,4737.318029,8068.244768,2374.896044
155.579455,2590.720797,9992.780217,-76.609550
155.579776,2886.803174,11103.089130,-1302.362347
155.580097,2960.823768,7994.224174,-459.657299
155.580417,5477.523971,6439.791695,612.876398
155.580738,5847.626942,6957.935855,1532.190996
155.581058,3701.029710,9030.512492,1072.533697
155.581379,3330.926739,9844.739029,-229.828649
155.581700,3997.112087,7846.182985,-306.438199
155.582020,5181.441594,6143.709319,-1149.143247
155.582341,6513.812290,6809.894666,383.047749
155.582661,6217.729913,8290.306550,459.657299
155.582982,6143.709319,9844.739029,-1225.752797
155.583302,5921.647536,7328.038826,-612.876398
155.583623,6809.894666,5403.503377,-229.828649
155.583944,7105.977043,4811.338623,0.000000
155.584264,5921.647536,7550.100608,-612.876398
155.584585,4959.379811,9474.636058,-2374.896044
155.584905,6291.750507,8068.244768,-2604.724693
155.585226,7624.121203,6069.688724,-919.314598
155.585546,7105.977043,5477.523971,689.485948
155.585867,5255.462188,7105.977043,536.266849
155.586188,3997.112087,10214.842000,-459.657299
155.586508,2812.782580,9548.656652,-1685.410096
155.586829,4663.297435,7550.100608,-689.485948
155.587149,6735.874072,7550.100608,689.485948
155.587470,4811.338623,9104.533087,-229.828649
155.587791,2516.700203,11251.130318,-842.705048
155.588111,1850.514855,10658.965565,-1302.362347
155.588432,3182.885551,8216.285956,-229.828649
155.588752,4367.215058,5773.606348,2221.676944
155.589073,3997.112087,7031.956449,1685.410096
155.589393,2220.617826,9770.718434,0.000000
155.589714,1924.535449,11769.274478,-1072.533697
155.590035,3775.050304,9474.636058,-536.266849
155.590355,6291.750507,7031.956449,536.266849
155.590676,6365.771101,7031.956449,1072.533697
155.590996,4737.318029,10362.883188,-842.705048
155.591317,3997.112087,10955.047942,-2528.115143
155.591638,4737.318029,9474.636058,-2834.553343
155.591958,7105.977043,6735.874072,-919.314598
155.592279,7624.121203,6217.729913,1149.143247
155.592599,6957.935855,8808.450710,1225.752797
155.592920,3849.070898,10066.800811,-1455.581446
155.593240,3849.070898,8438.347739,-3064.381992
155.593561,6883.915261,5625.565159,-1685.410096
155.593882,7772.162391,5255.462188,612.876398
155.594202,6069.688724,7105.977043,689.485948
155.594523,4959.379811,9252.574275,-306.438199
155.594843,5107.421000,9992.780217,-1225.752797
155.595164,5181.441594,7772.162391,-536.266849
155.595484,5181.441594,5403.503377,306.438199
155.595805,5403.503377,6957.935855,1072.533697
155.596126,4737.318029,10732.986159,0.000000
155.596446,1998.556043,10288.862594,-383.047749
155.596767,4219.173869,6957.935855,-536.266849
155.597087,5773.606348,5625.565159,-153.219100
155.597408,3627.009116,6809.894666,612.876398
155.597729,1924.535449,9474.636058,842.705048
155.598049,2738.761985,10214.842000,0.000000
155.598370,3701.029710,7920.203579,-153.219100
155.598690,5921.647536,6587.832884,1225.752797
155.599011,6513.812290,7105.977043,1149.143247
155.599331,3923.091493,9104.533087,-689.485948
155.599652,3330.926739,10584.944971,-1225.752797
155.599973,4737.318029,8216.285956,-306.438199
155.600293,7624.121203,5995.668130,842.705048
155.600614,7402.059420,5847.626942,1915.238745
155.600934,5181.441594,8586.388927,0.000000
155.601255,3552.988522,9770.718434,-1532.190996
155.601575,4441.235652,7698.141797,-1915.238745
155.601896,7254.018232,5551.544565,-919.314598
155.602217,7254.018232,4663.297435,459.657299
155.602537,5551.544565,6661.853478,919.314598
155.602858,4219.173869,10658.965565,0.000000
155.603178,3701.029710,11029.068536,-919.314598
155.603499,5033.400406,9622.677246,229.828649
155.603820,7031.956449,7624.121203,689.485948
155.604140,5255.462188,8216.285956,689.485948
155.604461,3404.947333,10288.862594,76.609550
155.604781,2368.659014,9622.677246,-459.657299
155.605102,3997.112087,6809.894666,-689.485948
155.605422,4885.359217,5995.668130,766.095498
155.605743,4589.276840,7920.203579,2068.457845
155.606064,3404.947333,9696.697840,1149.143247
155.606384,2960.823768,9474.636058,0.000000
155.606705,4441.235652,8216.285956,0.000000
155.607025,6143.709319,6661.853478,612.876398
155.607346,6217.729913,6661.853478,536.266849
155.607666,5329.482782,9030.512492,0.000000
155.607987,4441.235652,10288.862594,-689.485948
155.608308,4959.379811,8142.265362,-689.485948
155.608628,7254.018232,6291.750507,0.000000
155.608949,6661.853478,6291.750507,919.314598
155.609269,6069.688724,7846.182985,76.609550
155.609590,5551.544565,8734.430116,-1378.971896
155.609911,5625.565159,7105.977043,-1991.848295
155.610231,6661.853478,5477.523971,-689.485948
155.610552,6513.812290,5403.503377,383.047749
155.610872,5403.503377,7254.018232,-153.219100
155.611193,4367.215058,9992.780217,-1225.752797
155.611513,4367.215058,9622.677246,-689.485948
155.611834,5403.503377,7402.059420,-766.095498
155.612155,6365.771101,6883.915261,0.000000
155.612475,4737.318029,8438.347739,536.266849
155.612796,2886.803174,10881.027347,-1455.581446
155.613116,3404.947333,10140.821405,-1378.971896
155.613437,4811.338623,7772.162391,-612.876398
155.613757,5255.462188,6217.729913,229.828649
155.614078,5255.462188,7846.182985,1072.533697
155.614399,4885.359217,9696.697840,-76.609550
155.614719,2886.803174,8882.471304,-1149.143247
155.615040,4589.276840,6661.853478,-612.876398
155.615360,7328.038826,6143.709319,919.314598
155.615681,6587.832884,8290.306550,1532.190996
155.616002,4737.318029,9178.553681,0.000000
155.616322,5773.606348,9844.739029,-1915.238745
155.616643,5995.668130,8734.430116,-1991.848295
155.616963,6291.750507,6513.812290,0.000000
155.617284,7328.038826,6143.709319,919.314598
155.617604,7031.956449,7994.224174,-153.219100
155.617925,5033.400406,9992.780217,-1532.190996
155.618246,4959.379811,8586.388927,-2145.067394
155.618566,6587.832884,6365.771101,-2451.505594
155.618887,6513.812290,7105.977043,-229.828649
155.619207,4737.318029,9696.697840,1685.410096
155.619528,4071.132681,10807.006753,0.000000
155.619848,3849.070898,9992.780217,-459.657299
155.620169,4219.173869,8438.347739,229.828649
155.620490,4441.235652,8512.368333,1302.362347
155.620810,3552.988522,8808.450710,2145.067394
155.621131,2516.700203,9400.615463,459.657299
155.621451,2220.617826,8956.491898,-229.828649
155.621772,2886.803174,6883.915261,612.876398
155.622093,4367.215058,5921.647536,1685.410096
155.622413,3701.029710,7772.162391,2145.067394
155.622734,3182.885551,9622.677246,689.485948
155.623054,3923.091493,9548.656652,-383.047749
155.623375,4737.318029,7550.100608,-459.657299
155.623695,6957.935855,6513.812290,76.609550
155.624016,7105.977043,7105.977043,766.095498
155.624337,5921.647536,7846.182985,-459.657299
155.624657,4959.379811,8068.244768,-1762.019645
155.624978,5847.626942,7550.100608,-1072.533697
155.625298,7179.997637,6143.709319,0.000000
155.625619,7550.100608,6439.791695,842.705048
155.625939,6513.812290,7105.977043,-459.657299
155.626260,5625.565159,8068.244768,-1685.410096
155.626581,4959.379811,6365.771101,-1225.752797
155.626901,6291.750507,4663.297435,0.000000
155.627222,7179.997637,5625.565159,1685.410096
155.627542,4737.318029,7031.956449,842.705048
155.627863,4219.173869,8290.306550,-1225.752797
155.628184,4441.235652,9104.533087,-1685.410096
155.628504,4737.318029,7698.141797,-766.095498
155.628825,6365.771101,7846.182985,689.485948
155.629145,5773.606348,7994.224174,919.314598
155.629466,3256.906145,9326.594869,-612.876398
155.629786,2516.700203,9252.574275,-536.266849
155.630107,4145.153275,7476.080014,0.000000
155.630428,4885.359217,6069.688724,383.047749
155.630748,5625.565159,7402.059420,1532.190996
155.631069,5255.462188,9326.594869,766.095498
155.631389,4663.297435,9400.615463,-1072.533697
155.631710,4737.318029,7846.182985,-689.485948
155.632030,7105.977043,7254.018232,76.609550
155.632351,7031.956449,7846.182985,306.438199
155.632672,5921.647536,9400.615463,459.657299
155.632992,5255.462188,9622.677246,-1149.143247
155.633313,5329.482782,8586.388927,-1378.971896
155.633633,7105.977043,7698.141797,536.266849
155.633954,6291.750507,7105.977043,612.876398
155.634275,4441.235652,8512.368333,-383.047749
155.634595,4737.318029,9548.656652,-1072.533697
155.634916,4737.318029,9178.553681,-995.924147
155.635236,5329.482782,6957.935855,-612.876398
155.635557,6809.894666,6735.874072,689.485948
155.635877,5329.482782,8586.388927,1149.143247
155.636198,2590.720797,10807.006753,-995.924147
155.636519,3775.050304,10881.027347,-306.438199
155.636839,5551.544565,8216.285956,-383.047749
155.637160,6069.688724,6735.874072,459.657299
155.637480,4737.318029,7772.162391,612.876398
155.637801,3552.988522,9030.512492,-1838.629195
155.638121,2442.679609,8512.368333,-2451.505594
155.638442,3923.091493,7402.059420,-229.828649
155.638763,6069.688724,6661.853478,995.924147
155.639083,6735.874072,7105.977043,1915.238745
155.639404,4071.132681,9104.533087,0.000000
155.639724,3775.050304,9548.656652,-1838.629195
155.640045,4737.318029,7772.162391,-919.314598
155.640366,6143.709319,5995.668130,76.609550
155.640686,5773.606348,6809.894666,459.657299
155.641007,4367.215058,7698.141797,153.219100
155.641327,3701.029710,8808.450710,-919.314598
155.641648,3775.050304,7550.100608,-995.924147
155.641968,5329.482782,7179.997637,-383.047749
155.642289,6957.935855,7624.121203,153.219100
155.642610,5033.400406,8068.244768,-459.657299
155.642930,4071.132681,8438.347739,-1532.190996
155.643251,4737.318029,7994.224174,-383.047749
155.643571,5181.441594,6735.874072,995.924147
155.643892,5477.523971,6883.915261,766.095498
155.644212,4663.297435,8290.306550,-306.438199
155.644533,5255.462188,10881.027347,-689.485948
155.644854,4441.235652,9104.533087,-459.657299
155.645174,5255.462188,6069.688724,-689.485948
155.645495,6809.894666,6735.874072,689.485948
155.645815,5033.400406,8216.285956,766.095498
155.646136,3923.091493,9326.594869,0.000000
155.646457,4811.338623,8438.347739,-612.876398
155.646777,5773.606348,5773.606348,-459.657299
155.647098,7254.018232,5625.565159,1608.800546
155.647419,6587.832884,7550.100608,1149.143247
155.647739,4441.235652,9844.739029,-995.924147
155.648060,4367.215058,9696.697840,-1608.800546
155.648381,6365.771101,6661.853478,-995.924147
155.648701,7254.018232,6069.688724,612.876398
155.649022,6291.750507,7920.203579,1455.581446
155.649342,4367.215058,10214.842000,-995.924147
155.649663,3552.988522,10955.047942,-2145.067394
155.649984,4737.318029,7994.224174,-1072.533697
155.650304,6809.894666,5921.647536,1225.752797
155.650625,6291.750507,6069.688724,1225.752797
155.650946,4293.194464,9030.512492,-612.876398
155.651266,2812.782580,10510.924376,-1455.581446
155.651587,3256.906145,7698.141797,-1838.629195
155.651908,6365.771101,6069.688724,842.705048
155.652228,6439.791695,6957.935855,2451.505594
155.652549,3256.906145,9030.512492,689.485948
155.652869,2516.700203,10807.006753,-1455.581446
155.653190,3478.967927,9992.780217,-1455.581446
155.653511,4293.194464,7624.121203,76.609550
155.653831,5551.544565,6809.894666,1685.410096
155.654152,4367.215058,7772.162391,1225.752797
155.654473,3478.967927,9696.697840,-919.314598
155.654793,2664.741391,8438.347739,-1072.533697
155.655114,4589.276840,5995.668130,-612.876398
155.655434,6809.894666,6661.853478,383.047749
155.655755,5181.441594,8734.430116,1072.533697
155.656076,4663.297435,10066.800811,0.000000
155.656396,5921.647536,9178.553681,-1149.143247
155.656717,5625.565159,6883.915261,-1225.752797
155.657038,6069.688724,5255.462188,-612.876398
155.657358,6143.709319,7476.080014,153.219100
155.657679,4959.379811,9844.739029,-995.924147
155.658000,4589.276840,10214.842000,-1378.971896
155.658320,5773.606348,7328.038826,-1302.362347
155.658641,6809.894666,5773.606348,-689.485948
155.658961,5181.441594,7624.121203,459.657299
155.659282,3256.906145,9844.739029,229.828649
155.659603,3330.926739,9548.656652,-1149.143247
155.659923,4219.173869,6661.853478,-536.266849
155.660244,6217.729913,5403.503377,1378.971896
155.660565,6217.729913,7328.038826,1455.581446
155.660885,2886.803174,10288.862594,0.000000
155.661206,2442.679609,11547.212695,-2221.676944
155.661527,3701.029710,9400.615463,-1762.019645
155.661847,6291.750507,6809.894666,919.314598
155.662168,7105.977043,6957.935855,2451.505594
155.662488,3997.112087,9400.615463,459.657299
155.662809,2220.617826,11399.171507,-3064.381992
155.663130,2886.803174,9400.615463,-2681.334243
155.663450,5551.544565,6587.832884,-536.266849
155.663771,7476.080014,6291.750507,2911.162892
155.664092,5847.626942,7772.162391,2834.553343
155.664412,3108.864956,9992.780217,-995.924147
155.664733,2812.782580,9104.533087,-1991.848295
155.665054,5699.585753,7179.997637,-383.047749
155.665374,8438.347739,5107.421000,1762.019645
155.665695,8142.265362,6513.812290,1302.362347
155.666015,5551.544565,8512.368333,-995.924147
155.666336,4071.132681,9770.718434,-2451.505594
155.666657,4441.235652,7328.038826,-1302.362347
155.666977,7772.162391,5847.626942,0.000000
155.667298,8068.244768,6809.894666,306.438199
155.667619,4959.379811,8808.450710,-995.924147
155.667939,4367.215058,9918.759623,-2068.457845
155.668260,4515.256246,8512.368333,-306.438199
155.668581,4885.359217,6291.750507,536.266849
155.668901,6143.709319,6735.874072,1608.800546
155.669222,4441.235652,9400.615463,536.266849
155.669542,2368.659014,11103.089130,-612.876398
155.669863,1850.514855,9696.697840,-1149.143247
155.670184,3775.050304,6883.915261,-459.657299
155.670504,5033.400406,6513.812290,2145.067394
155.670825,3627.009116,7772.162391,2298.286494
155.671146,2294.638420,9400.615463,-1225.752797
155.671466,3404.947333,8734.430116,-1608.800546
155.671787,4367.215058,7254.018232,0.000000
155.672107,6143.709319,7328.038826,1608.800546
155.672428,5847.626942,8956.491898,2374.896044
155.672749,4219.173869,9992.780217,0.000000
155.673069,5033.400406,9178.553681,-1532.190996
155.673390,5847.626942,6439.791695,-1378.971896
155.673711,6735.874072,6217.729913,-306.438199
155.674031,6365.771101,7105.977043,76.609550
155.674352,5107.421000,9252.574275,-995.924147
155.674673,4811.338623,9696.697840,-1762.019645
155.674993,5181.441594,7105.977043,-612.876398
155.675314,6587.832884,5921.647536,229.828649
155.675634,6291.750507,6957.935855,1072.533697
155.675955,3627.009116,9178.553681,-306.438199
155.676276,3849.070898,10066.800811,-1608.800546
155.676596,4811.338623,8068.244768,-612.876398
155.676917,6513.812290,6439.791695,536.266849
155.677238,7328.038826,7254.018232,1455.581446
155.677558,3627.009116,8438.347739,-919.314598
155.677879,1850.514855,9770.718434,-2374.896044
155.678200,3404.947333,9696.697840,-459.657299
155.678520,4737.318029,8438.347739,1915.238745
155.678841,5329.482782,7476.080014,2681.334243
155.679161,5625.565159,8364.327145,1608.800546
155.679482,3182.885551,10362.883188,-1455.581446
155.679803,2294.638420,8660.409521,-2374.896044
155.680123,4589.276840,5847.626942,153.219100
155.680444,7179.997637,5995.668130,2221.676944
155.680765,6291.750507,8142.265362,1838.629195
155.681085,4441.235652,10436.903782,306.438199
155.681406,4663.297435,9992.780217,-2834.553343
155.681727,5181.441594,7328.038826,-2145.067394
155.682047,6513.812290,5773.606348,1225.752797
155.682368,7994.224174,6143.709319,1378.971896
155.682688,6069.688724,8364.327145,-536.266849
155.683009,3627.009116,9252.574275,-2528.115143
155.683330,4663.297435,7920.203579,-2451.505594
155.683650,6069.688724,6291.750507,0.000000
155.683971,6217.729913,7105.977043,1378.971896
155.684292,5181.441594,9104.533087,306.438199
155.684612,3404.947333,10288.862594,-2221.676944
155.684933,4071.132681,8586.388927,-1532.190996
155.685254,5477.523971,7328.038826,229.828649
155.685574,5551.544565,7179.997637,1455.581446
155.685895,4071.132681,9030.512492,229.828649
155.686215,2368.659014,10510.924376,-995.924147
155.686536,2738.761985,9474.636058,-1072.533697
155.686857,5551.544565,7550.100608,842.705048
155.687177,5773.606348,6883.915261,1915.238745
155.687498,4071.132681,8290.306550,0.000000
155.687819,2738.761985,9474.636058,-1685.410096
155.688139,3108.864956,8808.450710,-1532.190996
155.688460,5773.606348,6661.853478,612.876398
155.688780,7105.977043,7031.956449,1991.848295
155.689101,5477.523971,8512.368333,536.266849
155.689422,3404.947333,11029.068536,-1608.800546
155.689742,3330.926739,9770.718434,-1762.019645
155.690063,4959.379811,7476.080014,0.000000
155.690384,7328.038826,5625.565159,1608.800546
155.690704,5995.668130,6513.812290,766.095498
155.691025,4219.173869,9400.615463,-1685.410096
155.691346,3923.091493,9548.656652,-2451.505594
155.691666,5255.462188,7994.224174,-1455.581446
155.691987,6735.874072,5625.565159,536.266849
155.692307,6587.832884,6661.853478,1225.752797
155.692628,4663.297435,9622.677246,-383.047749
155.692949,3108.864956,10732.986159,-1608.800546
155.693269,4293.194464,8512.368333,-995.924147
155.693590,6365.771101,6587.832884,459.657299
155.693911,6513.812290,7254.018232,1762.019645
155.694231,4219.173869,9104.533087,842.705048
155.694552,2886.803174,9844.739029,-1608.800546
155.694873,3849.070898,7772.162391,-919.314598
155.695193,5921.647536,6587.832884,459.657299
155.695514,6661.853478,6661.853478,1225.752797
155.695834,5255.462188,8808.450710,612.876398
155.696155,3997.112087,10881.027347,-766.095498
155.696476,3923.091493,8734.430116,-459.657299
155.696796,5847.626942,6217.729913,689.485948
155.697117,7920.203579,5773.606348,1991.848295
155.697438,6069.688724,7179.997637,1225.752797
155.697758,4515.256246,8290.306550,-1225.752797
155.698079,4441.235652,7994.224174,-1685.410096
155.698400,5921.647536,6883.915261,-306.438199
155.698720,6957.935855,6439.791695,1225.752797
155.699041,6587.832884,6439.791695,766.095498
155.699361,6069.688724,8512.368333,-1838.629195
155.699682,4515.256246,9474.636058,-1838.629195
155.700003,4071.132681,6883.915261,-536.266849
155.700323,6809.894666,5773.606348,612.876398
155.700644,6809.894666,7698.141797,919.314598
155.700965,4367.215058,10066.800811,-383.047749
155.701285,3997.112087,9844.739029,-2298.286494
155.701606,4737.318029,7698.141797,-2604.724693
155.701927,5181.441594,6661.853478,0.000000
155.702247,5699.585753,7105.977043,2374.896044
155.702568,4959.379811,8882.471304,1149.143247
155.702888,3404.947333,9474.636058,-842.705048
155.703209,3627.009116,8142.265362,-1072.533697
155.703530,5403.503377,7105.977043,153.219100
155.703850,5625.565159,7402.059420,919.314598
155.704171,4885.359217,9178.553681,612.876398
155.704492,3478.967927,9918.759623,-842.705048
155.704812,3849.070898,8660.409521,-1302.362347
155.705133,4811.338623,7105.977043,383.047749
155.705453,4811.338623,7105.977043,1072.533697
155.705774,4145.153275,9474.636058,0.000000
155.706095,3256.906145,10732.986159,-1225.752797
155.706415,3108.864956,9770.718434,-1685.410096
155.706736,6439.791695,7179.997637,76.609550
155.707057,7031.956449,6291.750507,1302.362347
155.707377,3997.112087,6735.874072,153.219100
155.707698,2886.803174,8586.388927,-1455.581446
155.708019,3849.070898,10214.842000,-1762.019645
155.708339,3923.091493,8882.471304,-995.924147
155.708660,7624.121203,6883.915261,383.047749
155.708980,8956.491898,7994.224174,689.485948
155.709301,3627.009116,9326.594869,-1072.533697
155.709622,2516.700203,9178.553681,-1378.971896
155.709942,5107.421000,8216.285956,76.609550
155.710263,6217.729913,6809.894666,1455.581446
155.710584,6957.935855,7105.977043,2298.286494
155.710904,6365.771101,8512.368333,229.828649
155.711225,3923.091493,9474.636058,-2604.724693
155.711546,2886.803174,7994.224174,-1225.752797
155.711866,4885.359217,5329.482782,766.095498
155.712187,7105.977043,5773.606348,1532.190996
155.712507,5995.668130,8734.430116,2145.067394
155.712828,3182.885551,10288.862594,-1149.143247
155.713149,3034.844362,9548.656652,-2528.115143
155.713469,4811.338623,7698.141797,0.000000
155.713790,6513.812290,7179.997637,2451.505594
155.714111,5847.626942,7476.080014,2298.286494
155.714431,4737.318029,8290.306550,-306.438199
155.714752,3701.029710,7920.203579,-2987.772442
155.715073,4293.194464,5995.668130,-1608.800546
155.715393,6957.935855,6143.709319,536.266849
155.715714,7031.956449,7328.038826,612.876398
155.716034,5625.565159,8586.388927,-612.876398
155.716355,5625.565159,9104.533087,-1302.362347
155.716676,5625.565159,7254.018232,-459.657299
155.716996,6661.853478,5847.626942,689.485948
155.717317,6957.935855,6513.812290,766.095498
155.717638,6069.688724,8734.430116,-842.705048
155.717958,5921.647536,9178.553681,-2451.505594
155.718279,5921.647536,7105.977043,-689.485948
155.718600,6957.935855,5847.626942,229.828649
155.718920,7105.977043,6513.812290,919.314598
155.719241,4441.235652,7920.203579,-1149.143247
155.719561,3923.091493,8660.409521,-2221.676944
155.719882,5033.400406,8586.388927,-842.705048
155.720203,5847.626942,7920.203579,1072.533697
155.720523,6143.709319,7994.224174,1455.581446
155.720844,5107.421000,9770.718434,0.000000
155.721165,2812.782580,11325.150913,-1991.848295
155.721485,2368.659014,9474.636058,-2221.676944
155.721806,4071.132681,7105.977043,612.876398
155.722126,4737.318029,6069.688724,2298.286494
155.722447,4515.256246,8216.285956,1608.800546
155.722768,2738.761985,10510.924376,-459.657299
155.723088,1776.494261,9844.739029,-2987.772442
155.723409,4145.153275,8068.244768,-1455.581446
155.723730,7031.956449,7328.038826,1838.629195
155.724050,6365.771101,8364.327145,1762.019645
155.724371,5181.441594,9474.636058,0.000000
155.724692,4441.235652,9474.636058,-2987.772442
155.725012,5921.647536,8142.265362,-3140.991542
155.725333,7254.018232,6809.894666,229.828649
155.725653,7772.162391,7179.997637,229.828649
155.725974,6143.709319,8808.450710,-919.314598
155.726295,4663.297435,9104.533087,-1302.362347
155.726615,4959.379811,7772.162391,-536.266849
155.726936,6587.832884,6143.709319,1072.533697
155.727257,6439.791695,7254.018232,1149.143247
155.727577,4441.235652,9030.512492,-153.219100
155.727898,3108.864956,9918.759623,-1991.848295
155.728219,4219.173869,9252.574275,-1225.752797
155.728539,4959.379811,7179.997637,1532.190996
155.728860,5255.462188,6957.935855,2145.067394
155.729180,3701.029710,9400.615463,0.000000
155.729501,1406.391290,10732.986159,-1302.362347
155.729822,1850.514855,9548.656652,-995.924147
155.730142,4959.379811,7550.100608,995.924147
155.730463,5625.565159,6735.874072,1838.629195
155.730784,3923.091493,8142.265362,1455.581446
155.731104,2812.782580,9918.759623,-995.924147
155.731425,2664.741391,9326.594869,-1685.410096
155.731746,4589.276840,7031.956449,-612.876398
155.732066,6809.894666,5477.523971,1532.190996
155.732387,7105.977043,6957.935855,1302.362347
155.732707,5033.400406,9696.697840,-306.438199
155.733028,4145.153275,9474.636058,-1838.629195
155.733349,5699.585753,6809.894666,-1225.752797
155.733669,8364.327145,4959.379811,306.438199
155.733990,8068.244768,5329.482782,1072.533697
155.734311,5921.647536,7994.224174,-612.876398
155.734631,5107.421000,8586.388927,-2451.505594
155.734952,5773.606348,7179.997637,-2221.676944
155.735273,7476.080014,5921.647536,0.000000
155.735593,7328.038826,7031.956449,1302.362347
155.735914,5921.647536,9474.636058,383.047749
155.736234,2960.823768,10140.821405,-1991.848295
155.736555,3775.050304,7624.121203,-1378.971896
155.736876,5551.544565,5847.626942,995.924147
155.737196,5551.544565,6513.812290,2834.553343
155.737517,3478.967927,9474.636058,1838.629195
155.737838,2960.823768,10881.027347,-766.095498
155.738158,3256.906145,9178.553681,-1608.800546
155.738479,4737.318029,6069.688724,383.047749
155.738800,5477.523971,5773.606348,2528.115143
155.739120,4293.194464,8956.491898,1608.800546
155.739441,2442.679609,10807.006753,-306.438199
155.739761,3478.967927,9474.636058,-1149.143247
155.740082,6587.832884,6735.874072,0.000000
155.740403,6735.874072,6809.894666,536.266849
155.740723,5255.462188,8438.347739,-459.657299
155.741044,3701.029710,9844.739029,-1685.410096
155.741365,4441.235652,9178.553681,-1915.238745
155.741685,6217.729913,6069.688724,0.000000
155.742006,7476.080014,5181.441594,842.705048
155.742326,6069.688724,6883.915261,-612.876398
155.742647,3552.988522,10140.821405,-2068.457845
155.742968,3701.029710,10288.862594,-1915.238745
155.743288,5921.647536,7698.141797,-689.485948
155.743609,7846.182985,5921.647536,1149.143247
155.743930,7402.059420,7476.080014,-153.219100
155.744250,4145.153275,10510.924376,-995.924147
155.744571,1628.453072,10881.027347,-2987.772442
155.744892,2960.823768,8216.285956,-2068.457845
155.745212,5995.668130,5995.668130,842.705048
155.745533,6439.791695,6809.894666,3140.991542
155.745853,3775.050304,10362.883188,1915.238745
155.746174,1406.391290,11473.192101,-995.924147
155.746495,1924.535449,9548.656652,-1991.848295
155.746815,4071.132681,6365.771101,229.828649
155.747136,5625.565159,6217.729913,2911.162892
155.747456,5921.647536,8216.285956,2604.724693
155.747777,3775.050304,9696.697840,0.000000
155.748098,2812.782580,8660.409521,-2451.505594
155.748418,4737.318029,6291.750507,-1608.800546
155.748739,5921.647536,5847.626942,689.485948
155.749059,6513.812290,7994.224174,1532.190996
155.749380,6217.729913,10066.800811,-229.828649
155.749701,4885.359217,9770.718434,-2298.286494
155.750021,5551.544565,7179.997637,-1302.362347
155.750342,7105.977043,5921.647536,383.047749
155.750662,5699.585753,7105.977043,76.609550
155.750983,4515.256246,8586.388927,-1072.533697
155.751304,4811.338623,8956.491898,-1685.410096
155.751624,5625.565159,7550.100608,-612.876398
155.751945,6439.791695,6143.709319,689.485948
155.752265,6957.935855,7328.038826,1072.533697
155.752586,4663.297435,10362.883188,0.000000
155.752907,2886.803174,10584.944971,-1455.581446
155.753227,4293.194464,7328.038826,0.000000
155.753548,6069.688724,5477.523971,1149.143247
155.753868,5477.523971,6809.894666,2145.067394
155.754189,3034.844362,9844.739029,919.314598
155.754510,2294.638420,11177.109724,-1762.019645
155.754830,3478.967927,9696.697840,-1685.410096
155.755151,5033.400406,8216.285956,1378.971896
155.755471,5255.462188,6439.791695,2604.724693
155.755792,3404.947333,7772.162391,1608.800546
155.756113,2738.761985,9400.615463,0.000000
155.756433,2220.617826,8808.450710,-1225.752797
155.756754,4737.318029,6661.853478,-612.876398
155.757074,7254.018232,6069.688724,995.924147
155.757395,6735.874072,8216.285956,1302.362347
155.757716,3627.009116,9178.553681,-919.314598
155.758036,3552.988522,7920.203579,-2451.505594
155.758357,5921.647536,6883.915261,-1608.800546
155.758677,6513.812290,6217.729913,76.609550
155.758998,6587.832884,7698.141797,536.266849
155.759319,6809.894666,9844.739029,-1302.362347
155.759639,3997.112087,10658.965565,-2528.115143
155.759960,3627.009116,7994.224174,-1991.848295
155.760280,7179.997637,6439.791695,0.000000
155.760601,7105.977043,7328.038826,1149.143247
155.760922,3775.050304,9548.656652,306.438199
155.761242,3404.947333,10510.924376,-995.924147
155.761563,3404.947333,7994.224174,-2298.286494
155.761883,3923.091493,6957.935855,229.828649
155.762204,5329.482782,7624.121203,3753.867940
155.762525,4663.297435,9474.636058,1455.581446
155.762845,3034.844362,10362.883188,-766.095498
155.763166,3108.864956,9844.739029,-1762.019645
155.763486,5107.421000,7846.182985,-229.828649
155.763807,5699.585753,6883.915261,1838.629195
155.764128,5551.544565,8290.306550,1762.019645
155.764448,4441.235652,9622.677246,0.000000
155.764769,3701.029710,8142.265362,-1149.143247
155.765089,5107.421000,5995.668130,-612.876398
155.765410,7031.956449,6069.688724,919.314598
155.765731,6957.935855,8142.265362,153.219100
155.766051,5033.400406,9918.759623,-1915.238745
155.766372,5403.503377,9400.615463,-2145.067394
155.766692,7476.080014,7994.224174,-919.314598
155.767013,7994.224174,6291.750507,1915.238745
155.767334,6735.874072,6291.750507,1149.143247
155.767654,5255.462188,8586.388927,-1762.019645
155.767975,4367.215058,9474.636058,-2834.553343
155.768295,4515.256246,7698.141797,-1685.410096
155.768616,7328.038826,5699.585753,76.609550
155.768937,7179.997637,6217.729913,1149.143247
155.769257,4663.297435,9178.553681,229.828649
155.769578,2516.700203,9770.718434,-612.876398
155.769898,3182.885551,7920.203579,-995.924147
155.770219,5181.441594,6365.771101,1302.362347
155.770540,5995.668130,6291.750507,2681.334243
155.770860,5181.441594,9548.656652,919.314598
155.771181,3182.885551,10732.986159,-1072.533697
155.771501,2368.659014,8956.491898,-1838.629195
155.771822,4737.318029,5921.647536,-536.266849
155.772143,6587.832884,5033.400406,2451.505594
155.772463,5699.585753,7772.162391,2834.553343
155.772784,3478.967927,9400.615463,-459.657299
155.773104,4145.153275,8364.327145,-2451.505594
155.773425,5847.626942,6439.791695,-1455.581446
155.773746,7402.059420,5625.565159,1072.533697
155.774066,7402.059420,6883.915261,1685.410096
155.774387,6217.729913,9622.677246,-1532.190996
155.774707,4293.194464,10658.965565,-3524.039291
155.775028,4441.235652,8216.285956,-2451.505594
155.775349,6439.791695,5699.585753,229.828649
155.775669,7179.997637,6809.894666,1378.971896
155.775990,4293.194464,10436.903782,1225.752797
155.776310,1924.535449,10584.944971,-1378.971896
155.776631,4367.215058,7920.203579,-1378.971896
155.776952,6143.709319,5699.585753,766.095498
155.777272,5181.441594,6513.812290,2221.676944
155.777593,3775.050304,9770.718434,689.485948
155.777913,2368.659014,11399.171507,-1915.238745
155.778234,2812.782580,8660.409521,-1685.410096
155.778555,7328.038826,6513.812290,1455.581446
155.778875,6513.812290,7254.018232,1762.019645
155.779196,2886.803174,10288.862594,0.000000
155.779516,1776.494261,11991.336260,-1225.752797
155.779837,3108.864956,10066.800811,-995.924147
155.780158,5551.544565,6661.853478,1838.629195
155.780478,6957.935855,5921.647536,2987.772442
155.780799,5107.421000,8216.285956,0.000000
155.781119,2220.617826,9696.697840,-2528.115143
155.781440,2368.659014,9030.512492,-2528.115143
155.781761,6661.853478,7031.956449,-842.705048
155.782081,9400.615463,4589.276840,1608.800546
155.782402,7254.018232,7550.100608,1225.752797
155.782722,4663.297435,10214.842000,-1608.800546
155.783043,2960.823768,9474.636058,-2451.505594
155.783364,4885.359217,6957.935855,-1532.190996
155.783684,7698.141797,5255.462188,612.876398
155.784005,8068.244768,6439.791695,1302.362347
155.784325,5181.441594,9696.697840,-229.828649
155.784646,3478.967927,9992.780217,-2757.943793
155.784967,4663.297435,7624.121203,-2911.162892
155.785287,7254.018232,5699.585753,-76.609550
155.785608,6661.853478,6365.771101,2757.943793
155.785928,5181.441594,9474.636058,1302.362347
155.786249,4071.132681,10362.883188,-229.828649
155.786570,4071.132681,8216.285956,-1302.362347
155.786890,6291.750507,5995.668130,0.000000
155.787211,5699.585753,6661.853478,1302.362347
155.787531,4145.153275,8364.327145,612.876398
155.787852,3478.967927,9400.615463,-766.095498
155.788173,3923.091493,7698.141797,-1149.143247
155.788493,6365.771101,6217.729913,459.657299
155.788814,6957.935855,6439.791695,1915.238745
155.789134,5329.482782,8438.347739,76.609550
155.789455,4737.318029,10288.862594,-1302.362347
155.789776,5329.482782,8290.306550,-1302.362347
155.790096,7254.018232,5403.503377,0.000000
155.790417,8660.409521,5403.503377,1302.362347
155.790737,5477.523971,7328.038826,76.609550
155.791058,3627.009116,9474.636058,-2145.067394
155.791379,4663.297435,9252.574275,-2068.457845
155.791699,7105.977043,7254.018232,-689.485948
155.792020,8068.244768,6513.812290,689.485948
155.792340,6735.874072,7105.977043,536.266849
155.792661,4737.318029,9844.739029,-1072.533697
155.792982,3552.988522,9918.759623,-1378.971896
155.793302,4367.215058,6587.832884,459.657299
155.793623,6587.832884,5551.544565,1532.190996
155.793943,5921.647536,8586.388927,1762.019645
155.794264,2368.659014,11473.192101,0.000000
155.794585,1036.288319,11103.089130,-2374.896044
155.794905,4145.153275,7772.162391,-1532.190996
155.795226,5625.565159,6587.832884,1378.971896
155.795546,4515.256246,6735.874072,2374.896044
155.795867,4515.256246,9696.697840,1532.190996
155.796188,2220.617826,10584.944971,-1072.533697
155.796508,2368.659014,8660.409521,-1072.533697
155.796829,6217.729913,6735.874072,1072.533697
155.797149,6735.874072,6883.915261,842.705048
155.797470,4441.235652,8512.368333,0.000000
155.797791,4441.235652,9474.636058,-1532.190996
155.798111,4885.359217,8068.244768,-3140.991542
155.798432,5477.523971,5921.647536,-1455.581446
155.798752,7105.977043,6365.771101,536.266849
155.799073,7031.956449,9104.533087,536.266849
155.799394,4589.276840,10807.006753,-842.705048
155.799714,4589.276840,9178.553681,-1302.362347
155.800035,5033.400406,5625.565159,-995.924147
155.800355,6513.812290,5181.441594,383.047749
155.800676,5181.441594,7402.059420,1225.752797
155.800997,4071.132681,9918.759623,-1838.629195
155.801317,4293.194464,9178.553681,-3217.601092
155.801638,4737.318029,6513.812290,-995.924147
155.801958,6217.729913,5255.462188,1608.800546
155.802279,5403.503377,7328.038826,2911.162892
155.802600,3849.070898,10955.047942,1072.533697
155.802920,3849.070898,11843.295072,-1915.238745
155.803241,4663.297435,9252.574275,-1838.629195
155.803561,6217.729913,5847.626942,1225.752797
155.803882,6217.729913,5921.647536,2911.162892
155.804203,4441.235652,7994.224174,1302.362347
155.804523,2516.700203,8808.450710,-2298.286494
155.804844,3775.050304,7254.018232,-2528.115143
155.805164,6661.853478,5921.647536,-306.438199
155.805485,7772.162391,7254.018232,1915.238745
155.805806,6957.935855,9104.533087,1302.362347
155.806126,5477.523971,10288.862594,-1685.410096
155.806447,5255.462188,8438.347739,-2145.067394
155.806767,6735.874072,5699.585753,-612.876398
155.807088,7254.018232,4959.379811,995.924147
155.807409,6143.709319,7254.018232,76.609550
155.807729,4663.297435,9992.780217,-1532.190996
155.808050,4441.235652,9992.780217,-2528.115143
155.808370,5699.585753,7550.100608,-842.705048
155.808691,7476.080014,6217.729913,1838.629195
155.809012,5181.441594,7328.038826,1532.190996
155.809332,2590.720797,9622.677246,-995.924147
155.809653,2146.597232,9696.697840,-1532.190996
155.809973,3404.947333,7846.182985,-306.438199
155.810294,5477.523971,6365.771101,1608.800546
155.810615,5699.585753,8216.285956,2528.115143
155.810935,2664.741391,10955.047942,536.266849
155.811256,1184.329507,11103.089130,-1915.238745
155.811576,2516.700203,8438.347739,-1378.971896
155.811897,5699.585753,7105.977043,689.485948
155.812218,5921.647536,7994.224174,2451.505594
155.812538,4145.153275,9770.718434,919.314598
155.812859,3478.967927,10658.965565,-1532.190996
155.813179,3552.988522,9104.533087,-1762.019645
155.813500,5847.626942,6217.729913,0.000000
155.813821,7846.182985,5107.421000,2145.067394
155.814141,6365.771101,6439.791695,842.705048
155.814462,4589.276840,7994.224174,-919.314598
155.814782,5403.503377,7846.182985,-1608.800546
155.815103,6439.791695,5921.647536,-1072.533697
155.815424,8956.491898,6291.750507,919.314598
155.815744,8438.347739,7550.100608,689.485948
155.816065,4737.318029,8660.409521,-2528.115143
155.816385,3701.029710,7550.100608,-2911.162892
155.816706,5921.647536,6735.874072,-459.657299
155.817027,6661.853478,5921.647536,1378.971896
155.817347,6217.729913,7476.080014,995.924147
155.817668,5255.462188,10510.924376,-2221.676944
155.817988,2368.659014,10658.965565,-3600.648841
155.818309,2590.720797,7698.141797,-689.485948
155.818630,5625.565159,6217.729913,2451.505594
155.818950,6069.688724,7698.141797,2528.115143
155.819271,3701.029710,10732.986159,536.266849
155.819591,1406.391290,11695.253884,-1991.848295
155.819912,1702.473667,8438.347739,-2298.286494
155.820233,4145.153275,6809.894666,2221.676944
155.820553,5255.462188,6957.935855,4443.353888
155.820874,4589.276840,8586.388927,1532.190996
155.821194,2590.720797,9178.553681,-1915.238745
155.821515,3330.926739,7846.182985,-3064.381992
155.821836,5847.626942,6809.894666,-612.876398
155.822156,6957.935855,6883.915261,1532.190996
155.822477,7179.997637,9622.677246,153.219100
155.822797,5995.668130,11399.171507,-1915.238745
155.823118,4663.297435,9548.656652,-1991.848295
155.823439,6809.894666,6513.812290,-306.438199
155.823759,7624.121203,5477.523971,1532.190996
155.824080,6439.791695,7698.141797,383.047749
155.824400,4219.173869,9474.636058,-1838.629195
155.824721,3182.885551,8882.471304,-2528.115143
155.825042,6069.688724,7254.018232,-229.828649
155.825362,7105.977043,6439.791695,3064.381992
155.825683,4885.359217,7476.080014,1608.800546
155.826003,4071.132681,10362.883188,-1225.752797
155.826324,2294.638420,10288.862594,-2145.067394
155.826645,3478.967927,7772.162391,0.000000
155.826965,5329.482782,5773.606348,2681.334243
155.827286,5181.441594,6957.935855,2528.115143
155.827606,3552.988522,10140.821405,153.219100
155.827927,1998.556043,10955.047942,-1838.629195
155.828248,3256.906145,8734.430116,-1991.848295
155.828568,6069.688724,6513.812290,612.876398
155.828889,5921.647536,6143.709319,3217.601092
155.829209,5477.523971,8660.409521,919.314598
155.829530,3997.112087,9992.780217,-1532.190996
155.829851,3478.967927,7624.121203,-2374.896044
155.830171,6365.771101,5033.400406,-612.876398
155.830492,7920.203579,4959.379811,2374.896044
155.830812,6513.812290,8142.265362,1149.143247
155.831133,4367.215058,9770.718434,-1072.533697
155.831454,4811.338623,7772.162391,-2681.334243
155.831774,7179.997637,5625.565159,-1455.581446
155.832095,7698.141797,4737.318029,1302.362347
155.832415,6291.750507,7624.121203,842.705048
155.832736,5107.421000,10288.862594,-1608.800546
155.833057,3256.906145,9400.615463,-2834.553343
155.833377,5699.585753,7402.059420,-1685.410096
155.833698,7624.121203,5773.606348,766.095498
155.834018,6291.750507,7624.121203,1762.019645
155.834339,4071.132681,9696.697840,-383.047749
155.834660,1406.391290,9844.739029,-2221.676944
155.834980,2590.720797,7698.141797,-766.095498
155.835301,5255.462188,6217.729913,2681.334243
155.835621,4959.379811,7624.121203,3064.381992
155.835942,2664.741391,11029.068536,919.314598
155.836263,2368.659014,11843.295072,-1302.362347
155.836583,2368.659014,9252.574275,-1608.800546
155.836904,4737.318029,6291.750507,919.314598
155.837224,5995.668130,7328.038826,2451.505594
155.837545,4145.153275,10658.965565,459.657299
155.837866,1924.535449,11251.130318,-2604.724693
155.838186,3701.029710,8438.347739,-2911.162892
155.838507,6365.771101,5551.544565,-229.828649
155.838827,5995.668130,6661.853478,2834.553343
155.839148,5477.523971,9030.512492,1838.629195
155.839469,4441.235652,10214.842000,-1378.971896
155.839789,5181.441594,8882.471304,-3064.381992
155.840110,6883.915261,6661.853478,-1378.971896
155.840430,7550.100608,5551.544565,0.000000
155.840751,6365.771101,6291.750507,153.219100
155.841072,4885.359217,8956.491898,0.000000
155.841392,5033.400406,8586.388927,-1378.971896
155.841713,5033.400406,6587.832884,-1532.190996
155.842033,5773.606348,5181.441594,-229.828649
155.842354,6661.853478,9104.533087,76.609550
155.842675,3849.070898,11621.233289,-306.438199
155.842995,2368.659014,10807.006753,-2221.676944
155.843316,5033.400406,7402.059420,-1225.752797
155.843636,4663.297435,6217.729913,1149.143247
155.843957,3404.947333,8142.265362,2757.943793
155.844278,2368.659014,10955.047942,1532.190996
155.844598,1776.494261,10732.986159,-1608.800546
155.844919,2812.782580,7698.141797,-842.705048
155.845239,4811.338623,5847.626942,1838.629195
155.845560,5477.523971,7550.100608,2451.505594
155.845881,3108.864956,10288.862594,1915.238745
155.846201,2442.679609,10288.862594,-1072.533697
155.846522,4145.153275,7105.977043,-2298.286494
155.846842,5551.544565,4367.215058,76.609550
155.847163,7179.997637,4737.318029,3294.210641
155.847484,7476.080014,8364.327145,1685.410096
155.847805,6291.750507,10436.903782,-2221.676944
155.848126,7179.997637,8882.471304,-4136.915689
155.848446,8512.368333,5551.544565,-2757.943793
155.848767,9696.697840,4071.132681,536.266849
155.849088,8660.409521,6365.771101,2221.676944
155.849408,5995.668130,8438.347739,-536.266849
155.849729,4959.379811,8290.306550,-3294.210641
155.850050,6365.771101,5847.626942,-2298.286494
155.850370,7550.100608,5403.503377,153.219100
155.850691,7105.977043,7698.141797,1685.410096
155.851012,4219.173869,10066.800811,76.609550
155.851333,3849.070898,9474.636058,-2221.676944
155.851653,3997.112087,7402.059420,-842.705048
155.851974,4811.338623,5995.668130,1455.581446
155.852295,4441.235652,7550.100608,2834.553343
155.852615,3330.926739,11103.089130,842.705048
155.852936,1702.473667,11621.233289,-1455.581446
155.853257,2072.576638,8438.347739,-1608.800546
155.853577,4367.215058,5921.647536,153.219100
155.853898,5107.421000,7698.141797,2374.896044
155.854219,2368.659014,10362.883188,1762.019645
155.854540,1480.411884,11769.274478,-919.314598
155.854860,3034.844362,9918.759623,-2298.286494
155.855181,4885.359217,7105.977043,76.609550
155.855502,5847.626942,5995.668130,2911.162892
155.855822,5773.606348,8216.285956,2528.115143
155.856143,4071.132681,10362.883188,-689.485948
155.856464,4441.235652,9770.718434,-2221.676944
155.856784,6735.874072,6883.915261,-2374.896044
155.857105,7698.141797,4737.318029,-153.219100
155.857426,6143.709319,6957.935855,1302.362347
155.857746,4663.297435,10584.944971,-306.438199
155.858067,3330.926739,8882.471304,-3064.381992
155.858388,6957.935855,6661.853478,-2681.334243
155.858709,9104.533087,6217.729913,153.219100
155.859029,5995.668130,7994.224174,689.485948
155.859350,4293.194464,10066.800811,-536.266849
155.859671,3330.926739,11177.109724,-1608.800546
155.859991,4589.276840,7920.203579,-842.705048
155.860312,5699.585753,5255.462188,1455.581446
155.860633,5107.421000,6513.812290,1608.800546
155.860953,2368.659014,9252.574275,-689.485948
155.861274,0.000000,10288.862594,-1455.581446
155.861595,2368.659014,8364.327145,-1378.971896
155.861915,6291.750507,6809.894666,1072.533697
155.862236,5699.585753,6735.874072,3677.258390
155.862557,4663.297435,9252.574275,1762.019645
155.862878,2812.782580,10955.047942,-1455.581446
155.863198,2516.700203,8808.450710,-1225.752797
155.863519,6661.853478,5995.668130,919.314598
155.863840,8438.347739,5699.585753,1608.800546
155.864160,5625.565159,8364.327145,459.657299
155.864481,4293.194464,9622.677246,-1149.143247
155.864802,4589.276840,7402.059420,-2834.553343
155.865122,6957.935855,5181.441594,-1455.581446
155.865443,7698.141797,4145.153275,689.485948
155.865764,7105.977043,7105.977043,306.438199
155.866084,5625.565159,10214.842000,-536.266849
155.866405,4145.153275,9104.533087,-919.314598
155.866726,6513.812290,5847.626942,-919.314598
155.867047,8808.450710,4515.256246,-383.047749
155.867367,7254.018232,6217.729913,-612.876398
155.867688,4959.379811,9992.780217,-1455.581446
155.868009,4515.256246,10066.800811,-2451.505594
155.868329,5181.441594,7254.018232,-1762.019645
155.868650,7328.038826,5329.482782,229.828649
155.868971,6513.812290,7624.121203,1378.971896
155.869291,4441.235652,11399.171507,229.828649
155.869612,2368.659014,11769.274478,-995.924147
155.869933,3775.050304,8068.244768,-383.047749
155.870253,6513.812290,4737.318029,1838.629195
155.870574,5773.606348,5921.647536,3140.991542
155.870895,3404.947333,9548.656652,1455.581446
155.871216,1628.453072,10732.986159,-1762.019645
155.871536,2664.741391,8364.327145,-2374.896044
155.871857,6217.729913,6513.812290,153.219100
155.872178,7476.080014,7105.977043,2987.772442
155.872498,5921.647536,9992.780217,1149.143247
155.872819,3108.864956,11547.212695,-2145.067394
155.873140,3552.988522,9252.574275,-2681.334243
155.873460,6291.750507,6365.771101,-1072.533697
155.873781,7624.121203,5625.565159,1149.143247
155.874102,6809.894666,8808.450710,306.438199
155.874422,4145.153275,11251.130318,-2145.067394
155.874743,2072.576638,9326.594869,-2987.772442
155.875064,5255.462188,6069.688724,-689.485948
155.875385,7402.059420,4737.318029,1225.752797
155.875705,5181.441594,7624.121203,1608.800546
155.876026,4219.173869,11695.253884,-842.705048
155.876347,2442.679609,11177.109724,-2451.505594
155.876667,3478.967927,7698.141797,-842.705048
155.876988,5847.626942,7105.977043,2451.505594
155.877309,4737.318029,8512.368333,2528.115143
155.877629,2516.700203,11473.192101,-153.219100
155.877950,2368.659014,11251.130318,-2451.505594
155.878271,2664.741391,7179.997637,-2604.724693
155.878591,5181.441594,4737.318029,0.000000
155.878912,4737.318029,6069.688724,2528.115143
155.879233,3997.112087,9918.759623,1685.410096
155.879554,2812.782580,11547.212695,-229.828649
155.879874,4145.153275,9548.656652,-1072.533697
155.880195,5847.626942,5551.544565,383.047749
155.880516,6217.729913,5403.503377,2221.676944
155.880836,5921.647536,8512.368333,1608.800546
155.881157,4885.359217,10214.842000,-1455.581446
155.881478,3997.112087,7031.956449,-2987.772442
155.881798,7772.162391,3701.029710,-2451.505594
155.882119,8512.368333,4737.318029,0.000000
155.882440,6069.688724,7698.141797,1072.533697
155.882760,5255.462188,11103.089130,-1072.533697
155.883081,5477.523971,9696.697840,-2374.896044
155.883402,7179.997637,5255.462188,-919.314598
155.883723,8882.471304,3404.947333,2604.724693
155.884043,6661.853478,5625.565159,1838.629195
155.884364,4959.379811,10362.883188,-1072.533697
155.884685,2738.761985,10955.047942,-2681.334243
155.885005,4811.338623,7994.224174,-3294.210641
155.885326,8290.306550,5551.544565,1455.581446
155.885647,6883.915261,6809.894666,4290.134789
155.885967,3478.967927,8660.409521,1685.410096
155.886288,1776.494261,9474.636058,-1915.238745
155.886609,3182.885551,8068.244768,-2528.115143
155.886929,6291.750507,7105.977043,842.705048
155.887250,7031.956449,7328.038826,3294.210641
155.887571,4737.318029,9474.636058,1072.533697
155.887892,2960.823768,11177.109724,-2145.067394
155.888212,2738.761985,9104.533087,-1991.848295
155.888533,4885.359217,6217.729913,-689.485948
155.888854,7105.977043,5255.462188,1838.629195
155.889174,6587.832884,8956.491898,1149.143247
155.889495,3701.029710,11621.233289,-995.924147
155.889816,2516.700203,9400.615463,-2528.115143
155.890136,5255.462188,6291.750507,-1915.238745
155.890457,6883.915261,5033.400406,612.876398
155.890778,5921.647536,7550.100608,1762.019645
155.891098,3404.947333,10658.965565,-306.438199
155.891419,2738.761985,9844.739029,-3217.601092
155.891740,5033.400406,7402.059420,-2145.067394
155.892061,6883.915261,6291.750507,-612.876398
155.892381,7031.956449,8068.244768,229.828649
155.892702,5181.441594,11325.150913,-536.266849
155.893023,2812.782580,11769.274478,-2374.896044
155.893343,3627.009116,8216.285956,-1149.143247
155.893664,6883.915261,6587.832884,1455.581446
155.893985,5625.565159,7698.141797,2221.676944
155.894305,2886.803174,10658.965565,1532.190996
155.894626,2294.638420,10362.883188,-766.095498
155.894947,2812.782580,7624.121203,-1991.848295
155.895267,4811.338623,5477.523971,919.314598
155.895588,6143.709319,7105.977043,2681.334243
155.895909,4145.153275,10288.862594,1225.752797
155.896230,1258.350101,11547.212695,-1302.362347
155.896550,2664.741391,9770.718434,-1532.190996
155.896871,6957.935855,7254.018232,1532.190996
155.897192,6809.894666,6365.771101,3140.991542
155.897512,5551.544565,8512.368333,1225.752797
155.897833,3997.112087,10066.800811,-2451.505594
155.898154,2368.659014,8808.450710,-4213.525239
155.898474,5625.565159,5551.544565,-1378.971896
155.898795,7994.224174,4959.379811,1915.238745
155.899116,7772.162391,7846.182985,1685.410096
155.899436,4959.379811,10140.821405,-306.438199
155.899757,3108.864956,8512.368333,-2528.115143
155.900078,5181.441594,5847.626942,-2374.896044
155.900399,7179.997637,4663.297435,1608.800546
155.900719,7328.038826,7031.956449,2145.067394
155.901040,6217.729913,9770.718434,-306.438199
155.901361,3627.009116,8586.388927,-2681.334243
155.901681,4959.379811,7105.977043,-2528.115143
155.902002,6809.894666,5773.606348,1455.581446
155.902323,6143.709319,7031.956449,2374.896044
155.902643,5477.523971,9918.759623,536.266849
155.902964,3330.926739,10288.862594,-1225.752797
155.903285,3775.050304,6883.915261,-536.266849
155.903606,6365.771101,4737.318029,2451.505594
155.903926,5921.647536,5477.523971,3064.381992
155.904247,4589.276840,10436.903782,229.828649
155.904568,2294.638420,10955.047942,-2221.676944
155.904888,2960.823768,7254.018232,-2987.772442
155.905209,7105.977043,5107.421000,919.314598
155.905530,7328.038826,6069.688724,3983.696590
155.905850,5477.523971,9474.636058,919.314598
155.906171,3923.091493,11695.253884,-2757.943793
155.906492,3627.009116,9104.533087,-3830.477490
155.906812,6439.791695,5329.482782,-689.485948
155.907133,8512.368333,4219.173869,3064.381992
155.907454,6883.915261,7772.162391,1532.190996
155.907775,3552.988522,10214.842000,-1915.238745
155.908095,3701.029710,9326.594869,-4213.525239
155.908416,6291.750507,7105.977043,-2681.334243
155.908737,7402.059420,5329.482782,1149.143247
155.909057,6883.915261,7698.141797,2757.943793
155.909378,4959.379811,11251.130318,153.219100
155.909699,2516.700203,11177.109724,-2451.505594
155.910019,3330.926739,7846.182985,-1608.800546
155.910340,6217.729913,5773.606348,1302.362347
155.910661,5329.482782,7402.059420,3524.039291
155.910981,2886.803174,10436.903782,1225.752797
155.911302,1702.473667,10807.006753,-2528.115143
155.911623,2664.741391,8216.285956,-3370.820191
155.911944,4737.318029,6513.812290,306.438199
155.912264,5181.441594,8142.265362,3064.381992
155.912585,4219.173869,11399.171507,1685.410096
155.912906,2442.679609,12509.480420,-1991.848295
155.913226,3182.885551,10066.800811,-2528.115143
155.913547,5625.565159,7179.997637,0.000000
155.913868,6291.750507,6883.915261,2374.896044
155.914188,4737.318029,8512.368333,2145.067394
155.914509,3404.947333,9844.739029,-1685.410096
155.914830,3404.947333,8290.306550,-3753.867940
155.915150,5107.421000,5625.565159,-1685.410096
155.915471,6439.791695,5107.421000,1225.752797
155.915792,5847.626942,8068.244768,2145.067394
155.916113,4737.318029,10807.006753,306.438199
155.916433,5625.565159,9622.677246,-1838.629195
155.916754,6439.791695,6069.688724,-2145.067394
155.917075,7846.182985,4811.338623,-459.657299
155.917395,7105.977043,7402.059420,766.095498
155.917716,5033.400406,9548.656652,-306.438199
155.918037,4367.215058,8660.409521,-1302.362347
155.918357,7624.121203,6735.874072,-995.924147
155.918678,7920.203579,6291.750507,919.314598
155.918999,5255.462188,7328.038826,842.705048
155.919319,3775.050304,9622.677246,229.828649
155.919640,3034.844362,9622.677246,-383.047749
155.919961,4293.194464,7105.977043,0.000000
155.920282,6513.812290,5551.544565,1838.629195
155.920602,6217.729913,6439.791695,1378.971896
155.920923,3478.967927,9844.739029,689.485948
155.921244,2368.659014,11177.109724,-229.828649
155.921564,4737.318029,8438.347739,-995.924147
155.921885,7105.977043,4737.318029,919.314598
155.922206,7772.162391,4219.173869,2451.505594
155.922526,8142.265362,7402.059420,1685.410096
155.922847,5551.544565,8808.450710,-459.657299
155.923168,6291.750507,6735.874072,-2221.676944
155.923488,10066.800811,3775.050304,-1608.800546
155.923809,11177.109724,2220.617826,1302.362347
155.924130,11029.068536,4811.338623,2451.505594
155.924451,9992.780217,7179.997637,689.485948
155.924771,8586.388927,6439.791695,-3217.601092
155.925092,10881.027347,3849.070898,-3217.601092
155.925413,11991.336260,2368.659014,-842.705048
155.925733,11621.233289,3775.050304,0.000000
155.926054,8956.491898,6439.791695,-229.828649
155.926375,7254.018232,7328.038826,-2374.896044
155.926695,7772.162391,4145.153275,-2221.676944
155.927016,8882.471304,3330.926739,1072.533697
155.927337,8956.491898,4811.338623,2681.334243
155.927657,7254.018232,7920.203579,766.095498
155.927978,7105.977043,9030.512492,-1302.362347
155.928299,6957.935855,7031.956449,-1532.190996
155.928620,7920.203579,4071.132681,689.485948
155.928940,9104.533087,4737.318029,2451.505594
155.929261,7698.141797,7105.977043,1302.362347
155.929582,5107.421000,7772.162391,-842.705048
155.929902,7920.203579,7254.018232,-1225.752797
155.930223,9548.656652,5033.400406,229.828649
155.930544,10214.842000,2886.803174,1532.190996
155.930864,11251.130318,4737.318029,2221.676944
155.931185,10288.862594,7031.956449,-1302.362347
155.931506,9104.533087,5921.647536,-2604.724693
155.931826,12361.439231,4441.235652,-1455.581446
155.932147,13027.624579,2368.659014,153.219100
155.932468,12953.603985,3478.967927,1149.143247
155.932789,12509.480420,5847.626942,0.000000
155.933109,11251.130318,7920.203579,-3524.039291
155.933430,10510.924376,6661.853478,-3600.648841
155.933751,11103.089130,4811.338623,-1378.971896
155.934071,11103.089130,4145.153275,536.266849
155.934392,8734.430116,4959.379811,1225.752797
155.934713,7031.956449,6587.832884,306.438199
155.935033,6661.853478,7624.121203,-2451.505594
155.935354,6513.812290,7550.100608,-2221.676944
155.935675,6957.935855,7920.203579,689.485948
155.935995,6513.812290,7476.080014,2604.724693
155.936316,5255.462188,6883.915261,1838.629195
155.936637,5107.421000,6513.812290,919.314598
155.936958,5181.441594,6069.688724,306.438199
155.937278,5847.626942,6513.812290,766.095498
155.937599,7105.977043,7328.038826,2604.724693
155.937920,7105.977043,6809.894666,1915.238745
155.938240,8586.388927,5921.647536,383.047749
155.938561,10140.821405,4737.318029,-459.657299
155.938882,10214.842000,3478.967927,-1225.752797
155.939202,10807.006753,3034.844362,-229.828649
155.939523,13027.624579,3701.029710,0.000000
155.939844,13397.727550,5107.421000,0.000000
155.940164,13767.830521,5921.647536,-153.219100
155.940485,13027.624579,5995.668130,-919.314598
155.940806,11251.130318,3627.009116,-1302.362347
155.941127,10362.883188,1406.391290,-1072.533697
155.941447,10955.047942,962.267725,-1302.362347
155.941768,11029.068536,2368.659014,-2221.676944
155.942089,10584.944971,4737.318029,-2221.676944
155.942409,9992.780217,7846.182985,-1302.362347
155.942730,8882.471304,8956.491898,-306.438199
155.943051,8142.265362,7105.977043,1225.752797
155.943371,8068.244768,5477.523971,1915.238745
155.943692,6291.750507,3404.947333,1225.752797
155.944013,5181.441594,3034.844362,-229.828649
155.944333,5699.585753,4441.235652,-229.828649
155.944654,6365.771101,6217.729913,536.266849
155.944975,7920.203579,7994.224174,1149.143247
155.945296,8660.409521,8364.327145,1225.752797
155.945616,7772.162391,7031.956449,306.438199
155.945937,7476.080014,4885.359217,1225.752797
155.946258,8068.244768,4145.153275,2374.896044
155.946578,8660.409521,3701.029710,1608.800546
155.946899,10066.800811,4071.132681,-459.657299
155.947220,12139.377449,5255.462188,-1838.629195
155.947540,12361.439231,7179.997637,-2451.505594
155.947861,12065.356855,7624.121203,-2145.067394
155.948182,12139.377449,7179.997637,-919.314598
155.948502,11991.336260,5329.482782,-306.438199
155.948823,11029.068536,4441.235652,0.000000
155.949144,9918.759623,4737.318029,229.828649
155.949464,8290.306550,4663.297435,-1225.752797
155.949785,8364.327145,5033.400406,-1762.019645
155.950106,9400.615463,6365.771101,-1072.533697
155.950426,9696.697840,7402.059420,-1072.533697
155.950747,9252.574275,7476.080014,-842.705048
155.951068,8216.285956,6957.935855,-153.219100
155.951388,7105.977043,5477.523971,1455.581446
155.951709,6809.894666,4663.297435,2374.896044
155.952029,7105.977043,5107.421000,1762.019645
155.952350,7328.038826,6809.894666,-689.485948
155.952671,7920.203579,7550.100608,-1302.362347
155.952991,8734.430116,8142.265362,-1149.143247
155.953312,8660.409521,5625.565159,-229.828649
155.953633,9030.512492,3997.112087,536.266849
155.953953,8882.471304,3923.091493,1072.533697
155.954274,8660.409521,5255.462188,689.485948
155.954595,9400.615463,6217.729913,459.657299
155.954915,9770.718434,5403.503377,76.609550
155.955236,11029.068536,4219.173869,0.000000
155.955557,11103.089130,4071.132681,-306.438199
155.955877,10510.924376,5255.462188,-1302.362347
155.956198,9918.759623,6365.771101,-1915.238745
155.956519,10732.986159,6365.771101,-2145.067394
155.956839,11029.068536,5477.523971,-995.924147
155.957160,10658.965565,4219.173869,0.000000
155.957481,9696.697840,3627.009116,1072.533697
155.957801,9326.594869,3256.906145,0.000000
155.958122,9548.656652,2368.659014,-536.266849
155.958443,10288.862594,1924.535449,-612.876398
155.958763,11547.212695,2220.617826,-459.657299
155.959084,11399.171507,4367.215058,-995.924147
155.959404,11251.130318,5699.585753,-1302.362347
155.959725,11547.212695,6957.935855,-1608.800546
155.960046,11843.295072,6957.935855,-1149.143247
155.960366,11695.253884,6661.853478,-459.657299
155.960687,10732.986159,6069.688724,153.219100
155.961008,9178.553681,5773.606348,919.314598
155.961328,8364.327145,5107.421000,2145.067394
155.961649,7920.203579,4885.359217,2757.943793
155.961970,7994.224174,5255.462188,2757.943793
155.962290,7624.121203,4515.256246,1991.848295
155.962611,6957.935855,4441.235652,1072.533697
155.962932,7105.977043,3701.029710,76.609550
155.963252,8142.265362,3997.112087,-306.438199
155.963573,9178.553681,5625.565159,-229.828649
155.963894,9992.780217,7179.997637,-842.705048
155.964214,10658.965565,7994.224174,-1225.752797
155.964535,10807.006753,8364.327145,-919.314598
155.964856,10807.006753,7476.080014,-229.828649
155.965176,10658.965565,6661.853478,0.000000
155.965497,9918.759623,5107.421000,-383.047749
155.965818,9400.615463,4589.276840,-689.485948
155.966138,9104.533087,3330.926739,-612.876398
155.966459,9178.553681,2812.782580,0.000000
155.966779,9326.594869,3404.947333,229.828649
155.967100,9474.636058,4663.297435,-153.219100
155.967421,9474.636058,6883.915261,-383.047749
155.967741,9400.615463,8290.306550,153.219100
155.968062,8956.491898,8438.347739,766.095498
155.968383,7994.224174,7772.162391,1378.971896
155.968703,6957.935855,8142.265362,1225.752797
155.969024,5329.482782,8142.265362,459.657299
155.969345,4367.215058,7698.141797,-689.485948
155.969665,4737.318029,6735.874072,-995.924147
155.969986,5033.400406,6217.729913,-229.828649
155.970307,4145.153275,6957.935855,842.705048
155.970627,4219.173869,8660.409521,1838.629195
155.970948,4663.297435,9844.739029,2911.162892
155.971269,5329.482782,10288.862594,3830.477490
155.971589,6069.688724,10140.821405,4060.306139
155.971910,6735.874072,8438.347739,3753.867940
155.972231,5403.503377,7846.182985,3294.210641
155.972551,5255.462188,7328.038826,2757.943793
155.972872,5625.565159,7994.224174,2681.334243
155.973193,6661.853478,9400.615463,2451.505594
155.973513,7550.100608,10066.800811,2681.334243
155.973834,7254.018232,9622.677246,3064.381992
155.974155,7328.038826,9030.512492,4290.134789
155.974475,6809.894666,7994.224174,5515.887586
155.974796,7031.956449,7476.080014,4903.011187
155.975116,7624.121203,7402.059420,4519.963438
155.975437,7328.038826,7550.100608,4749.792088
155.975758,7402.059420,8364.327145,5439.278036
155.976078,7698.141797,8882.471304,6435.202183
155.976399,7476.080014,8882.471304,7354.516781
155.976720,6883.915261,7920.203579,7584.345430
155.977040,6513.812290,7402.059420,7584.345430
155.977361,5921.647536,6513.812290,7354.516781
155.977682,5329.482782,5625.565159,7354.516781
155.978002,5625.565159,5033.400406,7048.078582
155.978323,5921.647536,5181.441594,7277.907231
155.978644,5995.668130,7105.977043,6741.640382
155.978964,5699.585753,7772.162391,6205.373534
155.979285,5033.400406,7328.038826,5822.325785
155.979606,4959.379811,6809.894666,6818.249932
155.979926,4515.256246,6365.771101,7201.297681
155.980247,4441.235652,5995.668130,7354.516781
155.980568,3627.009116,5551.544565,7201.297681
155.980888,2886.803174,5625.565159,6588.421283
155.981209,2812.782580,5773.606348,5745.716235
155.981530,2664.741391,5995.668130,6128.763984
155.981850,3330.926739,5551.544565,5975.544884
155.982171,3404.947333,6069.688724,5745.716235
155.982491,4071.132681,6587.832884,6435.202183
155.982812,4071.132681,6513.812290,6358.592633
155.983133,3552.988522,7105.977043,6205.373534
155.983453,4663.297435,7698.141797,6281.983084
155.983774,4589.276840,7994.224174,6052.154434
155.984095,4071.132681,7698.141797,5209.449386
155.984415,3775.050304,7179.997637,4136.915689
155.984736,4071.132681,6143.709319,4749.792088
155.985057,3701.029710,5181.441594,5439.278036
155.985377,3034.844362,5181.441594,4443.353888
155.985698,2960.823768,5551.544565,2911.162892
155.986019,3775.050304,7031.956449,2681.334243
155.986339,4663.297435,8068.244768,3217.601092
155.986660,5477.523971,9178.553681,3753.867940
155.986981,6143.709319,9992.780217,3447.429741
155.987301,6069.688724,10658.965565,2834.553343
155.987622,6957.935855,11103.089130,3524.039291
155.987943,6365.771101,10807.006753,4290.134789
155.988263,6291.750507,10881.027347,4903.011187
155.988584,6069.688724,10955.047942,4826.401637
155.988905,5403.503377,9992.780217,5132.839837
155.989225,4071.132681,7698.141797,4749.792088
155.989546,3627.009116,4885.359217,3600.648841
155.989866,3330.926739,3701.029710,2987.772442
155.990187,3627.009116,4441.235652,1762.019645
155.990508,5255.462188,6735.874072,459.657299
155.990828,7402.059420,10658.965565,0.000000
155.991149,8512.368333,14434.015869,-306.438199
155.991470,9770.718434,16432.571912,842.705048
155.991790,9844.739029,15988.448347,2451.505594
155.992111,8808.450710,13693.809927,4136.915689
155.992432,7624.121203,10584.944971,6128.763984
155.992752,6809.894666,8956.491898,7048.078582
155.993073,4145.153275,7624.121203,5669.106685
155.993394,2738.761985,7105.977043,4596.572988
155.993714,2738.761985,6513.812290,4136.915689
155.994035,2886.803174,5477.523971,4213.525239
155.994356,3849.070898,4663.297435,4366.744339
155.994676,5403.503377,5773.606348,4979.620737
155.994997,5033.400406,8956.491898,4290.134789
155.995318,5033.400406,11547.212695,3753.867940
155.995638,6069.688724,12805.562797,2528.115143
155.995959,7254.018232,13027.624579,1915.238745
155.996280,7698.141797,13101.645173,3447.429741
155.996600,6809.894666,11325.150913,5669.106685
155.996921,4737.318029,8882.471304,6435.202183
155.997242,1998.556043,6365.771101,4903.011187
155.997562,2442.679609,5551.544565,4979.620737
155.997883,2220.617826,5403.503377,4213.525239
155.998203,2516.700203,5181.441594,4519.963438
155.998524,3478.967927,4515.256246,5209.449386
155.998845,5847.626942,4737.318029,6435.202183
155.999165,5033.400406,6883.915261,7660.954980
155.999486,3997.112087,8956.491898,7277.907231
155.999807,4663.297435,9992.780217,5822.325785
156.000127,5329.482782,10658.965565,4673.182538
156.000448,5551.544565,9696.697840,4290.134789
156.000769,5551.544565,7179.997637,6358.592633
156.001089,6069.688724,6883.915261,8503.660028
156.001410,3182.885551,8290.306550,8580.269578
156.001731,1258.350101,9400.615463,6741.640382
156.002051,1332.370696,6957.935855,5822.325785
156.002372,2368.659014,4145.153275,6741.640382
156.002693,2146.597232,2220.617826,9269.755526
156.003013,4145.153275,3330.926739,9499.584175
156.003334,5181.441594,6957.935855,6971.469032
156.003655,3775.050304,9474.636058,4366.744339
156.003975,3627.009116,11177.109724,2528.115143
156.004296,5847.626942,9696.697840,3600.648841
156.004617,5625.565159,6957.935855,5439.278036
156.004937,4145.153275,4885.359217,8886.707777
156.005258,5995.668130,6735.874072,8733.488677
156.005578,5033.400406,10214.842000,6894.859482
156.005899,3552.988522,11769.274478,4903.011187
156.006220,4293.194464,10658.965565,4213.525239
156.006540,5995.668130,8438.347739,4519.963438
156.006861,3404.947333,5477.523971,6665.030833
156.007182,2664.741391,1998.556043,7584.345430
156.007502,3552.988522,1480.411884,6205.373534
156.007823,4219.173869,4071.132681,5669.106685
156.008144,4071.132681,7179.997637,4903.011187
156.008464,5329.482782,10362.883188,3294.210641
156.008785,5551.544565,13693.809927,3370.820191
156.009106,4885.359217,14878.139434,5669.106685
156.009426,5699.585753,12583.501014,7124.688131
156.009747,6365.771101,9992.780217,6435.202183
156.010068,4367.215058,7698.141797,4213.525239
156.010388,2368.659014,4959.379811,2757.943793
156.010709,2886.803174,4737.318029,1455.581446
156.011030,3627.009116,6809.894666,2987.772442
156.011350,4515.256246,9474.636058,4826.401637
156.011671,6513.812290,9844.739029,4519.963438
156.011992,7179.997637,10362.883188,3830.477490
156.012312,5699.585753,9844.739029,3140.991542
156.012633,5551.544565,8956.491898,3524.039291
156.012953,6587.832884,8438.347739,3140.991542
156.013274,6883.915261,8290.306550,4060.306139
156.013595,6587.832884,8586.388927,4290.134789
156.013915,6957.935855,8882.471304,2451.505594
156.014236,6661.853478,9326.594869,689.485948
156.014557,5551.544565,9770.718434,1915.238745
156.014877,4663.297435,9104.533087,3907.087040
156.015198,4367.215058,5773.606348,3830.477490
156.015519,4515.256246,5181.441594,3677.258390
156.015839,3627.009116,6143.709319,2451.505594
156.016160,2886.803174,7328.038826,1225.752797
156.016481,4219.173869,9474.636058,153.219100
156.016801,5699.585753,11029.068536,1225.752797
156.017122,4367.215058,10066.800811,1991.848295
156.017443,4441.235652,9104.533087,2681.334243
156.017763,5107.421000,9474.636058,2834.553343
156.018084,2442.679609,9474.636058,2911.162892
156.018405,2072.576638,8660.409521,995.924147
156.018725,4219.173869,6587.832884,-612.876398
156.019046,4145.153275,5847.626942,459.657299
156.019367,4885.359217,7105.977043,3983.696590
156.019687,4737.318029,7402.059420,3600.648841
156.020008,3923.091493,7476.080014,1149.143247
156.020328,4293.194464,7031.956449,995.924147
156.020649,4885.359217,6069.688724,1838.629195
156.020970,6661.853478,6143.709319,2451.505594
156.021290,7031.956449,8882.471304,1455.581446
156.021611,5403.503377,10510.924376,-919.314598
156.021932,4219.173869,9548.656652,-1378.971896
156.022252,5625.565159,8216.285956,919.314598
156.022573,6069.688724,6513.812290,2068.457845
156.022894,4367.215058,5995.668130,1378.971896
156.023214,4441.235652,7328.038826,-1302.362347
156.023535,3552.988522,9696.697840,-2145.067394
156.023856,2590.720797,9622.677246,306.438199
156.024176,4811.338623,8290.306550,2911.162892
156.024497,6809.894666,8512.368333,3140.991542
156.024818,4737.318029,9474.636058,1532.190996
156.025138,2368.659014,10658.965565,-229.828649
156.025459,3256.906145,10362.883188,-1532.190996
156.025780,4959.379811,9030.512492,766.095498
156.026100,5847.626942,7698.141797,3447.429741
156.026421,5995.668130,6587.832884,2145.067394
156.026742,4293.194464,8734.430116,-153.219100
156.027062,2294.638420,9400.615463,-229.828649
156.027383,3108.864956,6291.750507,229.828649
156.027704,7254.018232,4219.173869,1225.752797
156.028024,7698.141797,4367.215058,1378.971896
156.028345,6661.853478,7179.997637,383.047749
156.028665,6809.894666,10510.924376,-2374.896044
156.028986,5329.482782,10807.006753,-3294.210641
156.029307,5699.585753,8142.265362,-1302.362347
156.029627,9548.656652,7105.977043,1149.143247
156.029948,9030.512492,8956.491898,1991.848295
156.030269,4737.318029,10584.944971,1072.533697
156.030589,2886.803174,10140.821405,-1072.533697
156.030910,2886.803174,7328.038826,-2145.067394
156.031231,2294.638420,4441.235652,612.876398
156.031551,4441.235652,4959.379811,1915.238745
156.031872,5181.441594,9178.553681,-306.438199
156.032193,1628.453072,11473.192101,-1455.581446
156.032513,1036.288319,10362.883188,-995.924147
156.032834,4885.359217,8734.430116,0.000000
156.033155,4737.318029,8734.430116,2145.067394
156.033475,4441.235652,11029.068536,2757.943793
156.033796,4885.359217,13027.624579,-612.876398
156.034117,3849.070898,12213.398043,-2298.286494
156.034437,3627.009116,7846.182985,1072.533697
156.034758,5477.523971,3775.050304,2834.553343
156.035079,5773.606348,4663.297435,1991.848295
156.035399,3552.988522,6957.935855,229.828649
156.035720,3108.864956,7254.018232,-2298.286494
156.036040,5773.606348,5033.400406,-2451.505594
156.036361,7846.182985,4145.153275,689.485948
156.036682,9178.553681,7476.080014,2681.334243
156.037002,8586.388927,11695.253884,-689.485948
156.037323,4737.318029,11917.315666,-4136.915689
156.037644,5181.441594,7550.100608,-3524.039291
156.037964,9622.677246,4959.379811,-306.438199
156.038285,8364.327145,4885.359217,1455.581446
156.038606,4737.318029,7920.203579,-383.047749
156.038926,3775.050304,9696.697840,-3907.087040
156.039247,3404.947333,7846.182985,-4673.182538
156.039568,4441.235652,4515.256246,-536.266849
156.039888,5921.647536,3330.926739,1838.629195
156.040209,5107.421000,6661.853478,689.485948
156.040530,2368.659014,10214.842000,-612.876398
156.040850,2738.761985,9474.636058,-1225.752797
156.041171,6365.771101,7105.977043,-1532.190996
156.041492,6513.812290,6291.750507,-229.828649
156.041812,4441.235652,8216.285956,-459.657299
156.042133,3404.947333,10658.965565,-2834.553343
156.042454,3108.864956,10807.006753,-2834.553343
156.042774,5551.544565,7994.224174,-1991.848295
156.043095,7550.100608,5551.544565,-919.314598
156.043415,6587.832884,6661.853478,-766.095498
156.043736,3108.864956,9104.533087,-1072.533697
156.044057,3330.926739,8364.327145,-1915.238745
156.044377,6587.832884,5699.585753,-2834.553343
156.044698,9030.512492,4515.256246,-1915.238745
156.045019,8364.327145,7846.182985,-1149.143247
156.045339,6365.771101,10955.047942,-1302.362347
156.045660,5551.544565,11547.212695,-2681.334243
156.045981,6143.709319,8882.471304,-3370.820191
156.046301,8660.409521,7328.038826,-2221.676944
156.046622,7920.203579,8068.244768,0.000000
156.046943,5995.668130,11103.089130,0.000000
156.047263,3849.070898,11991.336260,-1915.238745
156.047584,3997.112087,9844.739029,-3447.429741
156.047905,5477.523971,6735.874072,-1455.581446
156.048225,6291.750507,6587.832884,1915.238745
156.048546,4071.132681,9770.718434,2374.896044
156.048867,2368.659014,11473.192101,-383.047749
156.049187,2516.700203,10066.800811,-2374.896044
156.049508,4737.318029,7772.162391,-459.657299
156.049829,6809.894666,8290.306550,2911.162892
156.050149,6809.894666,11251.130318,3524.039291
156.050470,2812.782580,11547.212695,0.000000
156.050791,1554.432478,9326.594869,-1302.362347
156.051112,4737.318029,6809.894666,1302.362347
156.051432,5329.482782,4367.215058,2911.162892
156.051753,5329.482782,5699.585753,919.314598
156.052074,4071.132681,9400.615463,-1455.581446
156.052394,3330.926739,9030.512492,-3217.601092
156.052715,5995.668130,7031.956449,-1762.019645
156.053036,8290.306550,6143.709319,383.047749
156.053357,7846.182985,7624.121203,842.705048
156.053677,5847.626942,9252.574275,76.609550
156.053998,4663.297435,8734.430116,-1685.410096
156.054319,4811.338623,5773.606348,-1838.629195
156.054640,7624.121203,4811.338623,459.657299
156.054960,8142.265362,6217.729913,1532.190996
156.055281,4589.276840,8142.265362,1685.410096
156.055602,2146.597232,7105.977043,612.876398
156.055922,3775.050304,4293.194464,-229.828649
156.056243,4885.359217,1406.391290,383.047749
156.056564,5181.441594,3108.864956,1378.971896
156.056885,4959.379811,7624.121203,0.000000
156.057205,3478.967927,10140.821405,-1378.971896
156.057526,3997.112087,8142.265362,-919.314598
156.057847,7105.977043,5551.544565,-229.828649
156.058167,6513.812290,5699.585753,536.266849
156.058488,4219.173869,8956.491898,-459.657299
156.058809,2886.803174,10807.006753,-2681.334243
156.059130,3849.070898,8438.347739,-3524.039291
156.059450,5551.544565,4589.276840,-1685.410096
156.059771,6513.812290,3997.112087,0.000000
156.060092,4737.318029,6661.853478,-919.314598
156.060413,2664.741391,10140.821405,-2757.943793
156.060733,2812.782580,9474.636058,-3217.601092
156.061054,5995.668130,6217.729913,-2681.334243
156.061375,8290.306550,4811.338623,229.828649
156.061695,6069.688724,7402.059420,1072.533697
156.062016,3701.029710,10436.903782,-2068.457845
156.062337,3404.947333,11103.089130,-5898.935335
156.062658,6069.688724,9992.780217,-6128.763984
156.062978,8068.244768,8438.347739,-2834.553343
156.063299,7402.059420,8142.265362,306.438199
156.063620,5329.482782,11473.192101,0.000000
156.063941,2442.679609,12065.356855,-2221.676944
156.064261,2812.782580,8808.450710,-3217.601092
156.064582,6291.750507,6883.915261,-2911.162892
156.064903,8068.244768,8512.368333,459.657299
156.065223,5551.544565,11473.192101,766.095498
156.065544,4737.318029,12139.377449,-1532.190996
156.065865,5181.441594,10362.883188,-3140.991542
156.066186,6143.709319,7994.224174,-1225.752797
156.066506,7105.977043,8068.244768,919.314598
156.066827,6957.935855,9992.780217,459.657299
156.067148,4441.235652,11917.315666,-919.314598
156.067469,4145.153275,10584.944971,-1685.410096
156.067789,7105.977043,7179.997637,-1455.581446
156.068110,7105.977043,6217.729913,-306.438199
156.068431,6143.709319,9326.594869,-306.438199
156.068751,4737.318029,11621.233289,-2221.676944
156.069072,4145.153275,9104.533087,-3370.820191
156.069393,5477.523971,6883.915261,-1072.533697
156.069714,8290.306550,6735.874072,1532.190996
156.070034,6513.812290,8068.244768,1685.410096
156.070355,4145.153275,9770.718434,-229.828649
156.070676,3849.070898,9844.739029,-1608.800546
156.070997,5181.441594,6957.935855,0.000000
156.071317,6365.771101,4441.235652,1608.800546
156.071638,5995.668130,5033.400406,2834.553343
156.071959,3627.009116,7920.203579,1991.848295
156.072279,2590.720797,8808.450710,306.438199
156.072600,3034.844362,5921.647536,-1455.581446
156.072921,4811.338623,3701.029710,-1608.800546
156.073242,5921.647536,5403.503377,1149.143247
156.073562,4589.276840,8734.430116,1455.581446
156.073883,3330.926739,9770.718434,76.609550
156.074204,4367.215058,8438.347739,0.000000
156.074524,5847.626942,5921.647536,1302.362347
156.074845,5329.482782,5255.462188,1762.019645
156.075166,4145.153275,7402.059420,2374.896044
156.075487,3256.906145,9474.636058,842.705048
156.075807,3923.091493,7846.182985,-459.657299
156.076128,5699.585753,4811.338623,153.219100
156.076449,6439.791695,4367.215058,1915.238745
156.076770,5107.421000,6587.832884,2911.162892
156.077090,3034.844362,8142.265362,2068.457845
156.077411,3034.844362,6513.812290,-919.314598
156.077732,4737.318029,4885.359217,-1608.800546
156.078052,7476.080014,6661.853478,0.000000
156.078373,6217.729913,8660.409521,995.924147
156.078694,4219.173869,10362.883188,0.000000
156.079015,4293.194464,10140.821405,-1149.143247
156.079335,4441.235652,7476.080014,-1685.410096
156.079656,4811.338623,5329.482782,-612.876398
156.079977,5625.565159,6957.935855,1302.362347
156.080298,5181.441594,10881.027347,1455.581446
156.080618,3182.885551,10510.924376,-919.314598
156.080939,4441.235652,8956.491898,-2451.505594
156.081260,5921.647536,7328.038826,-306.438199
156.081580,5625.565159,7772.162391,3524.039291
156.081901,4145.153275,9178.553681,3907.087040
156.082222,2590.720797,9770.718434,0.000000
156.082543,3182.885551,8364.327145,-2374.896044
156.082863,4959.379811,7031.956449,-842.705048
156.083184,6143.709319,7698.141797,766.095498
156.083505,6143.709319,10288.862594,689.485948
156.083826,4293.194464,11695.253884,-1378.971896
156.084146,3627.009116,10362.883188,-3294.210641
156.084467,5033.400406,7772.162391,-1225.752797
156.084788,7476.080014,8068.244768,842.705048
156.085108,6735.874072,9400.615463,229.828649
156.085429,5403.503377,11695.253884,-2604.724693
156.085750,4737.318029,10807.006753,-3677.258390
156.086071,6365.771101,8512.368333,-2068.457845
156.086391,7254.018232,6809.894666,459.657299
156.086712,6439.791695,7772.162391,1608.800546
156.087033,4441.235652,8956.491898,153.219100
156.087354,3034.844362,8068.244768,-1608.800546
156.087674,4145.153275,6217.729913,-2068.457845
156.087995,7402.059420,6587.832884,-229.828649
156.088316,7402.059420,8660.409521,1072.533697
156.088636,4737.318029,11177.109724,0.000000
156.088957,3552.988522,10881.027347,-1455.581446
156.089278,4737.318029,9030.512492,-995.924147
156.089599,5847.626942,6735.874072,76.609550
156.089919,5181.441594,6069.688724,919.314598
156.090240,3997.112087,8438.347739,1149.143247
156.090561,3552.988522,10510.924376,383.047749
156.090881,3182.885551,8734.430116,-306.438199
156.091202,4589.276840,5181.441594,-1072.533697
156.091523,5773.606348,4959.379811,689.485948
156.091844,4737.318029,7920.203579,1838.629195
156.092164,2886.803174,9178.553681,612.876398
156.092485,3997.112087,8216.285956,-1991.848295
156.092806,5329.482782,7328.038826,-1762.019645
156.093127,5699.585753,7994.224174,689.485948
156.093447,7031.956449,9474.636058,2987.772442
156.093768,5181.441594,11325.150913,1378.971896
156.094089,3182.885551,9252.574275,-842.705048
156.094409,3849.070898,5329.482782,-766.095498
156.094730,5033.400406,3552.988522,1225.752797
156.095051,4959.379811,6291.750507,3370.820191
156.095372,4515.256246,10732.986159,2451.505594
156.095692,3108.864956,10214.842000,-766.095498
156.096013,3627.009116,7476.080014,-1608.800546
156.096334,5477.523971,5625.565159,1685.410096
156.096655,5403.503377,6143.709319,4213.525239
156.096975,4441.235652,8142.265362,2451.505594
156.097296,3775.050304,9918.759623,-919.314598
156.097617,4589.276840,10362.883188,-1838.629195
156.097937,5625.565159,8216.285956,995.924147
156.098258,6661.853478,7402.059420,2987.772442
156.098579,5107.421000,9030.512492,4060.306139
156.098900,1776.494261,9474.636058,1302.362347
156.099220,2442.679609,6957.935855,-1302.362347
156.099541,4959.379811,4737.318029,-842.705048
156.099862,6365.771101,4737.318029,2451.505594
156.100183,5033.400406,7476.080014,2757.943793
156.100503,4737.318029,10288.862594,0.000000
156.100824,3108.864956,9992.780217,-1149.143247
156.101145,4959.379811,7402.059420,612.876398
156.101465,8068.244768,6069.688724,2604.724693
