#time,accel_x,accel_y,accel_z
188.946663,5181.441594,8068.244768,0.000000
188.946983,4885.359217,8068.244768,0.000000
188.947304,4885.359217,8068.244768,0.000000
188.947625,4885.359217,8142.265362,-153.219100
188.947945,5033.400406,8068.244768,0.000000
188.948266,4885.359217,7846.182985,0.000000
188.948587,4959.379811,8068.244768,-229.828649
188.948908,5181.441594,7920.203579,0.000000
188.949228,5181.441594,8290.306550,0.000000
188.949549,4959.379811,8142.265362,0.000000
188.949870,5033.400406,7920.203579,-229.828649
188.950190,4737.318029,7994.224174,-306.438199
188.950511,4959.379811,8142.265362,0.000000
188.950832,5255.462188,8142.265362,0.000000
188.951153,5255.462188,7698.141797,0.000000
188.951473,4959.379811,8216.285956,-459.657299
188.951794,4959.379811,7994.224174,-76.609550
188.952115,4811.338623,7994.224174,-229.828649
188.952435,5181.441594,8142.265362,-76.609550
188.952756,4885.359217,8068.244768,0.000000
188.953077,4737.318029,8142.265362,0.000000
188.953398,4885.359217,8068.244768,0.000000
188.953718,5107.421000,8068.244768,-229.828649
188.954039,4737.318029,8216.285956,-153.219100
188.954360,5107.421000,8216.285956,-612.876398
188.954680,4737.318029,7920.203579,-76.609550
188.955001,4885.359217,8142.265362,0.000000
188.955322,5033.400406,7920.203579,-306.438199
188.955643,4959.379811,8068.244768,-306.438199
188.955963,4959.379811,7994.224174,0.000000
188.956284,4811.338623,8216.285956,-306.438199
188.956605,4959.379811,7994.224174,0.000000
188.956926,4663.297435,7920.203579,-383.047749
188.957246,4441.235652,7550.100608,0.000000
188.957567,4219.173869,7550.100608,0.000000
188.957888,4663.297435,8956.491898,-229.828649
188.958208,4441.235652,9400.615463,-536.266849
188.958529,4737.318029,9622.677246,-1149.143247
188.958850,4737.318029,9770.718434,-612.876398
188.959171,4589.276840,9696.697840,-229.828649
188.959491,3997.112087,9326.594869,459.657299
188.959812,3330.926739,7772.162391,459.657299
188.960133,2960.823768,7105.977043,383.047749
188.960453,3627.009116,7550.100608,995.924147
188.960774,3552.988522,8364.327145,383.047749
188.961095,3849.070898,8586.388927,-766.095498
188.961416,4441.235652,8438.347739,-689.485948
188.961736,4663.297435,8438.347739,-229.828649
188.962057,4663.297435,9104.533087,229.828649
188.962378,4145.153275,9030.512492,-536.266849
188.962698,3404.947333,9178.553681,-1455.581446
188.963019,3404.947333,9622.677246,-1149.143247
188.963340,3478.967927,10807.006753,-612.876398
188.963661,2442.679609,10807.006753,-1149.143247
188.963981,1480.411884,9918.759623,-919.314598
188.964302,2220.617826,9992.780217,-229.828649
188.964623,1332.370696,10510.924376,0.000000
188.964944,888.247130,10658.965565,-459.657299
188.965264,888.247130,10214.842000,-306.438199
188.965585,666.185348,9918.759623,536.266849
188.965906,1110.308913,10140.821405,2374.896044
188.966226,740.205942,9992.780217,3064.381992
188.966547,740.205942,10584.944971,459.657299
188.966868,814.226536,10140.821405,-919.314598
188.967189,740.205942,10732.986159,-766.095498
188.967509,1480.411884,9548.656652,-229.828649
188.967830,2738.761985,9326.594869,-153.219100
188.968151,3108.864956,9400.615463,153.219100
188.968471,2368.659014,9918.759623,-153.219100
188.968792,2368.659014,10362.883188,-383.047749
188.969113,2664.741391,9770.718434,-919.314598
188.969434,3997.112087,9548.656652,-383.047749
188.969754,5033.400406,9400.615463,689.485948
188.970075,3775.050304,9474.636058,153.219100
188.970396,3627.009116,8586.388927,-612.876398
188.970716,3849.070898,8438.347739,-919.314598
188.971037,4589.276840,7772.162391,-689.485948
188.971358,4145.153275,7105.977043,0.000000
188.971679,4663.297435,7328.038826,612.876398
188.971999,4959.379811,7105.977043,919.314598
188.972320,5625.565159,7105.977043,766.095498
188.972641,6069.688724,6809.894666,842.705048
188.972962,5699.585753,6069.688724,-383.047749
188.973282,6809.894666,6513.812290,-1149.143247
188.973603,6957.935855,6513.812290,-1378.971896
188.973924,7105.977043,6513.812290,-1072.533697
188.974244,7994.224174,6365.771101,-383.047749
188.974565,7624.121203,6883.915261,-536.266849
188.974886,7105.977043,7328.038826,-766.095498
188.975207,6735.874072,7772.162391,-1149.143247
188.975527,6513.812290,7772.162391,-1532.190996
188.975848,6513.812290,7846.182985,-1455.581446
188.976169,5625.565159,8142.265362,-383.047749
188.976489,5403.503377,7624.121203,0.000000
188.976810,4737.318029,7772.162391,0.000000
188.977131,4737.318029,7624.121203,306.438199
188.977452,4367.215058,8216.285956,766.095498
188.977772,3849.070898,8586.388927,766.095498
188.978093,3849.070898,9104.533087,1072.533697
188.978414,4071.132681,9326.594869,995.924147
188.978734,4293.194464,8734.430116,842.705048
188.979055,4219.173869,7772.162391,0.000000
188.979376,4737.318029,7624.121203,0.000000
188.979697,4441.235652,7698.141797,-76.609550
188.980017,5033.400406,7846.182985,-459.657299
188.980338,5699.585753,7624.121203,0.000000
188.980659,6439.791695,8142.265362,-459.657299
188.980980,6735.874072,8882.471304,-766.095498
188.981300,6513.812290,9104.533087,-1225.752797
188.981621,6143.709319,8956.491898,-1149.143247
188.981942,6069.688724,8216.285956,-842.705048
188.982262,5625.565159,8364.327145,-919.314598
188.982583,4885.359217,8216.285956,-459.657299
188.982904,4367.215058,8660.409521,-766.095498
188.983225,3997.112087,9178.553681,-689.485948
188.983545,3330.926739,9400.615463,-766.095498
188.983866,3182.885551,9326.594869,76.609550
188.984187,2516.700203,9326.594869,229.828649
188.984507,2294.638420,9178.553681,612.876398
188.984828,2072.576638,9030.512492,536.266849
188.985149,2368.659014,8586.388927,919.314598
188.985470,2590.720797,8142.265362,689.485948
188.985790,2812.782580,7994.224174,766.095498
188.986111,3478.967927,8068.244768,229.828649
188.986432,4071.132681,7772.162391,-306.438199
188.986752,4737.318029,7920.203579,-229.828649
188.987073,5625.565159,7550.100608,0.000000
188.987394,6217.729913,7402.059420,-229.828649
188.987715,6809.894666,7031.956449,229.828649
188.988035,6809.894666,6957.935855,-306.438199
188.988356,6883.915261,6587.832884,-536.266849
188.988677,7105.977043,6513.812290,-1072.533697
188.988998,7031.956449,6661.853478,-1532.190996
188.989318,6513.812290,6883.915261,-1608.800546
188.989639,6661.853478,7254.018232,-1302.362347
188.989960,5995.668130,7920.203579,-1302.362347
188.990280,5403.503377,8068.244768,-1072.533697
188.990601,4959.379811,8512.368333,-306.438199
188.990922,4441.235652,9178.553681,-306.438199
188.991243,3627.009116,8660.409521,383.047749
188.991563,3701.029710,8438.347739,383.047749
188.991884,3627.009116,8290.306550,842.705048
188.992205,3552.988522,8142.265362,1072.533697
188.992525,3552.988522,8290.306550,383.047749
188.992846,4145.153275,7846.182985,689.485948
188.993167,4367.215058,7772.162391,459.657299
188.993488,4811.338623,7772.162391,536.266849
188.993808,5181.441594,7846.182985,229.828649
188.994129,5847.626942,7698.141797,459.657299
188.994450,6217.729913,7994.224174,-153.219100
188.994770,6439.791695,8142.265362,-383.047749
188.995091,6439.791695,8290.306550,-766.095498
188.995412,6291.750507,9104.533087,-1225.752797
188.995733,6217.729913,8882.471304,-1378.971896
188.996053,5699.585753,8882.471304,-1225.752797
188.996374,5699.585753,8808.450710,-1149.143247
188.996695,4737.318029,8956.491898,-612.876398
188.997016,4367.215058,8956.491898,-383.047749
188.997336,3627.009116,8734.430116,-306.438199
188.997657,3404.947333,8586.388927,-459.657299
188.997978,3182.885551,8808.450710,0.000000
188.998298,3034.844362,8364.327145,76.609550
188.998619,3108.864956,8142.265362,229.828649
188.998940,3552.988522,8216.285956,229.828649
188.999261,3775.050304,8438.347739,76.609550
188.999581,3849.070898,8290.306550,153.219100
188.999902,4663.297435,8068.244768,0.000000
189.000223,5107.421000,8364.327145,0.000000
189.000543,5699.585753,7772.162391,0.000000
189.000864,5995.668130,7624.121203,-153.219100
189.001185,6439.791695,7476.080014,-919.314598
189.001506,6365.771101,7920.203579,-689.485948
189.001826,6439.791695,7550.100608,-842.705048
189.002147,6513.812290,7550.100608,-1149.143247
189.002468,6365.771101,7402.059420,-229.828649
189.002788,5847.626942,7920.203579,-536.266849
189.003109,5181.441594,8216.285956,-536.266849
189.003430,4737.318029,8142.265362,0.000000
189.003751,4589.276840,8290.306550,0.000000
189.004071,4293.194464,8290.306550,153.219100
189.004392,3923.091493,8512.368333,306.438199
189.004713,3552.988522,8512.368333,919.314598
189.005034,3923.091493,8364.327145,842.705048
189.005354,3849.070898,8142.265362,842.705048
189.005675,4441.235652,7698.141797,459.657299
189.005996,4219.173869,7920.203579,229.828649
189.006316,4663.297435,7846.182985,0.000000
189.006637,5477.523971,7772.162391,0.000000
189.006958,6069.688724,7328.038826,0.000000
189.007279,6513.812290,7402.059420,0.000000
189.007599,6735.874072,7550.100608,-383.047749
189.007920,6513.812290,7846.182985,-306.438199
189.008241,6439.791695,7772.162391,-919.314598
189.008562,6291.750507,7698.141797,-612.876398
189.008882,6291.750507,7328.038826,-229.828649
189.009203,5995.668130,7920.203579,-153.219100
189.009524,5477.523971,8068.244768,-306.438199
189.009845,5033.400406,8512.368333,153.219100
189.010165,4589.276840,7994.224174,-229.828649
189.010486,3997.112087,8142.265362,153.219100
189.010807,3775.050304,8216.285956,383.047749
189.011128,3404.947333,8438.347739,76.609550
189.011448,3330.926739,8290.306550,0.000000
189.011769,3330.926739,7994.224174,76.609550
189.012090,3330.926739,7994.224174,0.000000
189.012411,3775.050304,8142.265362,0.000000
189.012731,3923.091493,8438.347739,-459.657299
189.013052,4737.318029,8068.244768,-612.876398
189.013373,5107.421000,7994.224174,-229.828649
189.013694,5995.668130,7402.059420,-153.219100
189.014014,6513.812290,7402.059420,-612.876398
189.014335,6513.812290,7550.100608,-1072.533697
189.014656,6661.853478,7105.977043,-1378.971896
189.014977,6883.915261,7402.059420,-1225.752797
189.015297,6735.874072,7402.059420,-1149.143247
189.015618,6513.812290,7698.141797,-995.924147
189.015939,5773.606348,7846.182985,-1608.800546
189.016260,5699.585753,8142.265362,-1532.190996
189.016580,5107.421000,8512.368333,-689.485948
189.016901,4145.153275,8734.430116,-995.924147
189.017222,3997.112087,9104.533087,-536.266849
189.017543,3552.988522,9770.718434,0.000000
189.017863,2886.803174,9992.780217,229.828649
189.018184,2738.761985,10066.800811,995.924147
189.018505,3182.885551,9474.636058,612.876398
189.018826,3108.864956,8882.471304,919.314598
189.019146,3108.864956,8882.471304,842.705048
189.019467,3478.967927,8660.409521,689.485948
189.019788,4145.153275,8216.285956,383.047749
189.020109,5107.421000,7920.203579,76.609550
189.020429,5995.668130,8142.265362,0.000000
189.020750,6143.709319,7772.162391,0.000000
189.021071,6291.750507,7920.203579,-229.828649
189.021392,6809.894666,7920.203579,-459.657299
189.021712,7031.956449,7846.182985,-536.266849
189.022033,7105.977043,7550.100608,-306.438199
189.022354,6957.935855,7772.162391,-766.095498
189.022675,6809.894666,8142.265362,-1225.752797
189.022995,6143.709319,8142.265362,-1072.533697
189.023316,5551.544565,8068.244768,-306.438199
189.023637,5181.441594,7772.162391,0.000000
189.023958,4885.359217,7772.162391,0.000000
189.024278,4219.173869,7624.121203,0.000000
189.024599,3478.967927,7920.203579,306.438199
189.024920,3404.947333,7846.182985,306.438199
189.025241,3775.050304,7328.038826,383.047749
189.025561,3997.112087,7179.997637,766.095498
189.025882,4071.132681,6957.935855,612.876398
189.026203,4219.173869,7254.018232,459.657299
189.026524,4589.276840,7254.018232,229.828649
189.026844,5403.503377,6957.935855,229.828649
189.027165,6143.709319,6809.894666,76.609550
189.027486,6439.791695,6587.832884,-153.219100
189.027807,6439.791695,7105.977043,0.000000
189.028127,6661.853478,7031.956449,-459.657299
189.028448,7031.956449,6735.874072,-689.485948
189.028769,6809.894666,6661.853478,-766.095498
189.029090,6661.853478,7031.956449,-919.314598
189.029410,6069.688724,7772.162391,-536.266849
189.029731,5699.585753,7624.121203,-842.705048
189.030052,4959.379811,7994.224174,-689.485948
189.030373,4737.318029,8142.265362,0.000000
189.030693,4293.194464,8290.306550,0.000000
189.031014,3701.029710,8956.491898,229.828649
189.031335,3478.967927,9400.615463,766.095498
189.031656,3256.906145,9178.553681,306.438199
189.031976,3627.009116,8660.409521,842.705048
189.032297,3627.009116,8512.368333,612.876398
189.032618,3627.009116,8734.430116,536.266849
189.032939,4071.132681,8808.450710,153.219100
189.033259,4589.276840,8734.430116,0.000000
189.033580,5329.482782,8438.347739,0.000000
189.033901,5625.565159,8364.327145,153.219100
189.034222,5847.626942,8586.388927,-153.219100
189.034542,5921.647536,8734.430116,-383.047749
189.034863,6291.750507,9104.533087,-689.485948
189.035184,6217.729913,8512.368333,-612.876398
189.035505,6291.750507,8586.388927,-459.657299
189.035825,5847.626942,8808.450710,-689.485948
189.036146,5403.503377,8882.471304,-612.876398
189.036467,4737.318029,8734.430116,-612.876398
189.036788,4737.318029,8364.327145,-612.876398
189.037108,4293.194464,8808.450710,-383.047749
189.037429,4293.194464,8512.368333,-229.828649
189.037750,3775.050304,8660.409521,-229.828649
189.038071,3034.844362,8586.388927,-306.438199
189.038391,3627.009116,8216.285956,0.000000
189.038712,4145.153275,7698.141797,0.000000
189.039033,4145.153275,7772.162391,0.000000
189.039354,4293.194464,7772.162391,-306.438199
189.039674,4737.318029,7772.162391,-536.266849
189.039995,5329.482782,7476.080014,-612.876398
189.040316,6587.832884,7105.977043,-842.705048
189.040637,6587.832884,7254.018232,-842.705048
189.040957,6809.894666,7105.977043,-766.095498
189.041278,7105.977043,7179.997637,-1302.362347
189.041599,7031.956449,7031.956449,-1378.971896
189.041920,7105.977043,7105.977043,-536.266849
189.042240,6957.935855,6883.915261,-459.657299
189.042561,6365.771101,7402.059420,-919.314598
189.042882,5699.585753,7920.203579,-842.705048
189.043203,4959.379811,8290.306550,-689.485948
189.043523,4589.276840,8734.430116,-383.047749
189.043844,4589.276840,8512.368333,76.609550
189.044165,3849.070898,8882.471304,76.609550
189.044486,3330.926739,8586.388927,689.485948
189.044806,2960.823768,8660.409521,1149.143247
189.045127,3256.906145,8586.388927,1225.752797
189.045448,3404.947333,8290.306550,919.314598
189.045769,3627.009116,8142.265362,766.095498
189.046089,4145.153275,7994.224174,842.705048
189.046410,4293.194464,8142.265362,536.266849
189.046731,4885.359217,8216.285956,383.047749
189.047052,5699.585753,7772.162391,0.000000
189.047372,5921.647536,7254.018232,0.000000
189.047693,6513.812290,7698.141797,0.000000
189.048014,6883.915261,7698.141797,-383.047749
189.048335,6735.874072,7624.121203,0.000000
189.048655,6809.894666,7994.224174,-306.438199
189.048976,6513.812290,7920.203579,-689.485948
189.049297,5847.626942,8068.244768,-1149.143247
189.049618,5551.544565,8586.388927,-306.438199
189.049938,4959.379811,8956.491898,-459.657299
189.050259,4145.153275,8586.388927,0.000000
189.050580,3627.009116,8142.265362,153.219100
189.050901,3330.926739,8364.327145,0.000000
189.051221,2738.761985,8734.430116,306.438199
189.051542,2442.679609,8660.409521,612.876398
189.051863,2368.659014,8216.285956,842.705048
189.052184,2590.720797,7994.224174,766.095498
189.052504,2664.741391,8216.285956,536.266849
189.052825,3404.947333,8364.327145,383.047749
189.053146,4367.215058,7994.224174,0.000000
189.053467,4737.318029,7402.059420,229.828649
189.053787,5699.585753,7254.018232,306.438199
189.054108,5995.668130,7328.038826,-153.219100
189.054429,6735.874072,7179.997637,0.000000
189.054750,6661.853478,7624.121203,-842.705048
189.055070,6883.915261,7105.977043,-1149.143247
189.055391,7476.080014,6883.915261,-1225.752797
189.055712,7105.977043,7328.038826,-1225.752797
189.056033,6883.915261,7772.162391,-1225.752797
189.056353,6513.812290,7994.224174,-1455.581446
189.056674,5847.626942,8364.327145,-1302.362347
189.056995,5551.544565,8142.265362,-536.266849
189.057316,5033.400406,8586.388927,-229.828649
189.057636,4737.318029,9030.512492,-306.438199
189.057957,4071.132681,8660.409521,76.609550
189.058278,3701.029710,8882.471304,612.876398
189.058599,3775.050304,8660.409521,766.095498
189.058919,4145.153275,8512.368333,1149.143247
189.059240,3997.112087,8438.347739,76.609550
189.059561,4071.132681,8512.368333,0.000000
189.059882,4367.215058,8882.471304,-459.657299
189.060202,5181.441594,8364.327145,0.000000
189.060523,5403.503377,8438.347739,459.657299
189.060844,5699.585753,8216.285956,0.000000
189.061165,5699.585753,8438.347739,-153.219100
189.061485,5995.668130,8364.327145,-383.047749
189.061806,6143.709319,8438.347739,-536.266849
189.062127,6143.709319,8512.368333,-995.924147
189.062448,5847.626942,8660.409521,-995.924147
189.062768,5033.400406,8512.368333,-919.314598
189.063089,4885.359217,8660.409521,-383.047749
189.063410,4737.318029,8216.285956,153.219100
189.063731,3997.112087,8364.327145,-306.438199
189.064051,3627.009116,8808.450710,0.000000
189.064372,3256.906145,8586.388927,-76.609550
189.064693,2960.823768,8438.347739,153.219100
189.065014,3256.906145,7994.224174,76.609550
189.065334,3256.906145,7772.162391,306.438199
189.065655,3330.926739,7698.141797,612.876398
189.065976,3849.070898,7698.141797,229.828649
189.066297,4367.215058,7772.162391,-459.657299
189.066617,5033.400406,7772.162391,153.219100
189.066938,5699.585753,7105.977043,0.000000
189.067259,6217.729913,7179.997637,0.000000
189.067580,6143.709319,7476.080014,-383.047749
189.067900,6661.853478,7476.080014,0.000000
189.068221,6735.874072,7179.997637,-612.876398
189.068542,6809.894666,7105.977043,-612.876398
189.068863,6735.874072,6957.935855,-383.047749
189.069183,6365.771101,7105.977043,-536.266849
189.069504,5625.565159,7994.224174,-842.705048
189.069825,5403.503377,8216.285956,-306.438199
189.070146,5033.400406,8290.306550,-459.657299
189.070466,4441.235652,8586.388927,0.000000
189.070787,4071.132681,8660.409521,383.047749
189.071108,3627.009116,9474.636058,229.828649
189.071429,3256.906145,8882.471304,766.095498
189.071749,3478.967927,8364.327145,919.314598
189.072070,3404.947333,8364.327145,766.095498
189.072391,3701.029710,7994.224174,766.095498
189.072712,4071.132681,7920.203579,306.438199
189.073032,4145.153275,8512.368333,0.000000
189.073353,4737.318029,7846.182985,383.047749
189.073674,5773.606348,7772.162391,0.000000
189.073995,6143.709319,7698.141797,-153.219100
189.074315,6143.709319,8142.265362,0.000000
189.074636,6439.791695,7920.203579,-612.876398
189.074957,6735.874072,8142.265362,-383.047749
189.075278,6513.812290,8142.265362,-766.095498
189.075598,6365.771101,8142.265362,-842.705048
189.075919,5847.626942,8512.368333,-1149.143247
189.076240,5847.626942,8734.430116,-1302.362347
189.076561,5033.400406,8216.285956,-612.876398
189.076881,4367.215058,8290.306550,-306.438199
189.077202,3923.091493,8290.306550,-229.828649
189.077523,3849.070898,8586.388927,0.000000
189.077844,2886.803174,8882.471304,0.000000
189.078164,2664.741391,8734.430116,76.609550
189.078485,3108.864956,8290.306550,76.609550
189.078806,3108.864956,8290.306550,-153.219100
189.079127,3701.029710,8142.265362,76.609550
189.079447,3701.029710,8068.244768,0.000000
189.079768,3997.112087,8068.244768,-536.266849
189.080089,5033.400406,7624.121203,-306.438199
189.080410,5847.626942,7550.100608,-383.047749
189.080730,6291.750507,7254.018232,-306.438199
189.081051,6661.853478,7402.059420,-842.705048
189.081372,6883.915261,7550.100608,-689.485948
189.081693,7179.997637,7179.997637,-1225.752797
189.082013,7328.038826,7105.977043,-1532.190996
189.082334,7031.956449,7328.038826,-1838.629195
189.082655,6735.874072,7698.141797,-1608.800546
189.082976,6069.688724,8068.244768,-1225.752797
189.083296,5625.565159,8364.327145,-919.314598
189.083617,5181.441594,8660.409521,-459.657299
189.083938,4663.297435,8512.368333,0.000000
189.084259,3849.070898,9030.512492,153.219100
189.084579,3478.967927,9104.533087,536.266849
189.084900,3182.885551,9030.512492,919.314598
189.085221,3404.947333,8734.430116,1149.143247
189.085542,3256.906145,8512.368333,689.485948
189.085862,2960.823768,8438.347739,536.266849
189.086183,3404.947333,8512.368333,306.438199
189.086504,3775.050304,8364.327145,536.266849
189.086825,4811.338623,8512.368333,383.047749
189.087145,5181.441594,8068.244768,536.266849
189.087466,5551.544565,8216.285956,229.828649
189.087787,5625.565159,8290.306550,0.000000
189.088108,6143.709319,7920.203579,0.000000
189.088428,6365.771101,7772.162391,-229.828649
189.088749,6513.812290,7698.141797,-383.047749
189.089070,6439.791695,8068.244768,-766.095498
189.089391,5847.626942,7920.203579,-689.485948
189.089711,5477.523971,7624.121203,-383.047749
189.090032,5625.565159,7624.121203,-229.828649
189.090353,4885.359217,7846.182985,0.000000
189.090674,4589.276840,8068.244768,-229.828649
189.090994,4071.132681,8142.265362,-76.609550
189.091315,3775.050304,8438.347739,76.609550
189.091636,3552.988522,7920.203579,689.485948
189.091957,3997.112087,7179.997637,459.657299
189.092277,4367.215058,7105.977043,0.000000
189.092598,4145.153275,7624.121203,76.609550
189.092919,4515.256246,7550.100608,0.000000
189.093240,5255.462188,7402.059420,153.219100
189.093560,5995.668130,6661.853478,76.609550
189.093881,6587.832884,7031.956449,-306.438199
189.094202,6661.853478,7105.977043,-536.266849
189.094523,7105.977043,7031.956449,-612.876398
189.094843,6883.915261,6957.935855,-919.314598
189.095164,7328.038826,6735.874072,-842.705048
189.095485,7031.956449,7105.977043,-766.095498
189.095806,6513.812290,7476.080014,-842.705048
189.096126,6217.729913,8290.306550,-995.924147
189.096447,5773.606348,8512.368333,-919.314598
189.096768,5255.462188,8512.368333,-612.876398
189.097089,4737.318029,8808.450710,0.000000
189.097409,3997.112087,9326.594869,229.828649
189.097730,3701.029710,9178.553681,306.438199
189.098051,3256.906145,9400.615463,459.657299
189.098372,3034.844362,9104.533087,612.876398
189.098692,3182.885551,8882.471304,689.485948
189.099013,3330.926739,8808.450710,383.047749
189.099334,3627.009116,8808.450710,842.705048
189.099655,3997.112087,8586.388927,306.438199
189.099975,4663.297435,8364.327145,76.609550
189.100296,5107.421000,8364.327145,0.000000
189.100617,5699.585753,8734.430116,0.000000
189.100938,5921.647536,7920.203579,-229.828649
189.101258,6291.750507,8438.347739,-459.657299
189.101579,6735.874072,8290.306550,-536.266849
189.101900,6661.853478,8290.306550,-766.095498
189.102221,6069.688724,8438.347739,-689.485948
189.102541,6069.688724,8586.388927,-995.924147
189.102862,5699.585753,8512.368333,-919.314598
189.103183,5403.503377,8364.327145,-689.485948
189.103504,4441.235652,8290.306550,-306.438199
189.103824,4589.276840,8142.265362,76.609550
189.104145,3775.050304,8216.285956,0.000000
189.104466,3478.967927,8216.285956,689.485948
189.104787,3034.844362,8068.244768,153.219100
189.105107,2960.823768,7550.100608,229.828649
189.105428,3478.967927,7772.162391,612.876398
189.105749,3627.009116,7550.100608,536.266849
189.106070,3849.070898,7624.121203,459.657299
189.106391,4737.318029,7476.080014,76.609550
189.106712,4885.359217,7476.080014,0.000000
189.107033,6143.709319,7105.977043,0.000000
189.107354,6587.832884,6883.915261,-383.047749
189.107675,7031.956449,7031.956449,-612.876398
189.107996,6957.935855,7105.977043,-383.047749
189.108317,7328.038826,6809.894666,-612.876398
189.108637,7105.977043,6587.832884,-995.924147
189.108958,7254.018232,7031.956449,-995.924147
189.109279,6587.832884,7550.100608,-1072.533697
189.109600,5773.606348,7920.203579,-995.924147
189.109921,5551.544565,7920.203579,-919.314598
189.110242,5329.482782,8068.244768,-612.876398
189.110563,4737.318029,8216.285956,153.219100
189.110884,4293.194464,8586.388927,76.609550
189.111205,3701.029710,8882.471304,229.828649
189.111526,3701.029710,8882.471304,306.438199
189.111847,3775.050304,8290.306550,766.095498
189.112168,3478.967927,8142.265362,766.095498
189.112489,3256.906145,8364.327145,383.047749
189.112810,3701.029710,8734.430116,689.485948
189.113131,4219.173869,8438.347739,306.438199
189.113452,4589.276840,8438.347739,76.609550
189.113773,5477.523971,8142.265362,153.219100
189.114094,5699.585753,8216.285956,0.000000
189.114415,5773.606348,8290.306550,0.000000
189.114736,6069.688724,8512.368333,0.000000
189.115057,6513.812290,8290.306550,0.000000
189.115378,6365.771101,8290.306550,-383.047749
189.115699,6439.791695,7994.224174,-536.266849
189.116020,6217.729913,8216.285956,-229.828649
189.116341,5699.585753,8216.285956,-536.266849
189.116662,5329.482782,8216.285956,-306.438199
189.116983,5033.400406,8068.244768,-229.828649
189.117304,4589.276840,8068.244768,-383.047749
189.117625,4071.132681,8512.368333,0.000000
189.117946,3404.947333,8438.347739,153.219100
189.118267,3701.029710,8290.306550,76.609550
189.118588,3997.112087,8068.244768,76.609550
189.118909,3701.029710,7920.203579,0.000000
189.119230,3997.112087,8142.265362,-612.876398
189.119551,4367.215058,8142.265362,-229.828649
189.119872,4737.318029,7920.203579,0.000000
189.120193,5329.482782,7624.121203,0.000000
189.120514,5921.647536,7476.080014,-306.438199
189.120835,6143.709319,7772.162391,-459.657299
189.121156,6365.771101,7476.080014,-766.095498
189.121477,6365.771101,7476.080014,-459.657299
189.121798,6735.874072,7105.977043,-689.485948
189.122119,6735.874072,7105.977043,-842.705048
189.122440,6217.729913,7402.059420,-689.485948
189.122761,5773.606348,7846.182985,-766.095498
189.123082,5699.585753,7846.182985,-612.876398
189.123403,5107.421000,8290.306550,-612.876398
189.123724,4663.297435,8882.471304,-383.047749
189.124045,4515.256246,8808.450710,76.609550
189.124365,4219.173869,9104.533087,76.609550
189.124686,3849.070898,9030.512492,689.485948
189.125007,3701.029710,8734.430116,612.876398
189.125328,3404.947333,8512.368333,536.266849
189.125649,3552.988522,8512.368333,459.657299
189.125970,3775.050304,8216.285956,0.000000
189.126291,4293.194464,8142.265362,306.438199
189.126612,4737.318029,7846.182985,229.828649
189.126933,5477.523971,7698.141797,459.657299
189.127254,5847.626942,8142.265362,459.657299
189.127575,6069.688724,7994.224174,-229.828649
189.127896,6217.729913,7624.121203,-383.047749
189.128217,6587.832884,7624.121203,-689.485948
189.128538,6661.853478,8142.265362,-536.266849
189.128859,6365.771101,8068.244768,-612.876398
189.129180,5995.668130,8290.306550,-842.705048
189.129501,5551.544565,8512.368333,-919.314598
189.129822,5255.462188,8290.306550,-612.876398
189.130143,4885.359217,8364.327145,-306.438199
189.130464,4441.235652,8438.347739,0.000000
189.130785,3627.009116,8660.409521,0.000000
189.131106,3182.885551,8586.388927,0.000000
189.131427,2886.803174,8438.347739,306.438199
189.131748,2738.761985,8068.244768,842.705048
189.132069,3182.885551,7994.224174,459.657299
189.132390,3330.926739,7994.224174,306.438199
189.132711,3478.967927,8290.306550,153.219100
189.133032,3849.070898,8216.285956,-153.219100
189.133353,4737.318029,7994.224174,0.000000
189.133674,5477.523971,7624.121203,0.000000
189.133995,6143.709319,7328.038826,0.000000
189.134316,6217.729913,7179.997637,-306.438199
189.134637,6513.812290,7550.100608,-612.876398
189.134958,6957.935855,7254.018232,-689.485948
189.135279,6957.935855,7105.977043,-995.924147
189.135600,7031.956449,7105.977043,-1225.752797
189.135921,6735.874072,7328.038826,-1072.533697
189.136242,6069.688724,7846.182985,-995.924147
189.136563,5699.585753,7994.224174,-766.095498
189.136884,4959.379811,8216.285956,-459.657299
189.137205,5033.400406,8438.347739,0.000000
189.137526,4441.235652,8808.450710,76.609550
189.137847,3997.112087,8734.430116,383.047749
189.138168,4367.215058,8882.471304,383.047749
189.138489,3849.070898,8438.347739,919.314598
189.138810,3627.009116,8216.285956,536.266849
189.139131,3775.050304,8068.244768,229.828649
189.139452,3997.112087,8586.388927,-76.609550
189.139772,4367.215058,8290.306550,-459.657299
189.140093,4811.338623,8438.347739,0.000000
189.140414,5329.482782,7698.141797,306.438199
189.140735,5773.606348,7994.224174,153.219100
189.141056,5773.606348,8364.327145,-612.876398
189.141377,5995.668130,8364.327145,-383.047749
189.141698,6291.750507,7994.224174,-383.047749
189.142019,6439.791695,7846.182985,-612.876398
189.142340,5995.668130,8290.306550,-689.485948
189.142661,5847.626942,8216.285956,-842.705048
189.142982,5551.544565,8216.285956,-842.705048
189.143303,5181.441594,8216.285956,-612.876398
189.143624,4737.318029,7994.224174,-306.438199
189.143945,4367.215058,8068.244768,0.000000
189.144266,3997.112087,9178.553681,-612.876398
189.144587,3404.947333,8586.388927,0.000000
189.144908,3552.988522,8364.327145,76.609550
189.145229,3701.029710,8216.285956,229.828649
189.145550,3701.029710,8438.347739,0.000000
189.145871,3478.967927,8142.265362,0.000000
189.146192,3849.070898,7920.203579,0.000000
189.146513,4589.276840,7920.203579,153.219100
189.146834,5033.400406,7550.100608,-153.219100
189.147155,5699.585753,7402.059420,0.000000
189.147476,5773.606348,7698.141797,-229.828649
189.147797,5995.668130,7624.121203,-459.657299
189.148118,6291.750507,7476.080014,-612.876398
189.148439,6291.750507,7105.977043,-612.876398
189.148760,6735.874072,7328.038826,-459.657299
189.149081,5995.668130,7105.977043,-689.485948
189.149402,5625.565159,7920.203579,-1378.971896
189.149723,5255.462188,8512.368333,-1072.533697
189.150044,4885.359217,8808.450710,-919.314598
189.150365,4441.235652,8956.491898,-383.047749
189.150686,3997.112087,9252.574275,0.000000
189.151007,3627.009116,9252.574275,153.219100
189.151328,3034.844362,9474.636058,459.657299
189.151649,3108.864956,9178.553681,459.657299
189.151970,3182.885551,8882.471304,612.876398
189.152291,3404.947333,8364.327145,842.705048
189.152612,3256.906145,8068.244768,689.485948
189.152933,3701.029710,7846.182985,459.657299
189.153254,4367.215058,7920.203579,689.485948
189.153575,4885.359217,7402.059420,306.438199
189.153896,5699.585753,7624.121203,76.609550
189.154217,6069.688724,7698.141797,-76.609550
189.154538,6439.791695,7920.203579,-153.219100
189.154859,6809.894666,7994.224174,-459.657299
189.155180,6661.853478,7920.203579,-383.047749
189.155500,6661.853478,7994.224174,-1072.533697
189.155821,6735.874072,8142.265362,-1302.362347
189.156142,6513.812290,7846.182985,-1302.362347
189.156463,6217.729913,7624.121203,-842.705048
189.156784,5403.503377,8216.285956,-459.657299
189.157105,4737.318029,7772.162391,-459.657299
189.157426,4219.173869,8068.244768,0.000000
189.157747,3701.029710,8364.327145,0.000000
189.158068,3330.926739,8438.347739,536.266849
189.158389,3330.926739,7698.141797,229.828649
189.158710,3701.029710,7698.141797,306.438199
189.159031,3552.988522,8068.244768,306.438199
189.159352,3552.988522,7624.121203,153.219100
189.159673,3775.050304,7698.141797,153.219100
189.159994,4811.338623,7179.997637,229.828649
189.160315,5403.503377,7328.038826,0.000000
189.160636,6143.709319,7105.977043,0.000000
189.160957,6513.812290,7179.997637,0.000000
189.161278,7031.956449,7179.997637,-536.266849
189.161599,7105.977043,7179.997637,-842.705048
189.161920,7105.977043,7105.977043,-1225.752797
189.162241,7105.977043,7328.038826,-1225.752797
189.162562,6957.935855,7920.203579,-1072.533697
189.162883,6439.791695,7698.141797,-1149.143247
189.163204,5773.606348,7772.162391,-459.657299
189.163525,5329.482782,8290.306550,-459.657299
189.163846,4959.379811,8512.368333,-306.438199
189.164167,4663.297435,9252.574275,-459.657299
189.164488,3775.050304,9104.533087,76.609550
189.164809,3775.050304,8956.491898,383.047749
189.165130,3478.967927,8882.471304,919.314598
189.165451,3478.967927,8438.347739,536.266849
189.165772,2960.823768,8512.368333,153.219100
189.166093,3404.947333,8808.450710,0.000000
189.166414,3701.029710,8882.471304,0.000000
189.166735,4293.194464,8808.450710,0.000000
189.167056,4737.318029,8512.368333,0.000000
189.167377,5107.421000,8586.388927,459.657299
189.167698,5403.503377,8734.430116,0.000000
189.168019,5403.503377,8734.430116,-76.609550
189.168340,5699.585753,8734.430116,0.000000
189.168661,5625.565159,8512.368333,0.000000
189.168982,6069.688724,8290.306550,-383.047749
189.169303,5477.523971,8290.306550,-536.266849
189.169624,5181.441594,8216.285956,0.000000
189.169945,5033.400406,8142.265362,0.000000
189.170266,4737.318029,7994.224174,0.000000
189.170587,4219.173869,7846.182985,-153.219100
189.170908,3701.029710,7994.224174,306.438199
189.171228,3701.029710,8068.244768,229.828649
189.171549,3552.988522,8290.306550,459.657299
189.171870,4071.132681,7624.121203,0.000000
189.172191,3849.070898,7772.162391,306.438199
189.172512,4145.153275,7550.100608,-229.828649
189.172833,4515.256246,7550.100608,-536.266849
189.173154,4737.318029,7476.080014,-306.438199
189.173475,5403.503377,7254.018232,0.000000
189.173796,6143.709319,7254.018232,-306.438199
189.174117,6661.853478,7105.977043,-536.266849
189.174438,6365.771101,7179.997637,-995.924147
189.174759,6439.791695,7105.977043,-919.314598
189.175080,6735.874072,6809.894666,-766.095498
189.175401,6809.894666,6587.832884,-229.828649
189.175722,6365.771101,6809.894666,-612.876398
189.176043,5995.668130,7328.038826,-766.095498
189.176364,5625.565159,7920.203579,-995.924147
189.176685,5033.400406,8586.388927,-536.266849
189.177006,4959.379811,8512.368333,-612.876398
189.177327,4663.297435,8512.368333,153.219100
189.177648,4071.132681,8882.471304,536.266849
189.177969,3478.967927,9030.512492,229.828649
189.178290,3330.926739,8660.409521,612.876398
189.178611,3552.988522,8586.388927,459.657299
189.178932,3627.009116,7920.203579,1072.533697
189.179253,3997.112087,7698.141797,1072.533697
189.179574,4515.256246,7994.224174,689.485948
189.179895,4737.318029,8216.285956,306.438199
189.180216,5477.523971,7772.162391,-306.438199
189.180537,5773.606348,8068.244768,-306.438199
189.180858,6883.915261,7698.141797,0.000000
189.181179,7105.977043,7994.224174,-459.657299
189.181500,7031.956449,7994.224174,-919.314598
189.181821,6735.874072,8068.244768,-995.924147
189.182142,6661.853478,8512.368333,-1225.752797
189.182463,6291.750507,8586.388927,-1149.143247
189.182784,5921.647536,8586.388927,-1072.533697
189.183105,5477.523971,8808.450710,-536.266849
189.183426,4737.318029,8734.430116,-229.828649
189.183747,4071.132681,8660.409521,-229.828649
189.184068,3478.967927,8734.430116,0.000000
189.184389,2812.782580,8882.471304,459.657299
189.184710,2442.679609,8882.471304,306.438199
189.185031,2442.679609,8586.388927,383.047749
189.185352,2442.679609,8142.265362,995.924147
189.185673,2664.741391,8290.306550,1225.752797
189.185994,2664.741391,8142.265362,612.876398
189.186315,3478.967927,8068.244768,153.219100
189.186636,4367.215058,7994.224174,0.000000
189.186956,5255.462188,7328.038826,-229.828649
189.187277,5995.668130,7402.059420,0.000000
189.187598,6735.874072,7476.080014,0.000000
189.187919,6809.894666,7402.059420,-536.266849
189.188240,7105.977043,7031.956449,-689.485948
189.188561,7031.956449,6883.915261,-1532.190996
189.188882,7476.080014,7031.956449,-1072.533697
189.189203,7328.038826,6883.915261,-1302.362347
189.189524,6957.935855,7328.038826,-995.924147
189.189845,6439.791695,7254.018232,-842.705048
189.190166,5773.606348,7476.080014,-766.095498
189.190487,4959.379811,7920.203579,-459.657299
189.190808,4811.338623,8068.244768,0.000000
189.191129,4219.173869,8808.450710,76.609550
189.191450,3997.112087,8734.430116,536.266849
189.191771,4145.153275,8882.471304,919.314598
189.192092,4071.132681,8142.265362,459.657299
189.192413,3627.009116,8068.244768,383.047749
189.192734,3923.091493,8216.285956,229.828649
189.193055,4071.132681,8290.306550,0.000000
189.193376,4663.297435,7994.224174,229.828649
189.193697,5181.441594,7994.224174,459.657299
189.194018,5403.503377,8142.265362,536.266849
189.194339,5551.544565,8438.347739,306.438199
189.194660,5625.565159,8660.409521,153.219100
189.194981,6143.709319,7920.203579,0.000000
189.195302,5847.626942,8364.327145,-612.876398
189.195623,6143.709319,8438.347739,-919.314598
189.195944,5773.606348,8586.388927,-383.047749
189.196265,5773.606348,8512.368333,-612.876398
189.196586,5255.462188,8290.306550,-536.266849
189.196907,4885.359217,8438.347739,-612.876398
189.197228,4293.194464,8660.409521,-383.047749
189.197549,3849.070898,8808.450710,0.000000
189.197870,3478.967927,8586.388927,76.609550
189.198191,3552.988522,8290.306550,306.438199
189.198512,3404.947333,8290.306550,536.266849
189.198833,3627.009116,8290.306550,229.828649
189.199154,3552.988522,8290.306550,76.609550
189.199475,4145.153275,7846.182985,-153.219100
189.199796,4145.153275,7994.224174,-306.438199
189.200117,4811.338623,7698.141797,-306.438199
189.200438,5551.544565,7105.977043,76.609550
189.200759,5995.668130,7254.018232,0.000000
189.201080,5773.606348,7550.100608,0.000000
189.201401,6291.750507,7179.997637,-536.266849
189.201722,6587.832884,7254.018232,-995.924147
189.202043,6661.853478,6957.935855,-612.876398
189.202363,6735.874072,7105.977043,-383.047749
189.202684,6291.750507,7772.162391,-919.314598
189.203005,5847.626942,7772.162391,-1072.533697
189.203326,5181.441594,8142.265362,-1225.752797
189.203647,4737.318029,8364.327145,-842.705048
189.203968,4589.276840,8586.388927,0.000000
189.204289,3997.112087,9030.512492,1072.533697
189.204610,3701.029710,9178.553681,459.657299
189.204931,3478.967927,9252.574275,229.828649
189.205252,3478.967927,8734.430116,0.000000
189.205573,3256.906145,8364.327145,612.876398
189.205894,3552.988522,8290.306550,1072.533697
189.206215,3775.050304,7994.224174,766.095498
189.206536,4145.153275,8142.265362,306.438199
189.206857,4737.318029,7994.224174,0.000000
189.207178,5329.482782,8068.244768,0.000000
189.207499,6143.709319,7994.224174,76.609550
189.207820,6217.729913,7846.182985,0.000000
189.208141,6735.874072,7772.162391,0.000000
189.208462,6809.894666,7772.162391,-306.438199
189.208783,6365.771101,7994.224174,-612.876398
189.209104,6143.709319,7994.224174,-689.485948
189.209425,6143.709319,8290.306550,-612.876398
189.209746,5995.668130,8290.306550,-766.095498
189.210067,5181.441594,8142.265362,-383.047749
189.210388,4811.338623,8290.306550,-459.657299
189.210709,4071.132681,8438.347739,-229.828649
189.211030,3775.050304,9104.533087,0.000000
189.211351,3182.885551,8142.265362,383.047749
189.211672,3404.947333,8364.327145,0.000000
189.211993,3478.967927,7994.224174,383.047749
189.212314,3552.988522,8142.265362,306.438199
189.212634,3330.926739,8142.265362,536.266849
189.212955,3849.070898,8216.285956,0.000000
189.213276,4589.276840,7476.080014,-306.438199
189.213597,4959.379811,7179.997637,-612.876398
189.213918,5847.626942,7402.059420,0.000000
189.214239,6439.791695,7254.018232,-459.657299
189.214560,6587.832884,7328.038826,-689.485948
189.214881,6661.853478,7402.059420,-1149.143247
189.215202,6957.935855,7105.977043,-1072.533697
189.215523,6883.915261,7254.018232,-1378.971896
189.215844,6513.812290,7550.100608,-1225.752797
189.216165,6365.771101,7698.141797,-919.314598
189.216486,5847.626942,7994.224174,-995.924147
189.216807,5255.462188,8216.285956,-1149.143247
189.217128,4737.318029,8956.491898,-995.924147
189.217449,4367.215058,9030.512492,-459.657299
189.217770,3627.009116,9178.553681,0.000000
189.218091,3330.926739,9104.533087,766.095498
189.218412,3330.926739,8882.471304,1455.581446
189.218733,3182.885551,8586.388927,689.485948
189.219054,2812.782580,8290.306550,612.876398
189.219374,3404.947333,8512.368333,689.485948
189.219695,3997.112087,8586.388927,766.095498
189.220016,4367.215058,8512.368333,0.000000
189.220337,4959.379811,8364.327145,0.000000
189.220658,5181.441594,8068.244768,0.000000
189.220979,5847.626942,8290.306550,0.000000
189.221300,5995.668130,8290.306550,-229.828649
189.221621,6587.832884,8438.347739,-536.266849
189.221942,6587.832884,8216.285956,-995.924147
189.222263,6143.709319,8364.327145,-766.095498
189.222584,6143.709319,8364.327145,-383.047749
189.222905,6143.709319,8364.327145,-229.828649
189.223226,5625.565159,7994.224174,-689.485948
189.223547,4959.379811,7402.059420,-229.828649
189.223868,4737.318029,7624.121203,-229.828649
189.224189,4293.194464,8068.244768,76.609550
189.224510,3923.091493,7994.224174,536.266849
189.224831,3627.009116,7772.162391,153.219100
189.225152,3775.050304,7994.224174,229.828649
189.225473,3552.988522,7920.203579,229.828649
189.225793,3775.050304,8142.265362,0.000000
189.226114,3775.050304,8068.244768,-153.219100
189.226435,4441.235652,7920.203579,-153.219100
189.226756,4515.256246,7476.080014,0.000000
189.227077,5255.462188,7402.059420,0.000000
189.227398,5699.585753,7624.121203,0.000000
189.227719,5995.668130,7698.141797,0.000000
189.228040,6143.709319,7402.059420,-689.485948
189.228361,6291.750507,7254.018232,-995.924147
189.228682,6439.791695,7179.997637,-919.314598
189.229003,6143.709319,7476.080014,-306.438199
189.229324,6143.709319,7328.038826,-306.438199
189.229645,5329.482782,8068.244768,-536.266849
189.229966,5033.400406,7920.203579,-306.438199
189.230287,4885.359217,7994.224174,-766.095498
189.230608,4663.297435,8882.471304,0.000000
189.230929,4367.215058,9030.512492,459.657299
189.231250,3849.070898,8882.471304,612.876398
189.231571,3478.967927,9104.533087,459.657299
189.231892,3627.009116,8882.471304,153.219100
189.232213,3478.967927,8364.327145,383.047749
189.232533,3775.050304,8068.244768,995.924147
189.232854,4367.215058,8364.327145,766.095498
189.233175,4589.276840,8216.285956,76.609550
189.233496,5329.482782,8438.347739,-153.219100
189.233817,5699.585753,7846.182985,-612.876398
189.234138,6069.688724,7846.182985,-229.828649
189.234459,6439.791695,7846.182985,0.000000
189.234780,6809.894666,8216.285956,0.000000
189.235101,6587.832884,8364.327145,-383.047749
189.235422,6439.791695,8364.327145,-766.095498
189.235743,6143.709319,8512.368333,-919.314598
189.236064,6069.688724,8216.285956,-919.314598
189.236385,5551.544565,8364.327145,-612.876398
189.236706,5107.421000,8364.327145,0.000000
189.237027,4515.256246,8512.368333,-383.047749
189.237348,3775.050304,8956.491898,0.000000
189.237669,3404.947333,8882.471304,383.047749
189.237990,2960.823768,9030.512492,76.609550
189.238311,2812.782580,8586.388927,459.657299
189.238632,3108.864956,8216.285956,612.876398
189.238952,3330.926739,8068.244768,383.047749
189.239273,3478.967927,7920.203579,536.266849
189.239594,3701.029710,7920.203579,383.047749
189.239915,4441.235652,7920.203579,76.609550
189.240236,5033.400406,7772.162391,-536.266849
189.240557,5625.565159,7105.977043,-536.266849
189.240878,6439.791695,7105.977043,-612.876398
189.241199,7105.977043,7105.977043,-306.438199
189.241520,7031.956449,7105.977043,-612.876398
189.241841,7105.977043,6735.874072,-1072.533697
189.242162,7254.018232,7031.956449,-1455.581446
189.242483,6883.915261,7105.977043,-1608.800546
189.242804,6439.791695,7920.203579,-1762.019645
189.243125,6143.709319,7772.162391,-1378.971896
189.243446,5699.585753,7920.203579,-1149.143247
189.243767,4959.379811,7698.141797,0.000000
189.244088,4515.256246,7920.203579,76.609550
189.244409,3923.091493,8438.347739,612.876398
189.244730,3404.947333,8660.409521,536.266849
189.245051,3552.988522,8734.430116,766.095498
189.245371,3997.112087,8216.285956,612.876398
189.245692,3627.009116,8290.306550,919.314598
189.246013,3849.070898,8438.347739,536.266849
189.246334,3997.112087,8290.306550,919.314598
189.246655,4737.318029,8290.306550,0.000000
189.246976,4959.379811,7772.162391,0.000000
189.247297,5625.565159,7994.224174,-229.828649
189.247618,6513.812290,8142.265362,-229.828649
189.247939,6069.688724,8512.368333,-229.828649
189.248260,6217.729913,8512.368333,-459.657299
189.248581,6365.771101,8808.450710,-689.485948
189.248902,5699.585753,8364.327145,-995.924147
189.249223,6143.709319,8216.285956,-459.657299
189.249544,5625.565159,8438.347739,0.000000
189.249865,5033.400406,8142.265362,383.047749
189.250186,4663.297435,8142.265362,0.000000
189.250507,4071.132681,8290.306550,0.000000
189.250828,3701.029710,8660.409521,0.000000
189.251149,3404.947333,8734.430116,0.000000
189.251470,3330.926739,8586.388927,0.000000
189.251791,3256.906145,8290.306550,229.828649
189.252111,3701.029710,8364.327145,383.047749
189.252432,3849.070898,8364.327145,76.609550
189.252753,3627.009116,7920.203579,306.438199
189.253074,4219.173869,8068.244768,-153.219100
189.253395,4959.379811,7698.141797,-459.657299
189.253716,5403.503377,7476.080014,-1302.362347
189.254037,5995.668130,7698.141797,-459.657299
189.254358,6809.894666,7476.080014,-383.047749
189.254679,6513.812290,7624.121203,-536.266849
189.255000,6587.832884,7031.956449,-766.095498
189.255321,6587.832884,7105.977043,-995.924147
189.255642,6513.812290,6883.915261,-766.095498
189.255963,6217.729913,7179.997637,-919.314598
189.256284,6291.750507,7550.100608,-766.095498
189.256605,5773.606348,7772.162391,-689.485948
189.256926,5255.462188,8216.285956,-766.095498
189.257247,4663.297435,8364.327145,-689.485948
189.257568,4441.235652,8660.409521,-229.828649
189.257889,4071.132681,8734.430116,229.828649
189.258210,4145.153275,8660.409521,306.438199
189.258530,4071.132681,9030.512492,1072.533697
189.258851,3997.112087,8586.388927,536.266849
189.259172,3849.070898,8216.285956,459.657299
189.259493,3923.091493,8216.285956,383.047749
189.259814,4219.173869,7772.162391,229.828649
189.260135,4737.318029,7624.121203,0.000000
189.260456,5551.544565,7624.121203,0.000000
189.260777,5921.647536,7698.141797,76.609550
189.261098,6143.709319,7772.162391,0.000000
189.261419,6217.729913,7920.203579,0.000000
189.261740,6365.771101,8068.244768,-459.657299
189.262061,6143.709319,8364.327145,-766.095498
189.262382,5847.626942,8216.285956,-689.485948
189.262703,5921.647536,8216.285956,-842.705048
189.263024,5329.482782,8512.368333,-689.485948
189.263345,5107.421000,8734.430116,-383.047749
189.263666,4441.235652,8586.388927,-306.438199
189.263987,3923.091493,8586.388927,0.000000
189.264308,3108.864956,8882.471304,0.000000
189.264629,3034.844362,8808.450710,306.438199
189.264949,2738.761985,8808.450710,536.266849
189.265270,3108.864956,8142.265362,689.485948
189.265591,3478.967927,7846.182985,766.095498
189.265912,3478.967927,7994.224174,459.657299
189.266233,3775.050304,7994.224174,612.876398
189.266554,4145.153275,7624.121203,229.828649
189.266875,4885.359217,7476.080014,0.000000
189.267196,5847.626942,7105.977043,0.000000
189.267517,6291.750507,7772.162391,0.000000
189.267838,6735.874072,7476.080014,-995.924147
189.268159,6809.894666,7105.977043,-919.314598
189.268480,7105.977043,7179.997637,-1532.190996
189.268801,7031.956449,6957.935855,-1302.362347
189.269122,7105.977043,7698.141797,-1072.533697
189.269443,6809.894666,7550.100608,-995.924147
189.269764,6143.709319,7920.203579,-995.924147
189.270085,5255.462188,7846.182985,-1072.533697
189.270406,4885.359217,8142.265362,-842.705048
189.270727,4441.235652,8142.265362,76.609550
189.271048,4219.173869,8216.285956,459.657299
189.271369,4293.194464,8512.368333,536.266849
189.271689,3849.070898,8364.327145,612.876398
189.272010,3627.009116,8512.368333,612.876398
189.272331,3701.029710,8290.306550,766.095498
189.272652,3701.029710,8216.285956,153.219100
189.272973,3997.112087,8142.265362,76.609550
189.273294,4663.297435,7994.224174,0.000000
189.273615,5255.462188,7846.182985,0.000000
189.273936,5477.523971,8068.244768,0.000000
189.274257,5625.565159,8216.285956,-306.438199
189.274578,6143.709319,8290.306550,0.000000
189.274899,6217.729913,8216.285956,-229.828649
189.275220,6661.853478,8142.265362,0.000000
189.275541,6365.771101,8068.244768,-383.047749
189.275862,6217.729913,8290.306550,-842.705048
189.276183,5699.585753,8290.306550,-766.095498
189.276504,5625.565159,8438.347739,-842.705048
189.276825,5107.421000,8290.306550,-842.705048
189.277146,4515.256246,8142.265362,-383.047749
189.277467,4145.153275,8142.265362,0.000000
189.277788,3552.988522,8512.368333,76.609550
189.278108,3552.988522,8216.285956,0.000000
189.278429,3330.926739,8216.285956,153.219100
189.278750,3552.988522,8142.265362,153.219100
189.279071,3627.009116,8364.327145,-229.828649
189.279392,3701.029710,8660.409521,0.000000
189.279713,4071.132681,7994.224174,383.047749
189.280034,4885.359217,7698.141797,0.000000
189.280355,5403.503377,7328.038826,0.000000
189.280676,5773.606348,7402.059420,-229.828649
189.280997,6069.688724,7624.121203,-536.266849
189.281318,6217.729913,7550.100608,-919.314598
189.281639,6439.791695,7402.059420,-1072.533697
189.281960,6513.812290,7254.018232,-766.095498
189.282281,6439.791695,7105.977043,-383.047749
189.282602,5995.668130,7402.059420,-612.876398
189.282923,5625.565159,7846.182985,-1225.752797
189.283244,5181.441594,8068.244768,-1302.362347
189.283565,4811.338623,8142.265362,-919.314598
189.283886,4737.318029,8364.327145,-153.219100
189.284207,4293.194464,8882.471304,689.485948
189.284527,3775.050304,9474.636058,459.657299
189.284848,3701.029710,9178.553681,919.314598
189.285169,3775.050304,9104.533087,76.609550
189.285490,3775.050304,8364.327145,153.219100
189.285811,3849.070898,7994.224174,459.657299
189.286132,3849.070898,7994.224174,842.705048
189.286453,4219.173869,7846.182985,612.876398
189.286774,4663.297435,7698.141797,76.609550
189.287095,5477.523971,7772.162391,-229.828649
189.287416,5995.668130,7772.162391,-689.485948
189.287737,6069.688724,8142.265362,-153.219100
189.288058,6439.791695,8216.285956,-153.219100
189.288379,6439.791695,8142.265362,0.000000
189.288700,6513.812290,8216.285956,-459.657299
189.289021,6217.729913,8142.265362,-919.314598
189.289342,5921.647536,8364.327145,-919.314598
189.289663,5403.503377,8660.409521,-766.095498
189.289984,5181.441594,8512.368333,-383.047749
189.290305,4663.297435,8290.306550,-383.047749
189.290626,3997.112087,8512.368333,0.000000
189.290947,3256.906145,8364.327145,536.266849
189.291267,2960.823768,8660.409521,153.219100
189.291588,2738.761985,8142.265362,766.095498
189.291909,3256.906145,7772.162391,689.485948
189.292230,3478.967927,7994.224174,459.657299
189.292551,3552.988522,7920.203579,459.657299
189.292872,3997.112087,7698.141797,536.266849
189.293193,4589.276840,7402.059420,153.219100
189.293514,5329.482782,7328.038826,-153.219100
189.293835,6217.729913,6883.915261,-383.047749
189.294156,6735.874072,6735.874072,-612.876398
189.294477,7031.956449,6809.894666,-536.266849
189.294798,7328.038826,6957.935855,-766.095498
189.295119,7328.038826,6957.935855,-919.314598
189.295440,7328.038826,6809.894666,-1685.410096
189.295761,7105.977043,6957.935855,-1225.752797
189.296082,6587.832884,7328.038826,-1149.143247
189.296403,5921.647536,7624.121203,-1072.533697
189.296724,5773.606348,8586.388927,-1072.533697
189.297045,5329.482782,7920.203579,-842.705048
189.297366,4441.235652,8438.347739,-612.876398
189.297686,3701.029710,8808.450710,-76.609550
189.298007,3478.967927,8956.491898,306.438199
189.298328,3404.947333,8882.471304,689.485948
189.298649,3182.885551,8882.471304,842.705048
189.298970,3182.885551,8734.430116,842.705048
189.299291,3182.885551,8660.409521,689.485948
189.299612,3552.988522,8956.491898,459.657299
189.299933,3552.988522,8586.388927,0.000000
189.300254,4219.173869,8734.430116,0.000000
189.300575,4959.379811,8364.327145,0.000000
189.300896,5181.441594,8438.347739,153.219100
189.301217,5477.523971,8734.430116,76.609550
189.301538,6143.709319,8882.471304,-383.047749
189.301859,5921.647536,8364.327145,-383.047749
189.302180,6143.709319,8290.306550,-536.266849
189.302501,6217.729913,8364.327145,-536.266849
189.302822,6069.688724,8290.306550,-459.657299
189.303143,5551.544565,8364.327145,-306.438199
189.303464,4885.359217,8438.347739,-459.657299
189.303785,4441.235652,8438.347739,-689.485948
189.304106,4071.132681,8586.388927,-306.438199
189.304426,3478.967927,8438.347739,153.219100
189.304747,3775.050304,8364.327145,459.657299
189.305068,3552.988522,8290.306550,0.000000
189.305389,3330.926739,8142.265362,-612.876398
189.305710,3552.988522,8586.388927,-306.438199
189.306031,3997.112087,8660.409521,0.000000
189.306352,4367.215058,8290.306550,0.000000
189.306673,4367.215058,7476.080014,459.657299
189.306994,5181.441594,7105.977043,766.095498
189.307315,5773.606348,6809.894666,76.609550
189.307636,5921.647536,7031.956449,0.000000
189.307957,6439.791695,7105.977043,-459.657299
189.308278,7402.059420,6883.915261,-612.876398
189.308599,7031.956449,6587.832884,-612.876398
189.308920,6883.915261,6809.894666,-612.876398
189.309240,6883.915261,7550.100608,-919.314598
189.309561,6365.771101,7476.080014,-766.095498
189.309882,5995.668130,7846.182985,-1302.362347
189.310203,5551.544565,7698.141797,-1302.362347
189.310524,5255.462188,8216.285956,-536.266849
189.310845,4441.235652,8586.388927,0.000000
189.311166,3775.050304,8660.409521,306.438199
189.311487,4145.153275,8882.471304,536.266849
189.311807,3849.070898,8734.430116,0.000000
189.312128,3701.029710,8438.347739,153.219100
189.312449,3627.009116,7846.182985,1072.533697
189.312770,3701.029710,7624.121203,766.095498
189.313091,4145.153275,7920.203579,919.314598
189.313412,4589.276840,7698.141797,459.657299
189.313733,5255.462188,7994.224174,-306.438199
189.314053,5477.523971,7698.141797,-459.657299
189.314374,5625.565159,8438.347739,-612.876398
189.314695,6365.771101,8882.471304,-383.047749
189.315016,6587.832884,8660.409521,-153.219100
189.315337,6735.874072,8438.347739,-153.219100
189.315658,6143.709319,8586.388927,-612.876398
189.315979,5551.544565,8734.430116,-612.876398
189.316300,5699.585753,8808.450710,-689.485948
189.316620,5329.482782,9104.533087,0.000000
189.316941,4811.338623,8882.471304,153.219100
189.317262,3997.112087,8734.430116,0.000000
189.317583,4071.132681,8512.368333,229.828649
189.317904,3182.885551,8438.347739,536.266849
189.318225,3034.844362,8142.265362,766.095498
189.318546,3256.906145,7772.162391,383.047749
189.318866,3404.947333,7994.224174,306.438199
189.319187,3775.050304,7920.203579,383.047749
189.319508,4071.132681,8068.244768,612.876398
189.319829,4737.318029,7994.224174,153.219100
189.320150,5181.441594,7550.100608,-153.219100
189.320471,5847.626942,7105.977043,-842.705048
189.320792,6365.771101,7179.997637,-995.924147
189.321113,6809.894666,7328.038826,-459.657299
189.321433,7179.997637,7402.059420,-383.047749
189.321754,7031.956449,7031.956449,-1072.533697
189.322075,7105.977043,7031.956449,-1302.362347
189.322396,6587.832884,7105.977043,-1455.581446
189.322717,5995.668130,7550.100608,-1149.143247
189.323038,5699.585753,7698.141797,-766.095498
189.323359,5181.441594,8068.244768,-766.095498
189.323680,4885.359217,7772.162391,-229.828649
189.324000,4071.132681,8216.285956,76.609550
189.324321,3404.947333,8734.430116,383.047749
189.324642,3182.885551,8290.306550,306.438199
189.324963,3256.906145,8882.471304,842.705048
189.325284,3034.844362,8956.491898,766.095498
189.325605,3552.988522,8512.368333,383.047749
189.325926,3478.967927,8734.430116,306.438199
189.326246,4071.132681,8512.368333,153.219100
189.326567,4219.173869,7994.224174,689.485948
189.326888,4885.359217,7920.203579,0.000000
189.327209,5477.523971,7698.141797,-153.219100
189.327530,5995.668130,8216.285956,-229.828649
189.327851,6587.832884,8512.368333,-536.266849
189.328172,7031.956449,8216.285956,-383.047749
189.328493,7105.977043,7624.121203,-459.657299
189.328813,7031.956449,7550.100608,-612.876398
189.329134,6439.791695,7846.182985,-995.924147
189.329455,6291.750507,8142.265362,-689.485948
189.329776,5995.668130,8216.285956,-919.314598
189.330097,5699.585753,8216.285956,-1072.533697
189.330418,4959.379811,8216.285956,-766.095498
189.330739,4663.297435,8290.306550,-153.219100
189.331059,3552.988522,8660.409521,-153.219100
189.331380,3108.864956,8512.368333,76.609550
189.331701,3182.885551,8438.347739,229.828649
189.332022,3256.906145,8290.306550,76.609550
189.332343,3256.906145,8068.244768,459.657299
189.332664,3627.009116,8290.306550,459.657299
189.332985,3997.112087,8216.285956,76.609550
189.333306,4071.132681,7920.203579,-76.609550
189.333626,4737.318029,7179.997637,-153.219100
189.333947,5551.544565,7476.080014,-229.828649
189.334268,6069.688724,7328.038826,0.000000
189.334589,6439.791695,7624.121203,-383.047749
189.334910,6587.832884,7402.059420,-612.876398
189.335231,6735.874072,7179.997637,-1149.143247
189.335552,6735.874072,7105.977043,-1302.362347
189.335872,6143.709319,7402.059420,-1532.190996
189.336193,6513.812290,7550.100608,-1149.143247
189.336514,5699.585753,8216.285956,-1302.362347
189.336835,5181.441594,8512.368333,-1072.533697
189.337156,4737.318029,8438.347739,-766.095498
189.337477,4367.215058,8734.430116,76.609550
189.337798,3997.112087,9030.512492,229.828649
189.338119,3775.050304,8956.491898,153.219100
189.338439,3404.947333,8882.471304,153.219100
189.338760,3404.947333,8808.450710,766.095498
189.339081,3775.050304,8142.265362,689.485948
189.339402,4071.132681,8142.265362,766.095498
189.339723,4219.173869,8216.285956,612.876398
189.340044,4219.173869,8438.347739,76.609550
189.340365,4959.379811,8142.265362,0.000000
189.340685,5551.544565,7920.203579,-229.828649
189.341006,6291.750507,7920.203579,229.828649
189.341327,6365.771101,7920.203579,153.219100
189.341648,6365.771101,8068.244768,459.657299
189.341969,5921.647536,8216.285956,-1225.752797
189.342290,5995.668130,8216.285956,-689.485948
189.342611,6069.688724,8586.388927,-842.705048
189.342932,5847.626942,8290.306550,-459.657299
189.343252,5477.523971,8142.265362,0.000000
189.343573,4663.297435,8142.265362,-229.828649
189.343894,4145.153275,8068.244768,0.000000
189.344215,3627.009116,8364.327145,0.000000
189.344536,3404.947333,8290.306550,153.219100
189.344857,3404.947333,7920.203579,612.876398
189.345178,3182.885551,7772.162391,459.657299
189.345498,3849.070898,7772.162391,0.000000
189.345819,3849.070898,7624.121203,153.219100
189.346140,3997.112087,7772.162391,76.609550
189.346461,4589.276840,7550.100608,-153.219100
189.346782,5181.441594,7105.977043,-383.047749
189.347103,5995.668130,7031.956449,-383.047749
189.347424,6661.853478,7179.997637,-612.876398
189.347745,6809.894666,7179.997637,-536.266849
189.348065,7179.997637,7550.100608,-766.095498
189.348386,7105.977043,6809.894666,-842.705048
189.348707,7105.977043,7105.977043,-1225.752797
189.349028,6957.935855,7179.997637,-1225.752797
189.349349,6587.832884,7846.182985,-153.219100
189.349670,5847.626942,7846.182985,-919.314598
189.349991,5181.441594,8290.306550,-689.485948
189.350312,4663.297435,8512.368333,-383.047749
189.350632,4293.194464,8512.368333,0.000000
189.350953,3478.967927,9474.636058,0.000000
189.351274,3182.885551,9548.656652,153.219100
189.351595,2738.761985,9178.553681,766.095498
189.351916,3330.926739,8956.491898,842.705048
189.352237,3330.926739,9252.574275,1532.190996
189.352558,3478.967927,8586.388927,919.314598
189.352878,3627.009116,8438.347739,689.485948
189.353199,3997.112087,8216.285956,153.219100
189.353520,4811.338623,7994.224174,-229.828649
189.353841,5699.585753,7920.203579,76.609550
189.354162,6069.688724,7994.224174,76.609550
189.354483,6365.771101,8142.265362,-383.047749
189.354804,6883.915261,7994.224174,-459.657299
189.355125,7105.977043,7772.162391,-995.924147
189.355445,7105.977043,8068.244768,-766.095498
189.355766,6809.894666,7920.203579,-689.485948
189.356087,6883.915261,7994.224174,-919.314598
189.356408,6143.709319,7846.182985,-995.924147
189.356729,5477.523971,7994.224174,-919.314598
189.357050,4959.379811,7994.224174,-766.095498
189.357371,4293.194464,8142.265362,-536.266849
189.357691,3775.050304,8216.285956,0.000000
189.358012,3182.885551,8142.265362,459.657299
189.358333,3034.844362,8142.265362,459.657299
189.358654,2960.823768,8660.409521,1072.533697
189.358975,3108.864956,7920.203579,229.828649
189.359296,3108.864956,8512.368333,306.438199
189.359617,3552.988522,8216.285956,-306.438199
189.359938,3923.091493,8068.244768,-229.828649
189.360258,4885.359217,7698.141797,0.000000
189.360579,5403.503377,7624.121203,-383.047749
189.360900,5773.606348,7328.038826,-229.828649
189.361221,6217.729913,7328.038826,-383.047749
189.361542,6661.853478,7550.100608,-612.876398
189.361863,6809.894666,7105.977043,-536.266849
189.362184,6957.935855,7031.956449,-689.485948
189.362504,6809.894666,7031.956449,-306.438199
189.362825,6587.832884,7179.997637,-919.314598
189.363146,6143.709319,7624.121203,-1225.752797
189.363467,5551.544565,8216.285956,-1149.143247
189.363788,5181.441594,8068.244768,-689.485948
189.364109,4811.338623,8438.347739,0.000000
189.364430,4515.256246,8734.430116,153.219100
189.364751,4071.132681,9030.512492,76.609550
189.365071,3849.070898,8956.491898,383.047749
189.365392,4219.173869,8512.368333,612.876398
189.365713,3849.070898,8216.285956,842.705048
189.366034,3997.112087,7994.224174,612.876398
189.366355,4071.132681,8290.306550,459.657299
189.366676,4441.235652,8290.306550,229.828649
189.366997,4959.379811,7846.182985,-229.828649
189.367317,5329.482782,7698.141797,-229.828649
189.367638,5551.544565,8068.244768,0.000000
189.367959,5995.668130,8068.244768,76.609550
189.368280,6143.709319,8438.347739,-459.657299
189.368601,6143.709319,7994.224174,0.000000
189.368922,5995.668130,8364.327145,-383.047749
189.369243,5625.565159,8364.327145,-306.438199
189.369564,5403.503377,8660.409521,-689.485948
189.369884,5255.462188,8216.285956,-459.657299
189.370205,4737.318029,8290.306550,-536.266849
189.370526,3923.091493,8364.327145,-306.438199
189.370847,3478.967927,8660.409521,0.000000
189.371168,2960.823768,8438.347739,0.000000
189.371489,3330.926739,8438.347739,153.219100
189.371810,2960.823768,8068.244768,459.657299
189.372130,3256.906145,8290.306550,0.000000
189.372451,3404.947333,8142.265362,76.609550
189.372772,3478.967927,8882.471304,536.266849
189.373093,4071.132681,7920.203579,0.000000
189.373414,4589.276840,7550.100608,-229.828649
189.373735,5477.523971,7254.018232,-153.219100
189.374056,5847.626942,7402.059420,-383.047749
189.374377,6587.832884,7550.100608,-229.828649
189.374697,6365.771101,7550.100608,-459.657299
189.375018,6883.915261,7254.018232,-1149.143247
189.375339,6883.915261,7105.977043,-1302.362347
189.375660,6661.853478,7328.038826,-1149.143247
189.375981,6143.709319,8068.244768,-1072.533697
189.376302,5995.668130,8068.244768,-689.485948
189.376623,5477.523971,8290.306550,-919.314598
189.376944,5033.400406,8142.265362,-612.876398
189.377264,4737.318029,8660.409521,-383.047749
189.377585,3997.112087,8364.327145,0.000000
189.377906,3627.009116,8882.471304,536.266849
189.378227,3552.988522,8734.430116,689.485948
189.378548,3627.009116,8882.471304,842.705048
189.378869,3775.050304,8290.306550,1149.143247
189.379190,3552.988522,8290.306550,995.924147
189.379510,3997.112087,8364.327145,306.438199
189.379831,4367.215058,7994.224174,229.828649
189.380152,4885.359217,7476.080014,0.000000
189.380473,5625.565159,7772.162391,153.219100
189.380794,6143.709319,7772.162391,0.000000
189.381115,6513.812290,7698.141797,0.000000
189.381436,6587.832884,8142.265362,-689.485948
189.381757,6809.894666,8142.265362,-459.657299
189.382077,7031.956449,8290.306550,-612.876398
189.382398,6587.832884,8216.285956,-689.485948
189.382719,6365.771101,7994.224174,-766.095498
189.383040,6069.688724,8142.265362,-612.876398
189.383361,5255.462188,8142.265362,-459.657299
189.383682,4959.379811,8364.327145,-383.047749
189.384003,4293.194464,8512.368333,153.219100
189.384323,3552.988522,8290.306550,459.657299
189.384644,3330.926739,8142.265362,306.438199
189.384965,3034.844362,7772.162391,383.047749
189.385286,3404.947333,7772.162391,383.047749
189.385607,3330.926739,8142.265362,153.219100
189.385928,3404.947333,8142.265362,229.828649
189.386249,3997.112087,7920.203579,0.000000
189.386570,4441.235652,8068.244768,0.000000
189.386890,4811.338623,7846.182985,-306.438199
189.387211,5625.565159,7402.059420,-612.876398
189.387532,6143.709319,7105.977043,-229.828649
189.387853,6365.771101,7624.121203,-536.266849
189.388174,6735.874072,7476.080014,-612.876398
189.388495,7254.018232,7254.018232,-766.095498
189.388816,6957.935855,7105.977043,-995.924147
189.389136,6365.771101,7254.018232,-689.485948
189.389457,6291.750507,7550.100608,-689.485948
189.389778,5847.626942,7846.182985,-842.705048
189.390099,5255.462188,8216.285956,-842.705048
189.390420,4811.338623,8290.306550,-536.266849
189.390741,4367.215058,8956.491898,-229.828649
189.391062,3997.112087,8882.471304,229.828649
189.391383,3627.009116,9178.553681,383.047749
189.391703,3775.050304,8808.450710,229.828649
189.392024,3404.947333,9104.533087,459.657299
189.392345,3330.926739,8586.388927,842.705048
189.392666,3256.906145,8438.347739,842.705048
189.392987,3701.029710,8512.368333,383.047749
189.393308,4071.132681,8216.285956,153.219100
189.393629,4663.297435,7846.182985,0.000000
189.393949,5181.441594,7698.141797,0.000000
189.394270,5699.585753,8142.265362,76.609550
189.394591,6143.709319,8142.265362,0.000000
189.394912,6365.771101,7920.203579,229.828649
189.395233,6143.709319,8216.285956,-383.047749
189.395554,6365.771101,8068.244768,-536.266849
189.395875,6069.688724,8290.306550,-459.657299
189.396196,5995.668130,8290.306550,-766.095498
189.396516,5773.606348,8068.244768,-689.485948
189.396837,5329.482782,8142.265362,-76.609550
189.397158,4885.359217,8290.306550,-459.657299
189.397479,4219.173869,8142.265362,0.000000
189.397800,3775.050304,8364.327145,153.219100
189.398121,3478.967927,8068.244768,0.000000
189.398442,3627.009116,7920.203579,306.438199
189.398762,3997.112087,7846.182985,0.000000
189.399083,4071.132681,7920.203579,0.000000
189.399404,4441.235652,7698.141797,459.657299
189.399725,4367.215058,7624.121203,153.219100
189.400046,5403.503377,7105.977043,-229.828649
189.400367,5773.606348,7179.997637,-383.047749
189.400688,6439.791695,7031.956449,-536.266849
189.401009,6735.874072,7105.977043,-459.657299
189.401329,6883.915261,7105.977043,-612.876398
189.401650,7105.977043,7031.956449,-1149.143247
189.401971,6957.935855,7105.977043,-1225.752797
189.402292,6513.812290,7328.038826,-1072.533697
189.402613,6291.750507,7624.121203,-612.876398
189.402934,6069.688724,8216.285956,-995.924147
189.403255,5255.462188,8364.327145,-995.924147
189.403576,4737.318029,8734.430116,-383.047749
189.403896,4293.194464,8808.450710,-306.438199
189.404217,3701.029710,9178.553681,153.219100
189.404538,3404.947333,9400.615463,459.657299
189.404859,3034.844362,9252.574275,536.266849
189.405180,2886.803174,9326.594869,919.314598
189.405501,2886.803174,9030.512492,842.705048
189.405822,3182.885551,8734.430116,766.095498
189.406142,3256.906145,8734.430116,536.266849
189.406463,3923.091493,8216.285956,306.438199
189.406784,4367.215058,7994.224174,612.876398
189.407105,4811.338623,7846.182985,612.876398
189.407426,5403.503377,7846.182985,76.609550
189.407747,5921.647536,8068.244768,-229.828649
189.408068,6291.750507,8438.347739,-536.266849
189.408389,6513.812290,8438.347739,-612.876398
189.408710,6661.853478,8290.306550,-536.266849
189.409031,6661.853478,8142.265362,-689.485948
189.409352,6217.729913,8216.285956,-612.876398
189.409672,5847.626942,8068.244768,-919.314598
189.409993,5255.462188,8364.327145,0.000000
189.410314,4811.338623,7920.203579,-153.219100
189.410635,4663.297435,7994.224174,0.000000
189.410956,3775.050304,8290.306550,76.609550
189.411277,3404.947333,8068.244768,229.828649
189.411598,3330.926739,7994.224174,689.485948
189.411919,3330.926739,7698.141797,383.047749
189.412240,3478.967927,7772.162391,459.657299
189.412561,3552.988522,7994.224174,689.485948
189.412882,4367.215058,7328.038826,0.000000
189.413203,4737.318029,7698.141797,153.219100
189.413524,5255.462188,7105.977043,-306.438199
189.413845,6069.688724,6809.894666,-383.047749
189.414166,6439.791695,6957.935855,-459.657299
189.414487,6809.894666,7031.956449,-612.876398
189.414808,7105.977043,7105.977043,-766.095498
189.415128,7179.997637,7031.956449,-1149.143247
189.415449,7254.018232,6883.915261,-842.705048
189.415770,7031.956449,6957.935855,-459.657299
189.416091,6513.812290,7402.059420,-1149.143247
189.416412,6217.729913,7772.162391,-995.924147
189.416733,5551.544565,7994.224174,-1149.143247
189.417054,4737.318029,8438.347739,-995.924147
189.417375,4589.276840,8216.285956,-306.438199
189.417696,3997.112087,8808.450710,229.828649
189.418017,3478.967927,9400.615463,536.266849
189.418338,3256.906145,9326.594869,536.266849
189.418659,3108.864956,9104.533087,153.219100
189.418980,3256.906145,8364.327145,612.876398
189.419301,3627.009116,8364.327145,536.266849
189.419622,3849.070898,8290.306550,0.000000
189.419943,3849.070898,8290.306550,76.609550
189.420264,4663.297435,8364.327145,-383.047749
189.420585,5181.441594,8660.409521,-612.876398
189.420905,5625.565159,8438.347739,-229.828649
189.421226,6217.729913,8512.368333,0.000000
189.421547,6143.709319,8586.388927,0.000000
189.421868,6291.750507,8512.368333,-229.828649
189.422189,5921.647536,8512.368333,-612.876398
189.422510,5995.668130,8512.368333,-306.438199
189.422831,5773.606348,8512.368333,-995.924147
189.423152,5255.462188,8586.388927,-536.266849
189.423473,4737.318029,8660.409521,-459.657299
189.423794,4145.153275,8808.450710,-612.876398
189.424115,3923.091493,8364.327145,76.609550
189.424436,2960.823768,8660.409521,612.876398
189.424757,3108.864956,8290.306550,306.438199
189.425078,3256.906145,8364.327145,229.828649
189.425399,3478.967927,8068.244768,76.609550
189.425720,3775.050304,8142.265362,536.266849
189.426041,3775.050304,8216.285956,229.828649
189.426362,4441.235652,7772.162391,0.000000
189.426682,4737.318029,7476.080014,-459.657299
189.427003,5477.523971,7105.977043,-306.438199
189.427324,6217.729913,7105.977043,-229.828649
189.427645,7254.018232,7179.997637,-842.705048
189.427966,7105.977043,7105.977043,-383.047749
189.428287,7179.997637,6809.894666,-689.485948
189.428608,7179.997637,6661.853478,-995.924147
189.428929,7550.100608,6735.874072,-995.924147
189.429250,6735.874072,6957.935855,-1072.533697
189.429571,6069.688724,7402.059420,-919.314598
189.429892,5625.565159,7698.141797,-612.876398
189.430213,5181.441594,7846.182985,-306.438199
189.430534,4737.318029,8142.265362,-229.828649
189.430855,3997.112087,8290.306550,0.000000
189.431176,3775.050304,8586.388927,229.828649
189.431497,3552.988522,8586.388927,459.657299
189.431818,3701.029710,8586.388927,1225.752797
189.432139,3552.988522,8586.388927,842.705048
189.432459,3701.029710,8364.327145,995.924147
189.432780,3256.906145,8660.409521,306.438199
189.433101,3701.029710,7994.224174,0.000000
189.433422,4737.318029,7920.203579,0.000000
189.433743,5181.441594,7920.203579,0.000000
189.434064,5625.565159,7920.203579,0.000000
189.434385,5921.647536,7994.224174,-229.828649
189.434706,6439.791695,8512.368333,-306.438199
189.435027,6735.874072,8438.347739,-842.705048
189.435348,6439.791695,8290.306550,-229.828649
189.435669,6587.832884,8512.368333,-842.705048
189.435990,6069.688724,8290.306550,-459.657299
189.436311,5847.626942,8808.450710,-689.485948
189.436632,5107.421000,8586.388927,-689.485948
189.436953,4737.318029,8142.265362,-536.266849
189.437274,4441.235652,8586.388927,76.609550
189.437595,3478.967927,8808.450710,0.000000
189.437916,3034.844362,8512.368333,153.219100
189.438236,2886.803174,8586.388927,383.047749
189.438557,3034.844362,8734.430116,306.438199
189.438878,3404.947333,8068.244768,229.828649
189.439199,3552.988522,8290.306550,612.876398
189.439520,3775.050304,8512.368333,-153.219100
189.439841,3997.112087,8216.285956,0.000000
189.440162,4737.318029,7772.162391,0.000000
189.440483,5551.544565,7550.100608,-536.266849
189.440804,5921.647536,7402.059420,-229.828649
189.441125,6365.771101,7476.080014,-383.047749
189.441446,6809.894666,7402.059420,-383.047749
189.441767,6735.874072,7254.018232,-1072.533697
189.442088,6809.894666,7105.977043,-689.485948
189.442409,6735.874072,6883.915261,-229.828649
189.442730,6513.812290,7179.997637,-536.266849
189.443051,6069.688724,7920.203579,-919.314598
189.443372,5625.565159,7846.182985,-1072.533697
189.443693,4811.338623,8142.265362,-689.485948
189.444013,4737.318029,8068.244768,0.000000
189.444334,4589.276840,8364.327145,153.219100
189.444655,3923.091493,8734.430116,383.047749
189.444976,3923.091493,8808.450710,0.000000
189.445297,4219.173869,8660.409521,0.000000
189.445618,3997.112087,7994.224174,536.266849
189.445939,4441.235652,7624.121203,689.485948
189.446260,4515.256246,7698.141797,612.876398
189.446581,4589.276840,7920.203579,76.609550
189.446902,5403.503377,7624.121203,-306.438199
189.447223,5625.565159,7846.182985,-306.438199
189.447544,6069.688724,7772.162391,-459.657299
189.447865,6587.832884,7920.203579,0.000000
189.448186,6513.812290,8142.265362,76.609550
189.448507,6661.853478,7920.203579,-383.047749
189.448828,6217.729913,8438.347739,-612.876398
189.449149,5773.606348,8068.244768,-459.657299
189.449470,5847.626942,8290.306550,-536.266849
189.449790,5699.585753,8438.347739,-536.266849
189.450111,4589.276840,8660.409521,-306.438199
189.450432,4441.235652,8216.285956,-383.047749
189.450753,3775.050304,8512.368333,0.000000
189.451074,3256.906145,8364.327145,459.657299
189.451395,3034.844362,8660.409521,995.924147
189.451716,2886.803174,8512.368333,153.219100
189.452037,2886.803174,8438.347739,0.000000
189.452358,3330.926739,8290.306550,306.438199
189.452679,3330.926739,8438.347739,153.219100
189.453000,3775.050304,8586.388927,0.000000
189.453321,4515.256246,7772.162391,76.609550
189.453642,4959.379811,7624.121203,-459.657299
189.453963,5625.565159,7698.141797,-536.266849
189.454284,6365.771101,7476.080014,-459.657299
189.454605,6143.709319,7550.100608,-536.266849
189.454926,6587.832884,7550.100608,-689.485948
189.455247,6735.874072,7105.977043,-1225.752797
189.455567,6661.853478,7328.038826,-1072.533697
189.455888,6809.894666,7254.018232,-1072.533697
189.456209,6143.709319,8068.244768,-995.924147
189.456530,5773.606348,7920.203579,-306.438199
189.456851,5255.462188,8216.285956,-689.485948
189.457172,4737.318029,8512.368333,-459.657299
189.457493,4367.215058,8734.430116,-76.609550
189.457814,3997.112087,8808.450710,0.000000
189.458135,3701.029710,9104.533087,842.705048
189.458456,3404.947333,9178.553681,536.266849
189.458777,3627.009116,8438.347739,689.485948
189.459098,3775.050304,8068.244768,612.876398
189.459419,3775.050304,7994.224174,612.876398
189.459740,4145.153275,7920.203579,153.219100
189.460061,4737.318029,7698.141797,76.609550
189.460382,5403.503377,7402.059420,153.219100
189.460703,5847.626942,7624.121203,-153.219100
189.461024,6365.771101,7476.080014,-229.828649
189.461344,6735.874072,7994.224174,0.000000
189.461665,6957.935855,7698.141797,-536.266849
189.461986,6957.935855,7772.162391,-1149.143247
189.462307,7105.977043,7550.100608,-842.705048
189.462628,6957.935855,7920.203579,-766.095498
189.462949,6957.935855,7994.224174,-1225.752797
189.463270,6217.729913,7920.203579,-842.705048
189.463591,5329.482782,7772.162391,-612.876398
189.463912,4811.338623,8068.244768,-459.657299
189.464233,4219.173869,8068.244768,-306.438199
189.464554,4219.173869,8290.306550,-306.438199
189.464875,3478.967927,8364.327145,536.266849
189.465196,3108.864956,8068.244768,536.266849
189.465517,3478.967927,7846.182985,383.047749
189.465838,3330.926739,8290.306550,612.876398
189.466159,3627.009116,8586.388927,612.876398
189.466480,3701.029710,8068.244768,0.000000
189.466801,4441.235652,7698.141797,0.000000
189.467121,5255.462188,7328.038826,0.000000
189.467442,5255.462188,7550.100608,-229.828649
189.467763,5847.626942,7994.224174,-459.657299
189.468084,6143.709319,8068.244768,-842.705048
189.468405,6069.688724,7624.121203,-995.924147
189.468726,6365.771101,7402.059420,-842.705048
189.469047,5921.647536,7476.080014,-536.266849
189.469368,6143.709319,7920.203579,-995.924147
189.469689,5551.544565,7994.224174,-919.314598
189.470010,4811.338623,8290.306550,-919.314598
189.470331,4737.318029,8438.347739,-536.266849
189.470652,4589.276840,8290.306550,0.000000
189.470973,4219.173869,8956.491898,0.000000
189.471294,3478.967927,9400.615463,153.219100
189.471615,3478.967927,9030.512492,383.047749
189.471936,3330.926739,9030.512492,153.219100
189.472257,3775.050304,8290.306550,459.657299
189.472577,4071.132681,7920.203579,536.266849
189.472898,3997.112087,8290.306550,229.828649
189.473219,4663.297435,7920.203579,229.828649
189.473540,5107.421000,7920.203579,-153.219100
189.473861,5699.585753,7550.100608,-536.266849
189.474182,6513.812290,7698.141797,-383.047749
189.474503,6291.750507,8216.285956,0.000000
189.474824,6957.935855,7994.224174,-383.047749
189.475145,6439.791695,8364.327145,-536.266849
189.475466,6439.791695,8142.265362,-919.314598
189.475787,6661.853478,8142.265362,-842.705048
189.476108,5921.647536,8438.347739,-612.876398
189.476429,5551.544565,8586.388927,-612.876398
189.476750,4885.359217,8734.430116,-689.485948
189.477071,4441.235652,8808.450710,-689.485948
189.477392,3478.967927,8586.388927,0.000000
189.477713,3404.947333,8512.368333,306.438199
189.478034,3034.844362,8734.430116,76.609550
189.478354,2738.761985,8512.368333,306.438199
189.478675,2886.803174,8216.285956,383.047749
189.478996,3627.009116,7920.203579,0.000000
189.479317,3478.967927,8142.265362,383.047749
189.479638,3701.029710,8068.244768,0.000000
189.479959,4219.173869,7920.203579,0.000000
189.480280,4885.359217,7402.059420,-383.047749
189.480601,5921.647536,7179.997637,-612.876398
189.480922,6809.894666,7105.977043,-229.828649
189.481243,6957.935855,7476.080014,-383.047749
189.481564,7254.018232,7031.956449,-689.485948
189.481885,7031.956449,6883.915261,-1225.752797
189.482206,7105.977043,7031.956449,-1072.533697
189.482527,7031.956449,7105.977043,-1149.143247
189.482848,6365.771101,7402.059420,-842.705048
189.483169,5847.626942,7476.080014,-1225.752797
189.483490,5329.482782,7920.203579,-1225.752797
189.483811,4959.379811,8290.306550,-459.657299
189.484131,4145.153275,8586.388927,76.609550
189.484452,3330.926739,8956.491898,306.438199
189.484773,3330.926739,9030.512492,842.705048
189.485094,3108.864956,9178.553681,842.705048
189.485415,2738.761985,8808.450710,766.095498
189.485736,2886.803174,8512.368333,919.314598
189.486057,2960.823768,8290.306550,842.705048
189.486378,3256.906145,8216.285956,536.266849
189.486699,3627.009116,8364.327145,536.266849
189.487020,4515.256246,8364.327145,0.000000
189.487341,5181.441594,8216.285956,0.000000
189.487662,5625.565159,8142.265362,153.219100
189.487983,6069.688724,8364.327145,0.000000
189.488304,6365.771101,8586.388927,-383.047749
189.488625,6809.894666,8586.388927,-459.657299
189.488946,6883.915261,8216.285956,-689.485948
189.489267,6661.853478,8142.265362,-842.705048
189.489588,6069.688724,8438.347739,-536.266849
189.489908,5773.606348,7772.162391,-383.047749
189.490229,5551.544565,7994.224174,-689.485948
189.490550,4885.359217,8068.244768,-459.657299
189.490871,4441.235652,8364.327145,536.266849
189.491192,4071.132681,8290.306550,383.047749
189.491513,3552.988522,8068.244768,459.657299
189.491834,3627.009116,7772.162391,459.657299
189.492155,3552.988522,7920.203579,459.657299
189.492476,3701.029710,7920.203579,459.657299
189.492797,3997.112087,8142.265362,306.438199
189.493118,4441.235652,7550.100608,76.609550
189.493439,4885.359217,7328.038826,0.000000
189.493760,5551.544565,7179.997637,-306.438199
189.494081,6143.709319,7254.018232,0.000000
189.494402,6809.894666,7105.977043,-306.438199
189.494723,7031.956449,6957.935855,-612.876398
189.495044,7402.059420,7105.977043,-766.095498
189.495365,7105.977043,6883.915261,-995.924147
189.495685,6957.935855,6957.935855,-919.314598
189.496006,6439.791695,7105.977043,-919.314598
189.496327,6291.750507,7402.059420,-1072.533697
189.496648,5551.544565,7772.162391,-766.095498
189.496969,5181.441594,7698.141797,-919.314598
189.497290,4589.276840,8142.265362,-383.047749
189.497611,4145.153275,8586.388927,-153.219100
189.497932,3701.029710,9104.533087,0.000000
189.498253,3775.050304,9474.636058,306.438199
189.498574,3108.864956,8956.491898,383.047749
189.498895,3108.864956,8808.450710,153.219100
189.499216,2886.803174,8808.450710,229.828649
189.499537,3034.844362,9252.574275,306.438199
189.499858,3627.009116,8956.491898,-306.438199
189.500179,4145.153275,8808.450710,76.609550
189.500500,4737.318029,8438.347739,-229.828649
189.500821,4737.318029,8438.347739,-153.219100
189.501142,5181.441594,8586.388927,0.000000
189.501462,5921.647536,8808.450710,76.609550
189.501783,5921.647536,8512.368333,-229.828649
189.502104,5995.668130,8586.388927,-536.266849
189.502425,5847.626942,8512.368333,-459.657299
189.502746,5847.626942,8882.471304,-306.438199
189.503067,5995.668130,8734.430116,-459.657299
189.503388,5847.626942,9030.512492,-383.047749
189.503709,4959.379811,8660.409521,-459.657299
189.504030,4367.215058,8512.368333,76.609550
189.504351,3997.112087,8290.306550,153.219100
189.504672,3923.091493,8512.368333,612.876398
189.504993,3404.947333,8364.327145,306.438199
189.505314,3775.050304,7920.203579,153.219100
189.505635,4219.173869,7846.182985,229.828649
189.505956,4145.153275,7772.162391,459.657299
189.506277,4071.132681,8068.244768,383.047749
189.506598,4737.318029,7328.038826,0.000000
189.506919,5477.523971,7105.977043,0.000000
189.507239,6143.709319,6957.935855,-459.657299
189.507560,6883.915261,6735.874072,-536.266849
189.507881,7328.038826,7105.977043,-536.266849
189.508202,7179.997637,6735.874072,-536.266849
189.508523,7328.038826,6365.771101,-995.924147
189.508844,7179.997637,6217.729913,-1149.143247
189.509165,7105.977043,6513.812290,-919.314598
189.509486,6957.935855,7105.977043,-919.314598
189.509807,6143.709319,7105.977043,-995.924147
189.510128,5255.462188,7846.182985,-1225.752797
189.510449,4885.359217,7920.203579,-689.485948
189.510770,4293.194464,8216.285956,0.000000
189.511091,4071.132681,8882.471304,459.657299
189.511412,3775.050304,8660.409521,459.657299
189.511733,3182.885551,8882.471304,612.876398
189.512054,3330.926739,8512.368333,459.657299
189.512375,3404.947333,8216.285956,766.095498
189.512695,3256.906145,7920.203579,689.485948
189.513016,3552.988522,8068.244768,229.828649
189.513337,3849.070898,7994.224174,0.000000
189.513658,4515.256246,8142.265362,-229.828649
189.513979,4811.338623,8142.265362,-229.828649
189.514300,5255.462188,8808.450710,-536.266849
189.514621,5847.626942,8660.409521,-306.438199
189.514942,6291.750507,8808.450710,-536.266849
189.515263,6365.771101,9178.553681,-842.705048
189.515584,6217.729913,8956.491898,-1072.533697
189.515905,6069.688724,8882.471304,-612.876398
189.516226,5551.544565,9104.533087,-842.705048
189.516547,5477.523971,9104.533087,-766.095498
189.516868,4737.318029,8586.388927,-612.876398
189.517189,4293.194464,8512.368333,-229.828649
189.517510,3330.926739,8882.471304,0.000000
189.517830,2960.823768,8956.491898,459.657299
189.518151,2738.761985,8956.491898,612.876398
189.518472,2812.782580,8808.450710,689.485948
189.518793,3182.885551,8364.327145,76.609550
189.519114,3256.906145,8882.471304,76.609550
189.519435,3404.947333,8882.471304,76.609550
189.519756,3923.091493,8142.265362,0.000000
189.520077,4737.318029,7846.182985,0.000000
189.520398,5551.544565,7402.059420,-229.828649
189.520719,6439.791695,7105.977043,-383.047749
189.521040,6513.812290,7179.997637,-383.047749
189.521361,6957.935855,7031.956449,-842.705048
189.521682,7179.997637,6883.915261,-536.266849
189.522003,7328.038826,6513.812290,-995.924147
189.522324,7476.080014,6069.688724,-306.438199
189.522645,7550.100608,6587.832884,-995.924147
189.522965,7031.956449,7031.956449,-1149.143247
189.523286,6365.771101,7328.038826,-995.924147
189.523607,6069.688724,7402.059420,-995.924147
189.523928,5551.544565,7772.162391,-383.047749
189.524249,5181.441594,8068.244768,0.000000
189.524570,4737.318029,8216.285956,153.219100
189.524891,4441.235652,8512.368333,306.438199
189.525212,4219.173869,8216.285956,995.924147
189.525533,3923.091493,8660.409521,1225.752797
189.525854,3552.988522,7994.224174,536.266849
189.526175,3849.070898,7846.182985,1072.533697
189.526496,4145.153275,7920.203579,153.219100
189.526817,4515.256246,7846.182985,76.609550
189.527138,4737.318029,8142.265362,0.000000
189.527459,5403.503377,7920.203579,0.000000
189.527780,5699.585753,8290.306550,76.609550
189.528101,5995.668130,8364.327145,306.438199
189.528421,6069.688724,8438.347739,0.000000
189.528742,5995.668130,8438.347739,0.000000
189.529063,6069.688724,8734.430116,-76.609550
189.529384,5625.565159,8512.368333,-306.438199
189.529705,5551.544565,8734.430116,0.000000
189.530026,5181.441594,8586.388927,-229.828649
189.530347,4811.338623,8512.368333,0.000000
189.530668,3997.112087,8364.327145,-306.438199
189.530989,3701.029710,8364.327145,229.828649
189.531310,3478.967927,8586.388927,76.609550
189.531631,3478.967927,8364.327145,0.000000
189.531952,3330.926739,8364.327145,306.438199
189.532273,3404.947333,8290.306550,459.657299
189.532594,3701.029710,8142.265362,76.609550
189.532915,3701.029710,8512.368333,0.000000
189.533236,4293.194464,8068.244768,-306.438199
189.533556,4885.359217,7920.203579,-612.876398
189.533877,5477.523971,7698.141797,-536.266849
189.534198,5773.606348,7402.059420,-536.266849
189.534519,6365.771101,7476.080014,-306.438199
189.534840,6439.791695,7328.038826,-612.876398
189.535161,6587.832884,7328.038826,-1378.971896
189.535482,6587.832884,7105.977043,-842.705048
189.535803,6513.812290,7105.977043,-1072.533697
189.536124,6439.791695,7624.121203,-842.705048
189.536445,5921.647536,7624.121203,-766.095498
189.536766,5329.482782,7846.182985,-689.485948
189.537087,5033.400406,8216.285956,-612.876398
189.537408,4737.318029,8438.347739,-383.047749
189.537729,3997.112087,8956.491898,153.219100
189.538050,3775.050304,9104.533087,0.000000
189.538371,3552.988522,9252.574275,536.266849
189.538691,3701.029710,8586.388927,306.438199
189.539012,3627.009116,8142.265362,766.095498
189.539333,3849.070898,7994.224174,383.047749
189.539654,4145.153275,8142.265362,383.047749
189.539975,4441.235652,7920.203579,0.000000
189.540296,5255.462188,7772.162391,0.000000
189.540617,5551.544565,7772.162391,-229.828649
189.540938,5921.647536,7846.182985,-306.438199
189.541259,5995.668130,8068.244768,-153.219100
189.541580,6809.894666,7994.224174,0.000000
189.541901,6661.853478,8142.265362,-842.705048
189.542222,6365.771101,8290.306550,-536.266849
189.542543,6661.853478,7994.224174,-766.095498
189.542864,6291.750507,8216.285956,-689.485948
189.543185,5773.606348,8290.306550,-766.095498
189.543506,5033.400406,8216.285956,-766.095498
189.543826,4663.297435,8586.388927,-306.438199
189.544147,4071.132681,8364.327145,0.000000
189.544468,3330.926739,8808.450710,0.000000
189.544789,2812.782580,8586.388927,0.000000
189.545110,3034.844362,8364.327145,306.438199
189.545431,2738.761985,8364.327145,383.047749
189.545752,3108.864956,8364.327145,536.266849
189.546073,3478.967927,8660.409521,459.657299
189.546394,3775.050304,8216.285956,306.438199
189.546715,4441.235652,7846.182985,-76.609550
189.547036,4885.359217,7550.100608,0.000000
189.547357,5699.585753,7179.997637,0.000000
189.547678,6143.709319,7328.038826,-229.828649
189.547999,6957.935855,7550.100608,-612.876398
189.548320,6809.894666,7105.977043,-612.876398
189.548641,7105.977043,7031.956449,-766.095498
189.548962,6809.894666,7031.956449,-842.705048
189.549282,6513.812290,7254.018232,-1378.971896
189.549603,6291.750507,7550.100608,-995.924147
189.549924,5477.523971,8142.265362,-1302.362347
189.550245,5181.441594,8142.265362,-995.924147
189.550566,4885.359217,8290.306550,-536.266849
189.550887,4441.235652,8438.347739,536.266849
189.551208,3849.070898,8660.409521,229.828649
189.551529,3849.070898,8660.409521,919.314598
189.551850,3552.988522,8512.368333,459.657299
189.552171,3478.967927,8364.327145,536.266849
189.552492,3182.885551,8290.306550,536.266849
189.552813,3701.029710,7698.141797,612.876398
189.553134,4071.132681,7624.121203,153.219100
189.553455,4441.235652,7994.224174,153.219100
189.553776,5033.400406,8068.244768,-153.219100
189.554097,5847.626942,7994.224174,153.219100
189.554417,6365.771101,7994.224174,76.609550
189.554738,6587.832884,8290.306550,-306.438199
189.555059,6809.894666,8364.327145,0.000000
189.555380,6513.812290,8216.285956,-536.266849
189.555701,6883.915261,8290.306550,-766.095498
189.556022,6217.729913,8216.285956,-766.095498
189.556343,5995.668130,8364.327145,-1072.533697
189.556664,5773.606348,8290.306550,-766.095498
189.556985,5033.400406,8216.285956,-459.657299
189.557306,4589.276840,8364.327145,0.000000
189.557627,4071.132681,8142.265362,383.047749
189.557948,3849.070898,8142.265362,766.095498
189.558269,3478.967927,7994.224174,459.657299
189.558590,3552.988522,7994.224174,153.219100
189.558911,3478.967927,8290.306550,229.828649
189.559232,3775.050304,8290.306550,459.657299
189.559552,3923.091493,8142.265362,459.657299
189.559873,4515.256246,7994.224174,-76.609550
189.560194,4811.338623,7994.224174,-306.438199
189.560515,5255.462188,7624.121203,-1225.752797
189.560836,5699.585753,7476.080014,-306.438199
189.561157,6217.729913,7476.080014,-153.219100
189.561478,6365.771101,7476.080014,-383.047749
189.561799,6217.729913,7476.080014,-919.314598
189.562120,6217.729913,7179.997637,-1072.533697
189.562441,5995.668130,7328.038826,-919.314598
189.562762,5699.585753,7328.038826,-842.705048
189.563083,5477.523971,7698.141797,-612.876398
189.563404,4959.379811,7994.224174,-689.485948
189.563725,4515.256246,7920.203579,-383.047749
189.564046,4367.215058,8216.285956,-306.438199
189.564367,3923.091493,8808.450710,76.609550
189.564687,3552.988522,8882.471304,76.609550
189.565008,3997.112087,8438.347739,842.705048
189.565329,3775.050304,8290.306550,536.266849
189.565650,3775.050304,8216.285956,689.485948
189.565971,3923.091493,8068.244768,459.657299
189.566292,4145.153275,8142.265362,0.000000
189.566613,4441.235652,8068.244768,-229.828649
189.566934,4737.318029,7624.121203,-229.828649
189.567255,5773.606348,7698.141797,0.000000
189.567576,5921.647536,7698.141797,0.000000
189.567897,6069.688724,7920.203579,-306.438199
189.568218,6365.771101,8142.265362,0.000000
189.568539,6365.771101,8290.306550,-612.876398
189.568860,6217.729913,8364.327145,-459.657299
189.569181,6291.750507,8512.368333,-612.876398
189.569502,6069.688724,8586.388927,-612.876398
189.569822,5403.503377,8660.409521,-919.314598
189.570143,4811.338623,8438.347739,-536.266849
189.570464,4515.256246,8290.306550,-153.219100
189.570785,3997.112087,8512.368333,76.609550
189.571106,3627.009116,8512.368333,306.438199
189.571427,3034.844362,8734.430116,459.657299
189.571748,3330.926739,8438.347739,536.266849
189.572069,3478.967927,8142.265362,842.705048
189.572390,3701.029710,8364.327145,459.657299
189.572711,3775.050304,8290.306550,919.314598
189.573032,4589.276840,7994.224174,229.828649
189.573353,4959.379811,7402.059420,229.828649
189.573674,5773.606348,6957.935855,-459.657299
189.573995,6217.729913,7179.997637,-153.219100
189.574316,6809.894666,6809.894666,-536.266849
189.574637,7105.977043,7105.977043,-766.095498
189.574958,7254.018232,7179.997637,-995.924147
189.575278,7105.977043,6883.915261,-919.314598
189.575599,7476.080014,6883.915261,-919.314598
189.575920,6883.915261,7105.977043,-766.095498
189.576241,6513.812290,7402.059420,-612.876398
189.576562,5773.606348,8142.265362,-1302.362347
189.576883,5181.441594,8364.327145,-1302.362347
189.577204,4663.297435,8290.306550,-689.485948
189.577525,3701.029710,8956.491898,0.000000
189.577846,3478.967927,8808.450710,612.876398
189.578167,3108.864956,8956.491898,536.266849
189.578488,2664.741391,8586.388927,612.876398
189.578809,2738.761985,8290.306550,919.314598
189.579130,2812.782580,8290.306550,1378.971896
189.579451,3182.885551,8142.265362,612.876398
189.579772,3775.050304,8068.244768,383.047749
189.580093,4293.194464,8290.306550,0.000000
189.580413,4737.318029,8068.244768,0.000000
189.580734,5329.482782,8290.306550,0.000000
189.581055,5995.668130,8290.306550,-383.047749
189.581376,6143.709319,8290.306550,-306.438199
189.581697,6365.771101,8660.409521,-612.876398
189.582018,6291.750507,8660.409521,-842.705048
189.582339,6291.750507,8586.388927,-919.314598
189.582660,6217.729913,8068.244768,-766.095498
189.582981,5921.647536,8290.306550,-689.485948
189.583302,5329.482782,8290.306550,-536.266849
189.583623,4959.379811,8216.285956,-306.438199
189.583944,4515.256246,7994.224174,-306.438199
189.584265,4219.173869,8068.244768,0.000000
189.584586,3849.070898,8290.306550,153.219100
189.584907,3256.906145,8512.368333,383.047749
189.585228,3552.988522,8068.244768,76.609550
189.585548,3627.009116,7920.203579,306.438199
189.585869,4071.132681,7994.224174,306.438199
189.586190,4219.173869,8216.285956,153.219100
189.586511,4589.276840,8068.244768,-306.438199
189.586832,5033.400406,7994.224174,-766.095498
189.587153,6069.688724,7402.059420,-383.047749
189.587474,6513.812290,7402.059420,-229.828649
189.587795,6735.874072,7105.977043,-306.438199
189.588116,6809.894666,7476.080014,-689.485948
189.588437,6735.874072,7105.977043,-919.314598
189.588758,6735.874072,6957.935855,-919.314598
189.589079,6957.935855,6957.935855,-766.095498
189.589400,6513.812290,7402.059420,-842.705048
189.589721,5921.647536,7772.162391,-306.438199
189.590042,5181.441594,8142.265362,-1072.533697
189.590363,4885.359217,8142.265362,-612.876398
189.590683,4515.256246,8216.285956,-459.657299
189.591004,4145.153275,8364.327145,-306.438199
189.591325,3849.070898,9030.512492,0.000000
189.591646,3404.947333,9030.512492,229.828649
189.591967,3627.009116,8512.368333,766.095498
189.592288,3552.988522,8586.388927,536.266849
189.592609,3404.947333,8290.306550,229.828649
189.592930,4145.153275,8660.409521,-76.609550
189.593251,3849.070898,8660.409521,153.219100
189.593572,4589.276840,8216.285956,0.000000
189.593893,5033.400406,7994.224174,0.000000
189.594214,5551.544565,7994.224174,-383.047749
189.594535,5773.606348,8290.306550,-76.609550
189.594856,5995.668130,8438.347739,0.000000
189.595177,5921.647536,8290.306550,-536.266849
189.595498,6217.729913,8290.306550,-306.438199
189.595819,6217.729913,8290.306550,0.000000
189.596139,5773.606348,8660.409521,-1149.143247
189.596460,5329.482782,8438.347739,-612.876398
189.596781,5033.400406,8290.306550,-612.876398
189.597102,4441.235652,8364.327145,-229.828649
189.597423,3997.112087,8956.491898,76.609550
189.597744,3404.947333,8734.430116,76.609550
189.598065,2960.823768,8512.368333,153.219100
189.598386,3108.864956,8142.265362,76.609550
189.598707,3108.864956,8216.285956,383.047749
189.599028,3627.009116,7994.224174,1149.143247
189.599349,3330.926739,8216.285956,459.657299
189.599670,4219.173869,7920.203579,0.000000
189.599991,4441.235652,7624.121203,-153.219100
189.600312,5255.462188,7179.997637,0.000000
189.600633,6513.812290,7328.038826,383.047749
189.600954,6661.853478,7105.977043,153.219100
189.601274,7031.956449,6883.915261,-919.314598
189.601595,7328.038826,6661.853478,-1072.533697
189.601916,7994.224174,6217.729913,-766.095498
189.602237,7698.141797,7031.956449,-459.657299
189.602558,7476.080014,6809.894666,-1225.752797
189.602879,6957.935855,7402.059420,-1225.752797
189.603200,6439.791695,7550.100608,-1302.362347
189.603521,5847.626942,7920.203579,-1149.143247
189.603842,5551.544565,8142.265362,-995.924147
189.604163,4959.379811,8216.285956,0.000000
189.604484,4441.235652,8660.409521,459.657299
189.604805,3849.070898,9178.553681,459.657299
189.605126,3478.967927,8660.409521,536.266849
189.605447,3108.864956,8586.388927,1072.533697
189.605768,3108.864956,8216.285956,536.266849
189.606089,3256.906145,7994.224174,536.266849
189.606409,3627.009116,8068.244768,536.266849
189.606730,4071.132681,8290.306550,229.828649
189.607051,4811.338623,8438.347739,0.000000
189.607372,4885.359217,8586.388927,-229.828649
189.607693,5625.565159,8438.347739,-306.438199
189.608014,6069.688724,8734.430116,0.000000
189.608335,6291.750507,8882.471304,0.000000
189.608656,5847.626942,8956.491898,-459.657299
189.608977,6143.709319,8586.388927,-919.314598
189.609298,5773.606348,8512.368333,-689.485948
189.609619,5699.585753,8660.409521,-459.657299
189.609940,5403.503377,8364.327145,-689.485948
189.610261,4885.359217,8512.368333,-383.047749
189.610581,4145.153275,8290.306550,0.000000
189.610902,3849.070898,8290.306550,229.828649
189.611223,3552.988522,8142.265362,306.438199
189.611544,3182.885551,8438.347739,612.876398
189.611865,3034.844362,8068.244768,76.609550
189.612186,3552.988522,8068.244768,0.000000
189.612506,3552.988522,8512.368333,153.219100
189.612827,3701.029710,8216.285956,0.000000
189.613148,3849.070898,8290.306550,-229.828649
189.613469,4367.215058,8068.244768,-536.266849
189.613790,5329.482782,7698.141797,-459.657299
189.614111,5847.626942,7402.059420,0.000000
189.614431,6143.709319,7772.162391,153.219100
189.614752,6513.812290,7624.121203,-536.266849
189.615073,6143.709319,7105.977043,-766.095498
189.615394,6365.771101,6957.935855,-995.924147
189.615715,6069.688724,7105.977043,-612.876398
189.616036,5847.626942,7402.059420,-612.876398
189.616357,5995.668130,7698.141797,-995.924147
189.616677,5181.441594,7920.203579,-536.266849
189.616998,4737.318029,7994.224174,-612.876398
189.617319,4663.297435,8438.347739,0.000000
189.617640,4293.194464,9030.512492,0.000000
189.617961,4367.215058,8586.388927,383.047749
189.618282,3997.112087,8734.430116,612.876398
189.618602,4367.215058,8364.327145,536.266849
189.618923,4441.235652,8142.265362,459.657299
189.619244,4219.173869,7920.203579,0.000000
189.619565,4589.276840,7920.203579,0.000000
189.619886,4737.318029,7550.100608,0.000000
189.620207,5477.523971,7105.977043,306.438199
189.620527,6365.771101,7105.977043,0.000000
189.620848,6661.853478,7105.977043,-76.609550
189.621169,7105.977043,7550.100608,0.000000
189.621490,7550.100608,7402.059420,-229.828649
189.621811,7698.141797,7624.121203,-612.876398
189.622132,7698.141797,7328.038826,-306.438199
189.622452,7698.141797,7920.203579,-383.047749
189.622773,6883.915261,7994.224174,-612.876398
189.623094,6365.771101,7920.203579,-842.705048
189.623415,5773.606348,7994.224174,-919.314598
189.623736,5181.441594,7994.224174,-536.266849
189.624057,4737.318029,8216.285956,153.219100
189.624377,3849.070898,8290.306550,0.000000
189.624698,2812.782580,8364.327145,306.438199
189.625019,2960.823768,8290.306550,689.485948
189.625340,2886.803174,8364.327145,612.876398
189.625661,2664.741391,8734.430116,612.876398
189.625982,2886.803174,8586.388927,536.266849
189.626302,3182.885551,8734.430116,153.219100
189.626623,3552.988522,8734.430116,0.000000
189.626944,4515.256246,8216.285956,-459.657299
189.627265,4737.318029,8142.265362,-76.609550
189.627586,5329.482782,7772.162391,-229.828649
189.627907,5847.626942,7772.162391,-689.485948
189.628227,5921.647536,7846.182985,-766.095498
189.628548,6143.709319,7698.141797,-1072.533697
189.628869,6069.688724,7179.997637,-842.705048
189.629190,5699.585753,7550.100608,-919.314598
189.629511,5773.606348,7994.224174,-766.095498
189.629832,5255.462188,8586.388927,-1378.971896
189.630152,4959.379811,8216.285956,-995.924147
189.630473,4737.318029,8364.327145,-766.095498
189.630794,4293.194464,8586.388927,153.219100
189.631115,3775.050304,8956.491898,0.000000
189.631436,3552.988522,9252.574275,76.609550
189.631757,3478.967927,8956.491898,0.000000
189.632077,3182.885551,9104.533087,76.609550
189.632398,3330.926739,8216.285956,459.657299
189.632719,3478.967927,8290.306550,689.485948
189.633040,3775.050304,8882.471304,459.657299
189.633361,3923.091493,8216.285956,0.000000
189.633682,4663.297435,8290.306550,-306.438199
189.634002,5181.441594,7994.224174,-306.438199
189.634323,5329.482782,8142.265362,0.000000
189.634644,6069.688724,8586.388927,306.438199
189.634965,5921.647536,8364.327145,0.000000
189.635286,6217.729913,8216.285956,-536.266849
189.635607,5995.668130,8290.306550,-536.266849
189.635928,6069.688724,8142.265362,-612.876398
189.636248,5847.626942,8438.347739,459.657299
189.636569,5551.544565,8142.265362,-76.609550
189.636890,4959.379811,8512.368333,-306.438199
189.637211,4663.297435,8142.265362,-229.828649
189.637532,4293.194464,7994.224174,0.000000
189.637853,4367.215058,7772.162391,-306.438199
189.638173,3775.050304,7772.162391,153.219100
189.638494,3775.050304,7846.182985,76.609550
189.638815,3997.112087,7772.162391,0.000000
189.639136,4145.153275,7994.224174,229.828649
189.639457,4071.132681,7846.182985,383.047749
189.639778,4885.359217,7624.121203,-153.219100
189.640098,5477.523971,7105.977043,-459.657299
189.640419,6143.709319,7031.956449,-306.438199
189.640740,6587.832884,6809.894666,536.266849
189.641061,7105.977043,7031.956449,0.000000
189.641382,6883.915261,6957.935855,-995.924147
189.641703,7179.997637,6809.894666,-689.485948
189.642023,7328.038826,6883.915261,-1302.362347
189.642344,7254.018232,6957.935855,-1072.533697
189.642665,6883.915261,7624.121203,-919.314598
189.642986,6365.771101,7772.162391,-689.485948
189.643307,5625.565159,7920.203579,-842.705048
189.643628,5107.421000,7994.224174,-766.095498
189.643948,4737.318029,8364.327145,-383.047749
189.644269,4663.297435,9104.533087,0.000000
189.644590,3627.009116,9252.574275,459.657299
189.644911,3256.906145,8882.471304,766.095498
189.645232,3256.906145,9030.512492,842.705048
189.645553,3256.906145,8882.471304,1072.533697
189.645873,2886.803174,8512.368333,919.314598
189.646194,3404.947333,8364.327145,306.438199
189.646515,3701.029710,8290.306550,0.000000
189.646836,4441.235652,8216.285956,153.219100
189.647157,4885.359217,8364.327145,76.609550
189.647478,5773.606348,8290.306550,383.047749
189.647798,5699.585753,8586.388927,-306.438199
189.648119,5847.626942,8438.347739,-612.876398
189.648440,6217.729913,8438.347739,-689.485948
189.648761,6217.729913,8734.430116,-612.876398
189.649082,6513.812290,8882.471304,-1225.752797
189.649403,5773.606348,8808.450710,-536.266849
189.649723,5625.565159,8512.368333,-536.266849
189.650044,4811.338623,8586.388927,-459.657299
189.650365,4367.215058,8512.368333,0.000000
189.650686,3997.112087,8438.347739,0.000000
189.651007,3404.947333,8364.327145,536.266849
189.651328,2960.823768,8512.368333,229.828649
189.651648,2812.782580,8142.265362,536.266849
189.651969,3182.885551,7920.203579,612.876398
189.652290,3182.885551,7994.224174,919.314598
189.652611,3404.947333,7994.224174,459.657299
189.652932,3849.070898,8068.244768,0.000000
189.653253,4293.194464,7920.203579,0.000000
189.653573,5033.400406,7254.018232,-306.438199
189.653894,6217.729913,7105.977043,-689.485948
189.654215,6661.853478,7105.977043,-459.657299
189.654536,6883.915261,7031.956449,-612.876398
189.654857,7254.018232,6735.874072,-919.314598
189.655178,7105.977043,6957.935855,-842.705048
189.655498,7402.059420,6661.853478,-536.266849
189.655819,7105.977043,7031.956449,-766.095498
189.656140,7105.977043,7179.997637,-1072.533697
189.656461,6365.771101,7772.162391,-1072.533697
189.656782,6069.688724,7994.224174,-1149.143247
189.657103,5477.523971,8142.265362,-383.047749
189.657424,4663.297435,8512.368333,0.000000
189.657744,4293.194464,8438.347739,536.266849
189.658065,3849.070898,8882.471304,689.485948
189.658386,3552.988522,8734.430116,383.047749
189.658707,3552.988522,8808.450710,612.876398
189.659028,3256.906145,8290.306550,689.485948
189.659349,3404.947333,8290.306550,689.485948
189.659669,3330.926739,8586.388927,383.047749
189.659990,4219.173869,8438.347739,153.219100
189.660311,4737.318029,8216.285956,536.266849
189.660632,5181.441594,8734.430116,-76.609550
189.660953,5477.523971,8660.409521,-76.609550
189.661274,5995.668130,8364.327145,0.000000
189.661594,6069.688724,8216.285956,0.000000
189.661915,5995.668130,8290.306550,-459.657299
189.662236,6217.729913,8364.327145,-766.095498
189.662557,5921.647536,8364.327145,-842.705048
189.662878,5773.606348,8364.327145,-766.095498
189.663199,5329.482782,8142.265362,-536.266849
189.663519,5107.421000,8512.368333,-536.266849
189.663840,4737.318029,8142.265362,-383.047749
189.664161,4293.194464,8512.368333,-229.828649
189.664482,3849.070898,7994.224174,76.609550
189.664803,3552.988522,8216.285956,76.609550
189.665124,3849.070898,8290.306550,0.000000
189.665444,3849.070898,7698.141797,229.828649
189.665765,3997.112087,7920.203579,229.828649
189.666086,3923.091493,8216.285956,0.000000
189.666407,4663.297435,7698.141797,-459.657299
189.666728,4959.379811,7624.121203,-536.266849
189.667049,5995.668130,7402.059420,-306.438199
189.667369,6291.750507,7105.977043,0.000000
189.667690,6513.812290,7105.977043,-459.657299
189.668011,6809.894666,7105.977043,-612.876398
189.668332,7031.956449,7179.997637,-612.876398
189.668653,7031.956449,6957.935855,-766.095498
189.668974,7105.977043,7031.956449,-383.047749
189.669294,6661.853478,7254.018232,-1072.533697
189.669615,6513.812290,7772.162391,-1072.533697
189.669936,6217.729913,7920.203579,-612.876398
189.670257,5477.523971,7920.203579,-536.266849
189.670578,4811.338623,8438.347739,0.000000
189.670899,4293.194464,8882.471304,153.219100
189.671219,3997.112087,8808.450710,306.438199
189.671540,4071.132681,9104.533087,306.438199
189.671861,3404.947333,8808.450710,919.314598
189.672182,3404.947333,8512.368333,689.485948
189.672503,3404.947333,8512.368333,536.266849
189.672824,3404.947333,8586.388927,459.657299
189.673144,3923.091493,8290.306550,536.266849
189.673465,4293.194464,7920.203579,0.000000
189.673786,4737.318029,7994.224174,153.219100
189.674107,5255.462188,7994.224174,0.000000
189.674428,5477.523971,8290.306550,-153.219100
189.674749,5847.626942,8068.244768,0.000000
189.675069,6217.729913,8438.347739,-612.876398
189.675390,6439.791695,8290.306550,-536.266849
189.675711,6291.750507,7920.203579,-306.438199
189.676032,5773.606348,8512.368333,-612.876398
189.676353,5625.565159,8660.409521,-842.705048
189.676674,5033.400406,8512.368333,-689.485948
189.676994,4737.318029,8068.244768,-383.047749
189.677315,4145.153275,8290.306550,76.609550
189.677636,3404.947333,8438.347739,383.047749
189.677957,3034.844362,8512.368333,842.705048
189.678278,2664.741391,8364.327145,459.657299
189.678599,2886.803174,7994.224174,0.000000
189.678920,3256.906145,8068.244768,229.828649
189.679240,3478.967927,8438.347739,229.828649
189.679561,3775.050304,7920.203579,0.000000
189.679882,4071.132681,7994.224174,-229.828649
189.680203,4885.359217,7624.121203,-383.047749
189.680524,5699.585753,7179.997637,-306.438199
189.680845,6291.750507,7105.977043,-153.219100
189.681165,6735.874072,7105.977043,-383.047749
189.681486,6957.935855,7254.018232,-919.314598
189.681807,7105.977043,7328.038826,-1149.143247
189.682128,7105.977043,7105.977043,-842.705048
189.682449,6957.935855,7105.977043,-229.828649
189.682770,6883.915261,7402.059420,-1378.971896
189.683090,6439.791695,7624.121203,-1072.533697
189.683411,6291.750507,8364.327145,-1608.800546
189.683732,5551.544565,8364.327145,-766.095498
189.684053,5107.421000,8364.327145,0.000000
189.684374,4515.256246,8882.471304,306.438199
189.684695,4071.132681,8882.471304,383.047749
189.685015,3849.070898,8882.471304,229.828649
189.685336,3552.988522,8512.368333,229.828649
189.685657,3627.009116,8068.244768,766.095498
189.685978,3404.947333,8068.244768,612.876398
189.686299,4071.132681,8290.306550,76.609550
189.686620,4441.235652,8290.306550,306.438199
189.686940,4737.318029,7994.224174,153.219100
189.687261,5255.462188,7994.224174,0.000000
189.687582,6217.729913,8142.265362,-536.266849
189.687903,6439.791695,8290.306550,-153.219100
189.688224,6513.812290,8364.327145,-306.438199
189.688545,6143.709319,8216.285956,-383.047749
189.688865,6217.729913,8364.327145,-689.485948
189.689186,5921.647536,8512.368333,-1532.190996
189.689507,6143.709319,7994.224174,-459.657299
189.689828,5477.523971,8512.368333,-842.705048
189.690149,4737.318029,8438.347739,-229.828649
189.690470,4293.194464,8438.347739,0.000000
189.690790,3923.091493,8734.430116,153.219100
189.691111,3256.906145,8882.471304,383.047749
189.691432,3034.844362,8142.265362,459.657299
189.691753,2812.782580,7920.203579,536.266849
189.692074,3182.885551,7772.162391,459.657299
189.692395,3478.967927,8216.285956,459.657299
189.692715,3627.009116,8216.285956,383.047749
189.693036,3627.009116,7994.224174,-153.219100
189.693357,4663.297435,7624.121203,-306.438199
189.693678,5625.565159,7846.182985,76.609550
189.693999,5847.626942,7550.100608,0.000000
189.694320,6365.771101,7328.038826,-153.219100
189.694640,6883.915261,7328.038826,-689.485948
189.694961,7031.956449,7031.956449,-919.314598
189.695282,7105.977043,7031.956449,-919.314598
189.695603,6809.894666,6957.935855,-1149.143247
189.695924,6587.832884,7105.977043,-919.314598
189.696245,6143.709319,7624.121203,-689.485948
189.696565,5625.565159,7772.162391,-612.876398
189.696886,5403.503377,8216.285956,-995.924147
189.697207,5181.441594,7994.224174,-306.438199
189.697528,4663.297435,8216.285956,-229.828649
189.697849,4145.153275,8512.368333,-153.219100
189.698170,3701.029710,8586.388927,0.000000
189.698491,3997.112087,8290.306550,842.705048
189.698811,3701.029710,8438.347739,536.266849
189.699132,3256.906145,8512.368333,459.657299
189.699453,3923.091493,8364.327145,0.000000
189.699774,3997.112087,8586.388927,0.000000
189.700095,4663.297435,8068.244768,0.000000
189.700416,5033.400406,7994.224174,76.609550
189.700736,5551.544565,8216.285956,0.000000
189.701057,5847.626942,8216.285956,-306.438199
189.701378,5921.647536,8216.285956,-612.876398
189.701699,5995.668130,8216.285956,-612.876398
189.702020,6291.750507,8290.306550,-383.047749
189.702341,6143.709319,8438.347739,-995.924147
189.702661,5625.565159,8438.347739,-1072.533697
189.702982,5403.503377,8660.409521,-919.314598
189.703303,5181.441594,8512.368333,-612.876398
189.703624,4737.318029,8734.430116,-459.657299
189.703945,4441.235652,8438.347739,0.000000
189.704266,3849.070898,8660.409521,0.000000
189.704586,3404.947333,8956.491898,153.219100
189.704907,3330.926739,8808.450710,306.438199
189.705228,3478.967927,7994.224174,306.438199
189.705549,3478.967927,8142.265362,536.266849
189.705870,3849.070898,8512.368333,612.876398
189.706191,3849.070898,8734.430116,-459.657299
189.706511,4589.276840,7846.182985,-306.438199
189.706832,5329.482782,7328.038826,-306.438199
189.707153,5847.626942,7179.997637,-306.438199
189.707474,6439.791695,7328.038826,-383.047749
189.707795,6735.874072,7254.018232,-842.705048
189.708116,6883.915261,7179.997637,-1225.752797
189.708436,7179.997637,6809.894666,-689.485948
189.708757,7179.997637,6809.894666,-612.876398
189.709078,7105.977043,7105.977043,-919.314598
189.709399,6291.750507,7254.018232,-1225.752797
189.709720,6217.729913,7698.141797,-995.924147
189.710041,5625.565159,7994.224174,-919.314598
189.710362,5181.441594,7994.224174,-76.609550
189.710683,4811.338623,8068.244768,76.609550
189.711004,4293.194464,8734.430116,766.095498
189.711324,3627.009116,8734.430116,612.876398
189.711645,3701.029710,8512.368333,229.828649
189.711966,3404.947333,8290.306550,536.266849
189.712287,3552.988522,8068.244768,689.485948
189.712608,3552.988522,8142.265362,383.047749
189.712929,3627.009116,8364.327145,306.438199
189.713250,4367.215058,7994.224174,76.609550
189.713571,4737.318029,7994.224174,0.000000
189.713892,5255.462188,8142.265362,153.219100
189.714213,5625.565159,8438.347739,229.828649
189.714534,5773.606348,8068.244768,0.000000
189.714855,5995.668130,7994.224174,-306.438199
189.715175,6143.709319,7994.224174,-306.438199
189.715496,5847.626942,8068.244768,-306.438199
189.715817,5921.647536,8216.285956,-536.266849
189.716138,5477.523971,8438.347739,-536.266849
189.716459,5477.523971,8586.388927,-612.876398
189.716780,5033.400406,8290.306550,-153.219100
189.717101,4589.276840,7920.203579,76.609550
189.717422,4145.153275,8142.265362,306.438199
189.717743,3849.070898,8586.388927,76.609550
189.718064,3256.906145,8364.327145,459.657299
189.718385,3478.967927,8290.306550,306.438199
189.718706,3775.050304,7920.203579,306.438199
189.719027,4219.173869,8068.244768,689.485948
189.719347,4145.153275,8142.265362,76.609550
189.719668,4367.215058,7846.182985,-306.438199
189.719989,4959.379811,7920.203579,-766.095498
189.720310,5625.565159,7402.059420,-995.924147
189.720631,6365.771101,7402.059420,-306.438199
189.720952,6291.750507,7105.977043,-459.657299
189.721273,6735.874072,7328.038826,-689.485948
189.721594,6661.853478,7179.997637,-1072.533697
189.721915,6587.832884,7254.018232,-1302.362347
189.722236,6661.853478,7105.977043,-1149.143247
189.722557,6143.709319,7476.080014,-995.924147
189.722878,5847.626942,7920.203579,-689.485948
189.723199,5181.441594,8216.285956,-995.924147
189.723519,5107.421000,8586.388927,-995.924147
189.723840,4663.297435,8660.409521,383.047749
189.724161,4367.215058,8734.430116,0.000000
189.724482,3775.050304,9252.574275,76.609550
189.724803,3256.906145,9178.553681,536.266849
189.725124,3330.926739,8956.491898,766.095498
189.725445,3182.885551,8438.347739,383.047749
189.725766,3701.029710,8290.306550,0.000000
189.726087,3404.947333,8438.347739,0.000000
189.726408,3849.070898,8438.347739,0.000000
189.726729,4589.276840,8142.265362,153.219100
189.727050,5255.462188,7994.224174,0.000000
189.727370,5625.565159,7772.162391,-306.438199
189.727691,5699.585753,8068.244768,383.047749
189.728012,6143.709319,8142.265362,-383.047749
189.728333,5995.668130,7772.162391,-612.876398
189.728654,6661.853478,7920.203579,-536.266849
189.728975,6513.812290,8068.244768,-612.876398
189.729296,5995.668130,8512.368333,-689.485948
189.729617,5921.647536,8216.285956,-536.266849
189.729938,5181.441594,8512.368333,-689.485948
189.730259,4737.318029,8512.368333,-536.266849
189.730580,4219.173869,8586.388927,-383.047749
189.730901,3627.009116,8734.430116,0.000000
189.731222,3256.906145,8586.388927,459.657299
189.731542,2960.823768,8438.347739,842.705048
189.731863,3256.906145,7994.224174,536.266849
189.732184,3256.906145,7994.224174,459.657299
189.732505,3478.967927,8142.265362,306.438199
189.732826,3330.926739,8068.244768,383.047749
189.733147,4589.276840,7994.224174,0.000000
189.733468,4959.379811,7179.997637,229.828649
189.733789,5847.626942,7105.977043,459.657299
189.734110,5995.668130,7105.977043,0.000000
189.734431,6735.874072,7846.182985,-383.047749
189.734752,6809.894666,7105.977043,-766.095498
189.735073,7105.977043,7031.956449,-766.095498
189.735394,7179.997637,6809.894666,-536.266849
189.735714,7031.956449,6661.853478,-919.314598
189.736035,6365.771101,7105.977043,-1302.362347
189.736356,6143.709319,7402.059420,-1762.019645
189.736677,5551.544565,7624.121203,-1072.533697
189.736998,5551.544565,7846.182985,-383.047749
189.737319,5107.421000,8808.450710,-459.657299
189.737640,4589.276840,8512.368333,76.609550
189.737961,3997.112087,8734.430116,383.047749
189.738282,3849.070898,8438.347739,459.657299
189.738603,3775.050304,8364.327145,306.438199
189.738924,3701.029710,7994.224174,536.266849
189.739245,3627.009116,7994.224174,612.876398
189.739565,3552.988522,8364.327145,536.266849
189.739886,4293.194464,8290.306550,229.828649
189.740207,4663.297435,7994.224174,0.000000
189.740528,4959.379811,8512.368333,-459.657299
189.740849,5403.503377,8068.244768,-306.438199
189.741170,5995.668130,8364.327145,-229.828649
189.741491,6069.688724,8660.409521,0.000000
189.741812,6217.729913,8734.430116,-383.047749
189.742133,5847.626942,8734.430116,-842.705048
189.742454,5699.585753,8734.430116,-766.095498
189.742775,5847.626942,8734.430116,-766.095498
189.743096,5255.462188,8734.430116,-612.876398
189.743417,4737.318029,8808.450710,-229.828649
189.743737,4293.194464,8808.450710,0.000000
189.744058,3627.009116,8734.430116,76.609550
189.744379,3478.967927,8808.450710,229.828649
189.744700,3404.947333,8512.368333,612.876398
189.745021,3182.885551,9030.512492,76.609550
189.745342,3404.947333,8364.327145,0.000000
189.745663,3775.050304,8216.285956,0.000000
189.745984,4145.153275,8216.285956,0.000000
189.746305,4145.153275,8142.265362,0.000000
189.746626,4737.318029,8142.265362,0.000000
189.746947,5403.503377,7624.121203,-383.047749
189.747268,5773.606348,7476.080014,-766.095498
189.747588,6365.771101,7105.977043,-153.219100
189.747909,6587.832884,7105.977043,-766.095498
189.748230,6735.874072,7328.038826,-766.095498
189.748551,6883.915261,7031.956449,-919.314598
189.748872,6957.935855,7105.977043,-1149.143247
189.749193,6587.832884,7105.977043,-612.876398
189.749514,6291.750507,7624.121203,-842.705048
189.749835,5921.647536,7698.141797,-766.095498
189.750156,5477.523971,7550.100608,-689.485948
189.750477,4663.297435,7994.224174,-612.876398
189.750798,4441.235652,8216.285956,0.000000
189.751119,4071.132681,8586.388927,306.438199
189.751440,3923.091493,8586.388927,383.047749
189.751760,3552.988522,8586.388927,689.485948
189.752081,3775.050304,8438.347739,612.876398
189.752402,3849.070898,8142.265362,536.266849
189.752723,3701.029710,8586.388927,0.000000
189.753044,4367.215058,7846.182985,-766.095498
189.753365,4737.318029,8068.244768,0.000000
189.753686,5477.523971,7624.121203,459.657299
189.754007,5699.585753,7624.121203,0.000000
189.754328,6143.709319,7994.224174,229.828649
189.754649,6365.771101,8216.285956,-383.047749
189.754970,6661.853478,7994.224174,-306.438199
189.755291,6587.832884,7698.141797,-536.266849
189.755612,6587.832884,7920.203579,-306.438199
189.755932,6217.729913,8290.306550,-229.828649
189.756253,5847.626942,8068.244768,-459.657299
189.756574,5107.421000,8364.327145,-536.266849
189.756895,4885.359217,8364.327145,-383.047749
189.757216,4441.235652,8734.430116,0.000000
189.757537,4145.153275,9030.512492,766.095498
189.757858,3256.906145,8808.450710,459.657299
189.758179,2886.803174,8734.430116,459.657299
189.758500,2960.823768,8438.347739,383.047749
189.758821,2812.782580,8586.388927,536.266849
189.759142,3256.906145,8290.306550,766.095498
189.759463,3330.926739,8142.265362,383.047749
189.759783,4145.153275,8216.285956,0.000000
189.760104,4589.276840,7920.203579,-229.828649
189.760425,5329.482782,7402.059420,-229.828649
189.760746,6143.709319,7550.100608,76.609550
189.761067,6365.771101,7254.018232,-306.438199
189.761388,6439.791695,7402.059420,-995.924147
189.761709,6957.935855,7105.977043,-919.314598
189.762030,6809.894666,6809.894666,-459.657299
189.762351,7031.956449,7031.956449,-153.219100
189.762672,6513.812290,7328.038826,-1149.143247
189.762993,6439.791695,7550.100608,-1302.362347
189.763314,5699.585753,8216.285956,-1302.362347
189.763635,5329.482782,8216.285956,-919.314598
189.763955,5033.400406,8734.430116,-459.657299
189.764276,4441.235652,8586.388927,229.828649
189.764597,3923.091493,8734.430116,76.609550
189.764918,3330.926739,8956.491898,76.609550
189.765239,3034.844362,8586.388927,612.876398
189.765560,3330.926739,8660.409521,689.485948
189.765881,3182.885551,8290.306550,536.266849
189.766202,3404.947333,8142.265362,842.705048
189.766523,3923.091493,8216.285956,306.438199
189.766844,4219.173869,8290.306550,536.266849
189.767165,4885.359217,8068.244768,0.000000
189.767486,5551.544565,7920.203579,0.000000
189.767806,6365.771101,7994.224174,0.000000
189.768127,6439.791695,8290.306550,-229.828649
189.768448,6439.791695,8142.265362,-383.047749
189.768769,6217.729913,8216.285956,-612.876398
189.769090,6365.771101,7994.224174,-995.924147
189.769411,6365.771101,8216.285956,-1225.752797
189.769732,6143.709319,8216.285956,-842.705048
189.770053,6365.771101,8808.450710,-689.485948
189.770374,5181.441594,8364.327145,-383.047749
189.770695,4737.318029,7994.224174,0.000000
189.771016,3923.091493,8364.327145,76.609550
189.771337,3775.050304,8512.368333,-306.438199
189.771658,3552.988522,7920.203579,383.047749
189.771978,3552.988522,7698.141797,383.047749
189.772299,3849.070898,7846.182985,842.705048
189.772620,3997.112087,7994.224174,229.828649
189.772941,4441.235652,7772.162391,-306.438199
189.773262,4515.256246,7846.182985,-306.438199
189.773583,5329.482782,7476.080014,-153.219100
189.773904,6513.812290,7179.997637,76.609550
189.774225,6439.791695,7105.977043,0.000000
189.774546,6957.935855,7105.977043,-306.438199
189.774867,6883.915261,7105.977043,-689.485948
189.775188,7105.977043,7105.977043,-919.314598
189.775509,7254.018232,7328.038826,-1072.533697
189.775830,7402.059420,7105.977043,-842.705048
189.776150,6439.791695,7624.121203,-766.095498
189.776471,5699.585753,7994.224174,-842.705048
189.776792,5255.462188,7994.224174,-689.485948
189.777113,4885.359217,8216.285956,0.000000
189.777434,4219.173869,8586.388927,0.000000
189.777755,3849.070898,8734.430116,306.438199
189.778076,3330.926739,8882.471304,229.828649
189.778397,3034.844362,8956.491898,766.095498
189.778718,2886.803174,8808.450710,766.095498
189.779039,2812.782580,8586.388927,689.485948
