#time,accel_x,accel_y,accel_z
524.042442,5033.400406,7994.224174,-153.219100
524.042762,4737.318029,8068.244768,766.095498
524.043083,5033.400406,7624.121203,153.219100
524.043403,5181.441594,8068.244768,0.000000
524.043724,5107.421000,7920.203579,0.000000
524.044044,4811.338623,8142.265362,0.000000
524.044365,4811.338623,7994.224174,-153.219100
524.044686,4885.359217,7994.224174,76.609550
524.045006,5033.400406,7846.182985,0.000000
524.045327,4811.338623,8068.244768,0.000000
524.045647,4737.318029,8068.244768,0.000000
524.045968,5033.400406,8290.306550,-842.705048
524.046289,4737.318029,7994.224174,0.000000
524.046609,4737.318029,8068.244768,0.000000
524.046930,4959.379811,7994.224174,-306.438199
524.047250,4737.318029,8142.265362,-383.047749
524.047571,4959.379811,7920.203579,0.000000
524.047891,4811.338623,7994.224174,-229.828649
524.048212,4885.359217,8068.244768,0.000000
524.048533,5181.441594,7698.141797,0.000000
524.048853,4737.318029,8290.306550,0.000000
524.049174,5255.462188,7994.224174,0.000000
524.049494,4959.379811,8290.306550,-536.266849
524.049815,4737.318029,8216.285956,76.609550
524.050136,5033.400406,8216.285956,-229.828649
524.050456,5255.462188,8290.306550,-536.266849
524.050777,4959.379811,8142.265362,0.000000
524.051097,4885.359217,8364.327145,0.000000
524.051418,4737.318029,7920.203579,0.000000
524.051738,4293.194464,7476.080014,-306.438199
524.052059,4145.153275,7698.141797,-459.657299
524.052380,4589.276840,8438.347739,229.828649
524.052700,4663.297435,9548.656652,-536.266849
524.053021,4737.318029,9770.718434,-1225.752797
524.053341,4737.318029,9548.656652,-1072.533697
524.053662,4219.173869,9326.594869,-1149.143247
524.053982,3478.967927,8808.450710,306.438199
524.054303,2738.761985,8882.471304,766.095498
524.054624,2664.741391,9326.594869,766.095498
524.054944,2590.720797,9252.574275,0.000000
524.055265,2812.782580,8142.265362,-536.266849
524.055585,2960.823768,7994.224174,-383.047749
524.055906,3404.947333,9400.615463,0.000000
524.056227,3034.844362,9622.677246,306.438199
524.056547,2368.659014,9326.594869,306.438199
524.056868,2664.741391,9400.615463,229.828649
524.057188,2516.700203,9622.677246,0.000000
524.057509,2146.597232,10955.047942,-842.705048
524.057829,1776.494261,11695.253884,-1225.752797
524.058150,1554.432478,11473.192101,-1608.800546
524.058471,1480.411884,11103.089130,-1302.362347
524.058791,222.061783,10955.047942,-1455.581446
524.059112,-666.185348,10807.006753,-1378.971896
524.059432,-1406.391290,12509.480420,-536.266849
524.059753,-1554.432478,12805.562797,766.095498
524.060074,-1480.411884,11917.315666,766.095498
524.060394,-814.226536,11991.336260,1532.190996
524.060715,-1184.329507,12213.398043,2145.067394
524.061035,-2220.617826,12361.439231,1532.190996
524.061356,-2516.700203,11325.150913,229.828649
524.061676,-1924.535449,10732.986159,-459.657299
524.061997,-1480.411884,9844.739029,0.000000
524.062318,-740.205942,10140.821405,459.657299
524.062638,-148.041188,10362.883188,842.705048
524.062959,0.000000,11103.089130,-229.828649
524.063279,518.144159,11843.295072,-1378.971896
524.063600,1332.370696,11029.068536,-1072.533697
524.063921,1998.556043,10140.821405,-229.828649
524.064241,3108.864956,10288.862594,153.219100
524.064562,2812.782580,10214.842000,-153.219100
524.064882,2294.638420,9696.697840,-2145.067394
524.065203,1554.432478,9178.553681,-2451.505594
524.065523,1998.556043,9178.553681,-1532.190996
524.065844,2220.617826,9252.574275,-153.219100
524.066165,2072.576638,10436.903782,0.000000
524.066485,1702.473667,10807.006753,-612.876398
524.066806,962.267725,11695.253884,-459.657299
524.067126,296.082377,11325.150913,0.000000
524.067447,0.000000,9918.759623,306.438199
524.067767,0.000000,9400.615463,689.485948
524.068088,0.000000,10066.800811,1149.143247
524.068409,-592.164754,10807.006753,995.924147
524.068729,-740.205942,11029.068536,459.657299
524.069050,370.102971,10955.047942,842.705048
524.069370,1406.391290,11325.150913,1532.190996
524.069691,1036.288319,11103.089130,612.876398
524.070012,444.123565,11029.068536,-229.828649
524.070332,1036.288319,10732.986159,-1149.143247
524.070653,1628.453072,9918.759623,-842.705048
524.070973,1776.494261,9252.574275,0.000000
524.071294,1406.391290,8512.368333,306.438199
524.071614,1998.556043,9474.636058,306.438199
524.071935,1998.556043,10658.965565,536.266849
524.072256,2442.679609,10807.006753,229.828649
524.072576,2516.700203,10214.842000,-689.485948
524.072897,2960.823768,9696.697840,-1378.971896
524.073217,3182.885551,9918.759623,-995.924147
524.073538,3034.844362,9992.780217,-919.314598
524.073859,2812.782580,10362.883188,-995.924147
524.074179,2146.597232,10807.006753,-842.705048
524.074500,1332.370696,11547.212695,-536.266849
524.074820,1184.329507,11769.274478,-229.828649
524.075141,518.144159,11769.274478,-1225.752797
524.075461,-370.102971,11473.192101,-1762.019645
524.075782,-1406.391290,9474.636058,-2068.457845
524.076103,-1850.514855,8660.409521,-459.657299
524.076423,-2220.617826,9474.636058,1762.019645
524.076744,-1776.494261,11325.150913,2604.724693
524.077064,-592.164754,13027.624579,2451.505594
524.077385,0.000000,13841.851115,1149.143247
524.077705,222.061783,13101.645173,612.876398
524.078026,1036.288319,12361.439231,0.000000
524.078347,1554.432478,10584.944971,-383.047749
524.078667,1776.494261,9696.697840,-536.266849
524.078988,666.185348,9030.512492,-1225.752797
524.079308,0.000000,8586.388927,-2068.457845
524.079629,-814.226536,9400.615463,-1915.238745
524.079950,-666.185348,10807.006753,-1455.581446
524.080270,-148.041188,12287.418637,-689.485948
524.080591,1258.350101,12583.501014,-306.438199
524.080911,1184.329507,13101.645173,-76.609550
524.081232,814.226536,13175.665768,-689.485948
524.081552,0.000000,12731.542202,0.000000
524.081873,444.123565,12065.356855,-153.219100
524.082194,1036.288319,10066.800811,-536.266849
524.082514,1628.453072,7920.203579,-919.314598
524.082835,2294.638420,7698.141797,-612.876398
524.083155,1554.432478,9844.739029,459.657299
524.083476,148.041188,11251.130318,1455.581446
524.083797,-370.102971,10066.800811,1685.410096
524.084117,740.205942,8734.430116,1072.533697
524.084438,814.226536,8216.285956,689.485948
524.084758,592.164754,8882.471304,612.876398
524.085079,1480.411884,11473.192101,-689.485948
524.085399,1110.308913,13545.768739,-1838.629195
524.085720,518.144159,13767.830521,-2145.067394
524.086041,1480.411884,12731.542202,-1991.848295
524.086361,740.205942,12213.398043,-1225.752797
524.086682,74.020594,12509.480420,459.657299
524.087002,370.102971,12287.418637,1072.533697
524.087323,666.185348,11251.130318,919.314598
524.087643,0.000000,10362.883188,766.095498
524.087964,0.000000,9104.533087,766.095498
524.088285,-1776.494261,7994.224174,1608.800546
524.088605,-2294.638420,7920.203579,1608.800546
524.088926,-888.247130,8216.285956,536.266849
524.089246,518.144159,9548.656652,306.438199
524.089567,1406.391290,11621.233289,-306.438199
524.089888,2072.576638,13619.789333,-689.485948
524.090208,1924.535449,13471.748144,-1532.190996
524.090529,1850.514855,10881.027347,-2068.457845
524.090849,1924.535449,8216.285956,-1991.848295
524.091170,3108.864956,8586.388927,-229.828649
524.091490,2072.576638,10732.986159,1225.752797
524.091811,1406.391290,12731.542202,0.000000
524.092132,888.247130,12583.501014,-2145.067394
524.092452,1110.308913,11251.130318,-2757.943793
524.092773,370.102971,9326.594869,-1608.800546
524.093093,-1184.329507,7402.059420,-612.876398
524.093414,-888.247130,8438.347739,-153.219100
524.093735,-666.185348,11843.295072,612.876398
524.094055,-1776.494261,14285.974681,842.705048
524.094376,-1850.514855,14582.057057,-76.609550
524.094696,-1924.535449,14656.077652,0.000000
524.095017,-1406.391290,14952.160028,612.876398
524.095337,-2146.597232,13101.645173,842.705048
524.095658,-1850.514855,10362.883188,612.876398
524.095979,-814.226536,9844.739029,0.000000
524.096299,-814.226536,10658.965565,766.095498
524.096620,-1554.432478,9918.759623,842.705048
524.096940,-888.247130,9474.636058,842.705048
524.097261,1184.329507,9918.759623,1608.800546
524.097582,2516.700203,10140.821405,2298.286494
524.097902,3775.050304,10288.862594,766.095498
524.098223,4737.318029,10436.903782,-1455.581446
524.098543,5107.421000,10510.924376,-2221.676944
524.098864,3923.091493,9918.759623,-2451.505594
524.099184,3478.967927,7476.080014,-3140.991542
524.099505,3478.967927,6957.935855,-1685.410096
524.099826,5477.523971,8586.388927,689.485948
524.100146,3701.029710,10510.924376,229.828649
524.100467,3182.885551,10881.027347,-766.095498
524.100787,3330.926739,11991.336260,-2145.067394
524.101108,1406.391290,11177.109724,-1915.238745
524.101428,518.144159,8438.347739,153.219100
524.101749,2960.823768,7105.977043,1838.629195
524.102070,2590.720797,8142.265362,1302.362347
524.102390,2072.576638,10362.883188,-306.438199
524.102711,814.226536,10807.006753,-612.876398
524.103032,666.185348,9104.533087,229.828649
524.103352,2960.823768,8364.327145,4519.963438
524.103673,3404.947333,8290.306550,5362.668486
524.103994,3256.906145,7920.203579,1149.143247
524.104314,2960.823768,7994.224174,-1685.410096
524.104635,3182.885551,7624.121203,-1378.971896
524.104955,4441.235652,5255.462188,153.219100
524.105276,7031.956449,3552.988522,1762.019645
524.105597,7994.224174,6217.729913,0.000000
524.105917,7179.997637,11177.109724,-1991.848295
524.106238,6513.812290,13101.645173,-3677.258390
524.106559,7328.038826,11251.130318,-4290.134789
524.106879,8068.244768,7846.182985,-2145.067394
524.107200,8068.244768,6513.812290,1455.581446
524.107520,4885.359217,6809.894666,612.876398
524.107841,2590.720797,7550.100608,-2145.067394
524.108162,1480.411884,9252.574275,-2604.724693
524.108482,2442.679609,9844.739029,-995.924147
524.108803,2368.659014,8734.430116,1455.581446
524.109124,3330.926739,9474.636058,2834.553343
524.109444,4219.173869,10732.986159,2145.067394
524.109765,2220.617826,10584.944971,1378.971896
524.110086,1184.329507,7920.203579,383.047749
524.110406,1850.514855,6365.771101,995.924147
524.110727,4071.132681,7254.018232,1915.238745
524.111047,5551.544565,9178.553681,1302.362347
524.111368,5773.606348,8734.430116,-766.095498
524.111689,5107.421000,8660.409521,-2451.505594
524.112009,5625.565159,9104.533087,-1455.581446
524.112330,5107.421000,8586.388927,-306.438199
524.112651,6587.832884,7179.997637,0.000000
524.112971,7550.100608,6217.729913,153.219100
524.113292,7772.162391,5551.544565,-612.876398
524.113612,6957.935855,6587.832884,-1532.190996
524.113933,7105.977043,7698.141797,-2221.676944
524.114254,7031.956449,8956.491898,-2911.162892
524.114574,7624.121203,8290.306550,-2221.676944
524.114895,6217.729913,7105.977043,-1608.800546
524.115216,5403.503377,8438.347739,-1149.143247
524.115536,3849.070898,9696.697840,0.000000
524.115857,2664.741391,10140.821405,459.657299
524.116178,2960.823768,8586.388927,0.000000
524.116498,2738.761985,7698.141797,-229.828649
524.116819,1776.494261,8068.244768,383.047749
524.117139,1258.350101,9696.697840,1685.410096
524.117460,888.247130,11695.253884,1608.800546
524.117781,666.185348,10955.047942,0.000000
524.118101,1554.432478,9400.615463,0.000000
524.118422,3552.988522,8808.450710,842.705048
524.118743,3256.906145,9326.594869,2757.943793
524.119063,2590.720797,10955.047942,3294.210641
524.119384,3997.112087,10214.842000,1608.800546
524.119704,3404.947333,7624.121203,-612.876398
524.120025,3997.112087,5255.462188,0.000000
524.120346,6365.771101,7105.977043,1532.190996
524.120666,5995.668130,8808.450710,612.876398
524.120987,5181.441594,8068.244768,-1532.190996
524.121308,7772.162391,6217.729913,-2298.286494
524.121628,7846.182985,4663.297435,-1915.238745
524.121949,7920.203579,5477.523971,0.000000
524.122270,8808.450710,7994.224174,459.657299
524.122590,8290.306550,8882.471304,-1149.143247
524.122911,8068.244768,8216.285956,-1608.800546
524.123231,9104.533087,6883.915261,-536.266849
524.123552,7624.121203,5699.585753,-842.705048
524.123873,6883.915261,6735.874072,-383.047749
524.124193,5551.544565,7402.059420,-919.314598
524.124514,4737.318029,5551.544565,-2221.676944
524.124835,5181.441594,3478.967927,-229.828649
524.125155,6217.729913,4885.359217,1455.581446
524.125476,5255.462188,8808.450710,1685.410096
524.125796,3775.050304,11251.130318,2221.676944
524.126117,4071.132681,11103.089130,919.314598
524.126438,3997.112087,7994.224174,383.047749
524.126758,4737.318029,5995.668130,2987.772442
524.127079,5033.400406,6883.915261,3830.477490
524.127400,2886.803174,7402.059420,1532.190996
524.127720,2368.659014,8216.285956,-2374.896044
524.128041,4219.173869,7846.182985,-2681.334243
524.128362,4737.318029,7105.977043,-2145.067394
524.128682,6217.729913,7920.203579,1302.362347
524.129003,6143.709319,9252.574275,2451.505594
524.129323,5773.606348,9918.759623,-459.657299
524.129644,5699.585753,7920.203579,-2145.067394
524.129965,5625.565159,5181.441594,-2145.067394
524.130285,6809.894666,5329.482782,-689.485948
524.130606,7105.977043,7328.038826,689.485948
524.130927,6661.853478,8882.471304,-1838.629195
524.131247,7254.018232,8734.430116,-3753.867940
524.131568,6365.771101,7772.162391,-3524.039291
524.131888,6513.812290,8142.265362,-306.438199
524.132209,5033.400406,9178.553681,1455.581446
524.132530,4441.235652,8660.409521,995.924147
524.132850,4515.256246,7772.162391,-229.828649
524.133171,4441.235652,6661.853478,-919.314598
524.133492,3775.050304,6513.812290,-842.705048
524.133812,4589.276840,8734.430116,306.438199
524.134133,4219.173869,10214.842000,-229.828649
524.134454,3775.050304,10807.006753,-1072.533697
524.134774,4219.173869,8734.430116,-919.314598
524.135095,4515.256246,7328.038826,536.266849
524.135415,3849.070898,8068.244768,2374.896044
524.135736,3034.844362,9104.533087,2374.896044
524.136057,4663.297435,9844.739029,0.000000
524.136377,4219.173869,8882.471304,-2145.067394
524.136698,4441.235652,7698.141797,-536.266849
524.137019,6217.729913,8142.265362,1532.190996
524.137339,6143.709319,8364.327145,1225.752797
524.137660,4145.153275,7846.182985,-536.266849
524.137980,6513.812290,6217.729913,-2221.676944
524.138301,6735.874072,4737.318029,-1378.971896
524.138622,8142.265362,6217.729913,459.657299
524.138942,7550.100608,7994.224174,842.705048
524.139263,7105.977043,8808.450710,-1378.971896
524.139584,7698.141797,8290.306550,-2604.724693
524.139904,8808.450710,6735.874072,-1455.581446
524.140225,7328.038826,5625.565159,-459.657299
524.140546,6957.935855,6069.688724,0.000000
524.140866,5995.668130,7772.162391,153.219100
524.141187,5551.544565,7105.977043,-919.314598
524.141507,4737.318029,5477.523971,-2221.676944
524.141828,5773.606348,5255.462188,-1225.752797
524.142149,5329.482782,8290.306550,689.485948
524.142469,3997.112087,9770.718434,2145.067394
524.142790,3775.050304,9770.718434,306.438199
524.143111,3627.009116,8364.327145,-229.828649
524.143431,3701.029710,8068.244768,1149.143247
524.143752,3552.988522,9326.594869,2911.162892
524.144072,2664.741391,9326.594869,1608.800546
524.144393,2516.700203,8290.306550,-995.924147
524.144714,3849.070898,7846.182985,-1149.143247
524.145034,4515.256246,7179.997637,-306.438199
524.145355,5107.421000,7328.038826,1455.581446
524.145676,4885.359217,9400.615463,1838.629195
524.145996,4959.379811,9992.780217,459.657299
524.146317,5625.565159,8068.244768,-383.047749
524.146638,6069.688724,4515.256246,-459.657299
524.146958,7994.224174,5329.482782,842.705048
524.147279,7179.997637,6957.935855,919.314598
524.147599,6291.750507,7624.121203,-1532.190996
524.147920,6809.894666,6957.935855,-3524.039291
524.148241,7328.038826,6291.750507,-1838.629195
524.148561,7698.141797,6217.729913,766.095498
524.148882,7328.038826,7994.224174,1302.362347
524.149203,5847.626942,8290.306550,-1149.143247
524.149523,5033.400406,8142.265362,-2374.896044
524.149844,5995.668130,6513.812290,-1915.238745
524.150164,5255.462188,7105.977043,0.000000
524.150485,4663.297435,7994.224174,1302.362347
524.150806,4441.235652,9252.574275,919.314598
524.151126,3256.906145,9844.739029,-1149.143247
524.151447,2812.782580,8882.471304,-1838.629195
524.151768,2960.823768,7772.162391,306.438199
524.152088,3701.029710,8364.327145,2298.286494
524.152409,2886.803174,9918.759623,2451.505594
524.152730,2368.659014,10214.842000,1455.581446
524.153050,3256.906145,9252.574275,-1302.362347
524.153371,3330.926739,8438.347739,-536.266849
524.153691,4219.173869,8142.265362,1149.143247
524.154012,4367.215058,9030.512492,1532.190996
524.154333,4071.132681,8438.347739,0.000000
524.154653,4663.297435,7476.080014,-689.485948
524.154974,5255.462188,6957.935855,-612.876398
524.155295,5921.647536,7550.100608,-383.047749
524.155615,6587.832884,8956.491898,-306.438199
524.155936,6809.894666,9696.697840,-1378.971896
524.156256,7179.997637,7920.203579,-2145.067394
524.156577,7772.162391,6069.688724,-612.876398
524.156898,7624.121203,5403.503377,612.876398
524.157218,7105.977043,6587.832884,76.609550
524.157539,6069.688724,7550.100608,-995.924147
524.157860,5625.565159,7550.100608,-2528.115143
524.158180,5551.544565,7031.956449,-3140.991542
524.158501,6217.729913,6883.915261,-689.485948
524.158822,6143.709319,7772.162391,995.924147
524.159142,5329.482782,8734.430116,919.314598
524.159463,3775.050304,9030.512492,-1378.971896
524.159783,3108.864956,8142.265362,-1532.190996
524.160104,4515.256246,8438.347739,0.000000
524.160425,5329.482782,9178.553681,2451.505594
524.160745,3997.112087,8660.409521,1762.019645
524.161066,2960.823768,7402.059420,-1149.143247
524.161387,3108.864956,7402.059420,-1532.190996
524.161707,3034.844362,6587.832884,0.000000
524.162028,4515.256246,7105.977043,1302.362347
524.162348,5329.482782,9400.615463,1915.238745
524.162669,4663.297435,10140.821405,0.000000
524.162990,4959.379811,8956.491898,-1225.752797
524.163310,6291.750507,7254.018232,-306.438199
524.163631,6069.688724,7402.059420,0.000000
524.163952,6143.709319,8512.368333,306.438199
524.164272,6365.771101,8586.388927,-995.924147
524.164593,5625.565159,8068.244768,-2681.334243
524.164913,5921.647536,6957.935855,-1685.410096
524.165234,6587.832884,7105.977043,306.438199
524.165555,5847.626942,8438.347739,306.438199
524.165875,5329.482782,9178.553681,-919.314598
524.166196,5551.544565,8586.388927,-1838.629195
524.166517,5477.523971,7179.997637,-766.095498
524.166837,6069.688724,6439.791695,459.657299
524.167158,4663.297435,7328.038826,1915.238745
524.167479,4071.132681,9326.594869,383.047749
524.167799,3182.885551,10214.842000,-1532.190996
524.168120,3627.009116,9474.636058,-1915.238745
524.168440,5033.400406,7179.997637,0.000000
524.168761,4737.318029,7550.100608,1149.143247
524.169082,3182.885551,9178.553681,1149.143247
524.169402,2368.659014,10362.883188,-383.047749
524.169723,2664.741391,8808.450710,-842.705048
524.170044,4293.194464,7994.224174,689.485948
524.170364,5329.482782,8290.306550,2298.286494
524.170685,3775.050304,9400.615463,383.047749
524.171005,3182.885551,10362.883188,-1378.971896
524.171326,3330.926739,8734.430116,-1762.019645
524.171647,4737.318029,6513.812290,0.000000
524.171967,5551.544565,5773.606348,2145.067394
524.172288,5699.585753,7402.059420,1302.362347
524.172609,4145.153275,9918.759623,-919.314598
524.172929,3775.050304,9178.553681,-2451.505594
524.173250,5773.606348,7179.997637,-1455.581446
524.173571,7550.100608,6809.894666,383.047749
524.173891,6661.853478,7105.977043,1225.752797
524.174212,5699.585753,8734.430116,-536.266849
524.174532,4737.318029,8586.388927,-2451.505594
524.174853,4145.153275,7624.121203,-2451.505594
524.175174,5403.503377,6957.935855,-995.924147
524.175494,5625.565159,7698.141797,383.047749
524.175815,5033.400406,10362.883188,612.876398
524.176136,3775.050304,10881.027347,153.219100
524.176456,2812.782580,8142.265362,-995.924147
524.176777,3775.050304,6291.750507,-383.047749
524.177097,3404.947333,7476.080014,1685.410096
524.177418,2294.638420,9622.677246,1532.190996
524.177739,2516.700203,10510.924376,229.828649
524.178059,2812.782580,8586.388927,-1225.752797
524.178380,4589.276840,7254.018232,-536.266849
524.178701,4959.379811,8882.471304,1762.019645
524.179021,2590.720797,10510.924376,1225.752797
524.179342,1628.453072,10510.924376,-842.705048
524.179663,3923.091493,8956.491898,-459.657299
524.179983,5107.421000,6883.915261,76.609550
524.180304,6143.709319,6291.750507,1455.581446
524.180624,5477.523971,8290.306550,919.314598
524.180945,4219.173869,9770.718434,-1838.629195
524.181266,4441.235652,8808.450710,-2681.334243
524.181586,6291.750507,6365.771101,-1608.800546
524.181907,7105.977043,5403.503377,459.657299
524.182228,7105.977043,7105.977043,1608.800546
524.182548,5625.565159,8808.450710,0.000000
524.182869,4737.318029,7624.121203,-2604.724693
524.183189,5625.565159,5995.668130,-1378.971896
524.183510,7920.203579,6365.771101,766.095498
524.183831,6217.729913,7624.121203,766.095498
524.184151,4737.318029,8808.450710,-995.924147
524.184472,4959.379811,9030.512492,-2911.162892
524.184793,4219.173869,6809.894666,-2451.505594
524.185113,5107.421000,5477.523971,153.219100
524.185434,5921.647536,7328.038826,1608.800546
524.185755,3627.009116,9844.739029,383.047749
524.186075,2442.679609,10288.862594,-1225.752797
524.186396,5625.565159,8882.471304,-1302.362347
524.186716,5329.482782,6809.894666,-536.266849
524.187037,5107.421000,6365.771101,1302.362347
524.187358,4885.359217,7772.162391,1685.410096
524.187678,3627.009116,9622.677246,-689.485948
524.187999,3701.029710,9104.533087,-1072.533697
524.188320,6661.853478,7031.956449,-153.219100
524.188640,7105.977043,7105.977043,0.000000
524.188961,6291.750507,8438.347739,612.876398
524.189281,5551.544565,9918.759623,0.000000
524.189602,5699.585753,9252.574275,-1685.410096
524.189923,5181.441594,7105.977043,-536.266849
524.190243,6809.894666,7105.977043,842.705048
524.190564,5699.585753,8882.471304,842.705048
524.190885,2960.823768,10288.862594,-1072.533697
524.191205,3330.926739,9770.718434,-1225.752797
524.191526,4737.318029,8216.285956,-1225.752797
524.191847,4515.256246,6883.915261,689.485948
524.192167,4219.173869,8290.306550,1532.190996
524.192488,3627.009116,10362.883188,0.000000
524.192808,1554.432478,10658.965565,-1685.410096
524.193129,2738.761985,9326.594869,-1225.752797
524.193450,4737.318029,7698.141797,1072.533697
524.193770,4589.276840,8364.327145,1762.019645
524.194091,2590.720797,9770.718434,536.266849
524.194412,2738.761985,9918.759623,-1532.190996
524.194732,2220.617826,8068.244768,-2298.286494
524.195053,3775.050304,7254.018232,-459.657299
524.195373,4737.318029,8216.285956,1455.581446
524.195694,4293.194464,9474.636058,1225.752797
524.196015,4885.359217,10955.047942,919.314598
524.196335,4663.297435,9252.574275,0.000000
524.196656,4441.235652,6143.709319,-536.266849
524.196977,4885.359217,6439.791695,842.705048
524.197297,5033.400406,8734.430116,1072.533697
524.197618,4737.318029,9622.677246,0.000000
524.197939,5403.503377,7624.121203,-1225.752797
524.198259,5921.647536,5773.606348,-1532.190996
524.198580,6069.688724,6143.709319,153.219100
524.198900,5477.523971,9030.512492,2451.505594
524.199221,2812.782580,10510.924376,766.095498
524.199542,3997.112087,8216.285956,-766.095498
524.199862,5847.626942,6809.894666,-383.047749
524.200183,5551.544565,5773.606348,689.485948
524.200504,4885.359217,7254.018232,459.657299
524.200824,3849.070898,9400.615463,-306.438199
524.201145,3701.029710,9178.553681,-2145.067394
524.201465,4737.318029,7105.977043,-1225.752797
524.201786,5847.626942,5995.668130,612.876398
524.202107,5847.626942,8068.244768,1072.533697
524.202427,4737.318029,9992.780217,995.924147
524.202748,4145.153275,9474.636058,-919.314598
524.203069,4737.318029,6735.874072,-1838.629195
524.203389,7105.977043,5477.523971,306.438199
524.203710,7105.977043,6957.935855,2451.505594
524.204031,5403.503377,8734.430116,306.438199
524.204351,5329.482782,9104.533087,-2221.676944
524.204672,6069.688724,7254.018232,-2834.553343
524.204992,7920.203579,5847.626942,0.000000
524.205313,8512.368333,6735.874072,2451.505594
524.205634,7179.997637,9030.512492,2068.457845
524.205954,5403.503377,9844.739029,-1225.752797
524.206275,5477.523971,7846.182985,-2298.286494
524.206595,6957.935855,6143.709319,-383.047749
524.206916,7105.977043,5625.565159,1302.362347
524.207237,6439.791695,7328.038826,1608.800546
524.207557,5625.565159,8586.388927,-536.266849
524.207878,3997.112087,7624.121203,-2451.505594
524.208199,3775.050304,5477.523971,-1608.800546
524.208519,6217.729913,7328.038826,1072.533697
524.208840,5107.421000,10732.986159,1838.629195
524.209160,4219.173869,11547.212695,-229.828649
524.209481,5847.626942,9400.615463,-2221.676944
524.209802,3849.070898,6439.791695,-2604.724693
524.210122,4367.215058,6143.709319,-229.828649
524.210443,4589.276840,9030.512492,2068.457845
524.210764,1850.514855,10436.903782,0.000000
524.211084,2220.617826,9696.697840,-2451.505594
524.211405,4589.276840,8142.265362,-919.314598
524.211725,4737.318029,7179.997637,229.828649
524.212046,4515.256246,8216.285956,1608.800546
524.212367,4145.153275,10732.986159,995.924147
524.212687,4811.338623,10510.924376,-1072.533697
524.213008,5329.482782,7254.018232,-689.485948
524.213328,6439.791695,5551.544565,536.266849
524.213649,7105.977043,7772.162391,1225.752797
524.213970,4589.276840,9622.677246,842.705048
524.214290,4441.235652,9548.656652,-1608.800546
524.214611,5773.606348,6365.771101,-2528.115143
524.214932,6291.750507,4663.297435,-612.876398
524.215252,6735.874072,6883.915261,2374.896044
524.215573,4737.318029,9770.718434,1838.629195
524.215893,3478.967927,10436.903782,-919.314598
524.216214,4441.235652,7994.224174,-2145.067394
524.216535,6291.750507,5107.421000,-995.924147
524.216855,6217.729913,5847.626942,2451.505594
524.217176,4589.276840,8586.388927,2298.286494
524.217497,2664.741391,9992.780217,-1225.752797
524.217817,3256.906145,8438.347739,-3753.867940
524.218138,5255.462188,5699.585753,-1838.629195
524.218458,7105.977043,5995.668130,1378.971896
524.218779,5921.647536,8216.285956,2145.067394
524.219100,3701.029710,10214.842000,-153.219100
524.219420,4885.359217,9992.780217,-1991.848295
524.219741,5699.585753,7105.977043,-229.828649
524.220061,6587.832884,5181.441594,2451.505594
524.220382,7105.977043,6513.812290,3524.039291
524.220703,4811.338623,8660.409521,766.095498
524.221023,4515.256246,8512.368333,-1991.848295
524.221344,5477.523971,5847.626942,-2298.286494
524.221665,7031.956449,4441.235652,-689.485948
524.221985,8142.265362,6957.935855,2374.896044
524.222306,5921.647536,9770.718434,1915.238745
524.222626,4663.297435,10140.821405,-612.876398
524.222947,5625.565159,8216.285956,-1608.800546
524.223268,6587.832884,5995.668130,0.000000
524.223588,6735.874072,6957.935855,2068.457845
524.223909,5181.441594,7476.080014,919.314598
524.224230,3404.947333,8808.450710,-2374.896044
524.224550,4293.194464,8142.265362,-2451.505594
524.224871,4441.235652,6365.771101,-1608.800546
524.225191,5255.462188,6587.832884,383.047749
524.225512,4737.318029,9326.594869,1991.848295
524.225833,3997.112087,10807.006753,229.828649
524.226153,4219.173869,9844.739029,-1378.971896
524.226474,4441.235652,7031.956449,-1225.752797
524.226794,5699.585753,6365.771101,0.000000
524.227115,5847.626942,7698.141797,1302.362347
524.227436,3627.009116,8660.409521,-306.438199
524.227756,4589.276840,8216.285956,-2604.724693
524.228077,5699.585753,7402.059420,-2757.943793
524.228398,6069.688724,6883.915261,0.000000
524.228718,7105.977043,7846.182985,2298.286494
524.229039,6143.709319,9696.697840,766.095498
524.229359,5699.585753,9474.636058,-1915.238745
524.229680,5995.668130,8364.327145,-1149.143247
524.230001,6143.709319,7179.997637,383.047749
524.230321,6587.832884,7105.977043,1762.019645
524.230642,5033.400406,8438.347739,1072.533697
524.230962,3182.885551,8512.368333,-1685.410096
524.231283,2886.803174,7031.956449,-2911.162892
524.231604,4219.173869,6291.750507,-766.095498
524.231924,5329.482782,8216.285956,1532.190996
524.232245,4515.256246,9622.677246,1838.629195
524.232566,3775.050304,10584.944971,-1225.752797
524.232886,3923.091493,9918.759623,-2681.334243
524.233207,3256.906145,8068.244768,-1378.971896
524.233527,5181.441594,7476.080014,995.924147
524.233848,5699.585753,8808.450710,1302.362347
524.234169,3552.988522,9696.697840,-306.438199
524.234489,3108.864956,9326.594869,-1838.629195
524.234810,4515.256246,7772.162391,-1608.800546
524.235131,5551.544565,7920.203579,306.438199
524.235451,5773.606348,8364.327145,1838.629195
524.235772,4959.379811,7846.182985,153.219100
524.236092,5329.482782,8290.306550,-1302.362347
524.236413,5625.565159,7476.080014,689.485948
524.236734,6143.709319,5995.668130,1838.629195
524.237054,7624.121203,6365.771101,2145.067394
524.237375,6217.729913,7698.141797,1072.533697
524.237695,5107.421000,7550.100608,-1455.581446
524.238016,6957.935855,6365.771101,-1838.629195
524.238337,7698.141797,5329.482782,-306.438199
524.238657,7550.100608,5921.647536,536.266849
524.238978,7031.956449,7698.141797,842.705048
524.239299,5329.482782,9030.512492,-1532.190996
524.239619,4219.173869,8142.265362,-1455.581446
524.239940,5181.441594,7031.956449,229.828649
524.240260,6069.688724,6957.935855,1378.971896
524.240581,4959.379811,7550.100608,1225.752797
524.240902,3701.029710,8068.244768,-1072.533697
524.241222,3404.947333,7105.977043,-2757.943793
524.241543,3182.885551,6661.853478,-1149.143247
524.241864,4219.173869,7550.100608,1838.629195
524.242184,4219.173869,9178.553681,2221.676944
524.242505,3330.926739,9918.759623,-306.438199
524.242825,4737.318029,9844.739029,-1532.190996
524.243146,4663.297435,8438.347739,-842.705048
524.243467,4737.318029,7328.038826,0.000000
524.243787,5847.626942,7476.080014,1302.362347
524.244108,4515.256246,8290.306550,0.000000
524.244428,4737.318029,8660.409521,-1608.800546
524.244749,4219.173869,7328.038826,-1455.581446
524.245070,6069.688724,7328.038826,-229.828649
524.245390,6365.771101,8956.491898,2068.457845
524.245711,4737.318029,9844.739029,1072.533697
524.246032,4515.256246,8882.471304,-1455.581446
524.246352,5033.400406,8290.306550,-842.705048
524.246673,4663.297435,6883.915261,536.266849
524.246993,5847.626942,7105.977043,1302.362347
524.247314,4737.318029,8216.285956,229.828649
524.247635,3182.885551,8438.347739,-1915.238745
524.247955,3997.112087,8438.347739,-1762.019645
524.248276,5403.503377,7846.182985,-689.485948
524.248597,4293.194464,8660.409521,-459.657299
524.248917,4885.359217,9474.636058,-612.876398
524.249238,4219.173869,10066.800811,-1455.581446
524.249558,3997.112087,9178.553681,-2145.067394
524.249879,4663.297435,7920.203579,-383.047749
524.250200,5551.544565,8882.471304,995.924147
524.250520,4293.194464,10140.821405,229.828649
524.250841,3701.029710,11029.068536,-842.705048
524.251161,3478.967927,9474.636058,-1915.238745
524.251482,4293.194464,6587.832884,-1378.971896
524.251803,5551.544565,6439.791695,1378.971896
524.252123,5773.606348,8216.285956,2374.896044
524.252444,4145.153275,9326.594869,612.876398
524.252765,3330.926739,8512.368333,-1378.971896
524.253085,5921.647536,7179.997637,-1455.581446
524.253406,6735.874072,6735.874072,1532.190996
524.253726,6587.832884,7624.121203,2451.505594
524.254047,5625.565159,8364.327145,76.609550
524.254368,4885.359217,7846.182985,-1915.238745
524.254688,4737.318029,6291.750507,-1378.971896
524.255009,5995.668130,5625.565159,306.438199
524.255330,7179.997637,7031.956449,1225.752797
524.255650,5181.441594,9326.594869,-536.266849
524.255971,4219.173869,9326.594869,-2374.896044
524.256291,5181.441594,7328.038826,-1991.848295
524.256612,6587.832884,6365.771101,459.657299
524.256933,6143.709319,5847.626942,1838.629195
524.257253,4737.318029,7920.203579,0.000000
524.257574,2960.823768,9474.636058,-2604.724693
524.257894,3034.844362,8586.388927,-2604.724693
524.258215,4737.318029,7105.977043,0.000000
524.258536,6587.832884,7105.977043,1608.800546
524.258856,4515.256246,9548.656652,1455.581446
524.259177,2886.803174,11251.130318,-766.095498
524.259498,2368.659014,10288.862594,-2068.457845
524.259818,3108.864956,7476.080014,76.609550
524.260139,5773.606348,6735.874072,2681.334243
524.260459,5921.647536,7772.162391,3524.039291
524.260780,3256.906145,9178.553681,0.000000
524.261101,3552.988522,9844.739029,-1915.238745
524.261421,4441.235652,8512.368333,-306.438199
524.261742,5181.441594,6217.729913,1762.019645
524.262063,5625.565159,6809.894666,2451.505594
524.262383,5329.482782,8660.409521,842.705048
524.262704,4219.173869,9104.533087,-1378.971896
524.263024,4441.235652,7624.121203,-1685.410096
524.263345,6217.729913,6143.709319,-306.438199
524.263666,7254.018232,7179.997637,1532.190996
524.263986,5329.482782,9030.512492,0.000000
524.264307,4589.276840,9696.697840,-2681.334243
524.264627,4367.215058,8290.306550,-3217.601092
524.264948,6069.688724,7031.956449,-919.314598
524.265269,6439.791695,6957.935855,1302.362347
524.265589,5329.482782,8512.368333,536.266849
524.265910,4367.215058,9548.656652,-1225.752797
524.266231,4885.359217,8734.430116,-2221.676944
524.266551,5255.462188,6587.832884,-1225.752797
524.266872,4811.338623,6291.750507,612.876398
524.267192,4737.318029,8438.347739,689.485948
524.267513,4145.153275,10362.883188,-536.266849
524.267834,3108.864956,10584.944971,-1378.971896
524.268154,4219.173869,7624.121203,-459.657299
524.268475,5477.523971,6809.894666,1455.581446
524.268795,4219.173869,8364.327145,2451.505594
524.269116,2738.761985,9696.697840,919.314598
524.269437,2960.823768,9474.636058,-536.266849
524.269757,4145.153275,7624.121203,-1072.533697
524.270078,5403.503377,6661.853478,229.828649
524.270399,5181.441594,8142.265362,1608.800546
524.270719,1776.494261,9548.656652,-306.438199
524.271040,2146.597232,9548.656652,-1455.581446
524.271360,5033.400406,8290.306550,-153.219100
524.271681,6735.874072,6735.874072,689.485948
524.272002,6291.750507,7105.977043,0.000000
524.272322,5625.565159,9252.574275,-1762.019645
524.272643,4145.153275,10955.047942,-2987.772442
524.272964,4959.379811,9252.574275,-1991.848295
524.273284,7328.038826,6587.832884,-383.047749
524.273605,7846.182985,5847.626942,1608.800546
524.273925,5551.544565,8512.368333,995.924147
524.274246,3849.070898,10288.862594,-1225.752797
524.274567,3108.864956,9400.615463,-3524.039291
524.274887,5625.565159,7624.121203,-1685.410096
524.275208,6513.812290,6735.874072,2145.067394
524.275528,5551.544565,7920.203579,2987.772442
524.275849,3478.967927,10066.800811,1302.362347
524.276170,2368.659014,9622.677246,-1072.533697
524.276490,2738.761985,7846.182985,-612.876398
524.276811,4885.359217,6809.894666,1608.800546
524.277132,4811.338623,7254.018232,2911.162892
524.277452,4293.194464,8956.491898,1225.752797
524.277773,3997.112087,9474.636058,-995.924147
524.278093,3478.967927,7624.121203,-1378.971896
524.278414,4145.153275,7105.977043,-766.095498
524.278735,5773.606348,7698.141797,1149.143247
524.279055,4737.318029,8882.471304,1532.190996
524.279376,5181.441594,8512.368333,536.266849
524.279697,5329.482782,6735.874072,-766.095498
524.280017,6365.771101,5921.647536,-612.876398
524.280338,6735.874072,6809.894666,-306.438199
524.280658,6217.729913,8364.327145,-1378.971896
524.280979,5625.565159,8290.306550,-2451.505594
524.281300,6439.791695,6439.791695,-1991.848295
524.281620,7772.162391,4959.379811,0.000000
524.281941,7105.977043,5773.606348,995.924147
524.282261,5995.668130,7920.203579,1072.533697
524.282582,5329.482782,9548.656652,-766.095498
524.282903,5773.606348,8660.409521,-1378.971896
524.283223,6217.729913,7031.956449,-459.657299
524.283544,6217.729913,6439.791695,1072.533697
524.283865,4441.235652,7772.162391,995.924147
524.284185,3108.864956,8734.430116,-153.219100
524.284506,2812.782580,8216.285956,-1302.362347
524.284826,3923.091493,7179.997637,0.000000
524.285147,4811.338623,6809.894666,1378.971896
524.285468,4737.318029,9326.594869,2451.505594
524.285788,3997.112087,11547.212695,919.314598
524.286109,2812.782580,10214.842000,-612.876398
524.286430,3701.029710,7254.018232,-536.266849
524.286750,5847.626942,7105.977043,536.266849
524.287071,4663.297435,7846.182985,1608.800546
524.287391,3701.029710,9252.574275,459.657299
524.287712,4811.338623,9844.739029,-1991.848295
524.288033,4589.276840,8512.368333,-2374.896044
524.288353,6439.791695,7402.059420,-919.314598
524.288674,7550.100608,8364.327145,459.657299
524.288994,5921.647536,9548.656652,153.219100
524.289315,5107.421000,9770.718434,-1072.533697
524.289636,4737.318029,8142.265362,-1072.533697
524.289956,4219.173869,6365.771101,-766.095498
524.290277,5329.482782,7179.997637,1532.190996
524.290598,4885.359217,8956.491898,1915.238745
524.290918,4145.153275,9992.780217,-842.705048
524.291239,3849.070898,8142.265362,-2068.457845
524.291559,4959.379811,7105.977043,-1608.800546
524.291880,4589.276840,7698.141797,1149.143247
524.292201,3923.091493,9770.718434,2757.943793
524.292521,3849.070898,10436.903782,1072.533697
524.292842,4145.153275,9252.574275,-153.219100
524.293163,4441.235652,7031.956449,536.266849
524.293483,5033.400406,5847.626942,1072.533697
524.293804,3997.112087,7105.977043,0.000000
524.294124,3997.112087,8956.491898,-919.314598
524.294445,3775.050304,7994.224174,-1762.019645
524.294766,4737.318029,5773.606348,-1838.629195
524.295086,7476.080014,6365.771101,919.314598
524.295407,6587.832884,7920.203579,1991.848295
524.295727,4515.256246,8956.491898,-229.828649
524.296048,5551.544565,9030.512492,-2068.457845
524.296369,7031.956449,6661.853478,-1608.800546
524.296689,7328.038826,4589.276840,-153.219100
524.297010,8068.244768,4885.359217,919.314598
524.297331,6587.832884,7846.182985,-306.438199
524.297651,4367.215058,9474.636058,-2834.553343
524.297972,4589.276840,7476.080014,-2757.943793
524.298292,7179.997637,4293.194464,-612.876398
524.298613,7476.080014,4811.338623,2528.115143
524.298934,6291.750507,8586.388927,2374.896044
524.299254,4589.276840,10436.903782,-1149.143247
524.299575,4145.153275,9696.697840,-3064.381992
524.299896,6143.709319,8216.285956,-766.095498
524.300216,7254.018232,7105.977043,2145.067394
524.300537,5181.441594,7105.977043,1915.238745
524.300857,2960.823768,9178.553681,-229.828649
524.301178,2220.617826,9178.553681,-1915.238745
524.301499,3552.988522,7105.977043,-919.314598
524.301819,5847.626942,6661.853478,1225.752797
524.302140,5551.544565,8882.471304,1455.581446
524.302460,4293.194464,12509.480420,0.000000
524.302781,4145.153275,11473.192101,-995.924147
524.303102,5107.421000,8438.347739,-919.314598
524.303422,6735.874072,6291.750507,1072.533697
524.303743,6439.791695,6513.812290,2451.505594
524.304063,4959.379811,8586.388927,-229.828649
524.304384,3775.050304,9548.656652,-2757.943793
524.304705,4589.276840,9326.594869,-3217.601092
524.305025,7179.997637,7031.956449,-1378.971896
524.305346,7698.141797,6143.709319,995.924147
524.305666,5847.626942,8364.327145,1302.362347
524.305987,4663.297435,10214.842000,0.000000
524.306308,3330.926739,8438.347739,-1149.143247
524.306628,4811.338623,6809.894666,-383.047749
524.306949,6439.791695,6661.853478,1608.800546
524.307269,4293.194464,7846.182985,919.314598
524.307590,4811.338623,9104.533087,-1149.143247
524.307910,4737.318029,8290.306550,-2757.943793
524.308231,3923.091493,6143.709319,-1838.629195
524.308552,5255.462188,6439.791695,1149.143247
524.308872,4737.318029,8586.388927,2145.067394
524.309193,2072.576638,10510.924376,76.609550
524.309513,3775.050304,9696.697840,-536.266849
524.309834,4663.297435,7772.162391,0.000000
524.310155,4885.359217,7031.956449,459.657299
524.310475,4737.318029,7476.080014,1225.752797
524.310796,3478.967927,8882.471304,-383.047749
524.311116,2886.803174,8438.347739,-2145.067394
524.311437,4441.235652,7105.977043,-1072.533697
524.311757,5625.565159,6217.729913,76.609550
524.312078,5551.544565,6957.935855,306.438199
524.312399,4885.359217,9844.739029,1302.362347
524.312719,4145.153275,10362.883188,0.000000
524.313040,4737.318029,7476.080014,-612.876398
524.313360,7105.977043,6217.729913,306.438199
524.313681,6291.750507,6439.791695,153.219100
524.314001,4663.297435,7254.018232,-459.657299
524.314322,5329.482782,8586.388927,-1532.190996
524.314643,5625.565159,7254.018232,-2145.067394
524.314963,6735.874072,5033.400406,-612.876398
524.315284,7994.224174,5921.647536,1378.971896
524.315604,5551.544565,7772.162391,153.219100
524.315925,4515.256246,10288.862594,-1302.362347
524.316246,5033.400406,9844.739029,-1455.581446
524.316566,7031.956449,7105.977043,-1838.629195
524.316887,8216.285956,6957.935855,229.828649
524.317207,5995.668130,7994.224174,1838.629195
524.317528,3330.926739,8808.450710,-1149.143247
524.317848,3404.947333,8808.450710,-2451.505594
524.318169,4145.153275,7550.100608,-1532.190996
524.318490,6587.832884,7105.977043,1225.752797
524.318810,6883.915261,8216.285956,2068.457845
524.319131,4737.318029,10140.821405,536.266849
524.319451,3256.906145,10584.944971,-1608.800546
524.319772,3552.988522,7994.224174,-995.924147
524.320093,5625.565159,7105.977043,995.924147
524.320413,5625.565159,6883.915261,2068.457845
524.320734,4663.297435,7994.224174,459.657299
524.321054,4515.256246,9474.636058,-1762.019645
524.321375,3923.091493,8734.430116,-2374.896044
524.321695,5181.441594,7402.059420,0.000000
524.322016,7179.997637,7179.997637,919.314598
524.322337,5921.647536,9178.553681,76.609550
524.322657,4811.338623,9918.759623,-612.876398
524.322978,4811.338623,7772.162391,-995.924147
524.323298,5699.585753,6217.729913,-919.314598
524.323619,6883.915261,6587.832884,-229.828649
524.323939,5995.668130,7994.224174,-306.438199
524.324260,5773.606348,8734.430116,-1838.629195
524.324581,5847.626942,8364.327145,-1915.238745
524.324901,6217.729913,7402.059420,-1072.533697
524.325222,5921.647536,6587.832884,0.000000
524.325542,4737.318029,7698.141797,536.266849
524.325863,3923.091493,9918.759623,76.609550
524.326184,4219.173869,9326.594869,-229.828649
524.326504,3923.091493,7031.956449,-306.438199
524.326825,5033.400406,7105.977043,306.438199
524.327145,4071.132681,8512.368333,1838.629195
524.327466,2368.659014,9696.697840,766.095498
524.327786,2368.659014,8956.491898,-612.876398
524.328107,4071.132681,7994.224174,-383.047749
524.328428,4811.338623,7772.162391,229.828649
524.328748,3478.967927,8882.471304,995.924147
524.329069,2368.659014,9326.594869,-383.047749
524.329389,2664.741391,9918.759623,-689.485948
524.329710,4219.173869,8290.306550,383.047749
524.330031,5255.462188,6735.874072,1532.190996
524.330351,5773.606348,7698.141797,842.705048
524.330672,4737.318029,9178.553681,-536.266849
524.330992,3775.050304,9770.718434,-1685.410096
524.331313,4367.215058,7402.059420,-2145.067394
524.331633,6513.812290,5847.626942,-383.047749
524.331954,6883.915261,7031.956449,919.314598
524.332275,5921.647536,8660.409521,766.095498
524.332595,4219.173869,10288.862594,-1608.800546
524.332916,4515.256246,9474.636058,-2681.334243
524.333236,5847.626942,7624.121203,-229.828649
524.333557,6513.812290,7031.956449,2145.067394
524.333878,6291.750507,7846.182985,1608.800546
524.334198,4219.173869,8512.368333,-153.219100
524.334519,3256.906145,7402.059420,-1608.800546
524.334839,4663.297435,6587.832884,0.000000
524.335160,5551.544565,6439.791695,1608.800546
524.335480,5477.523971,8586.388927,1532.190996
524.335801,4959.379811,9992.780217,229.828649
524.336122,4811.338623,9918.759623,-995.924147
524.336442,4589.276840,7698.141797,76.609550
524.336763,5847.626942,5773.606348,1149.143247
524.337083,5699.585753,5921.647536,1762.019645
524.337404,4145.153275,7105.977043,766.095498
524.337724,4737.318029,8438.347739,-536.266849
524.338045,5847.626942,6883.915261,-1302.362347
524.338366,6587.832884,6217.729913,-1532.190996
524.338686,7254.018232,7031.956449,-459.657299
524.339007,6809.894666,9178.553681,-919.314598
524.339327,5255.462188,9696.697840,-1378.971896
524.339648,5181.441594,7328.038826,-536.266849
524.339969,6365.771101,5551.544565,536.266849
524.340289,6143.709319,6661.853478,1378.971896
524.340610,4737.318029,8290.306550,-229.828649
524.340930,4293.194464,9030.512492,-2604.724693
524.341251,4885.359217,9104.533087,-3140.991542
524.341571,4959.379811,7476.080014,-612.876398
524.341892,5625.565159,7031.956449,1302.362347
524.342213,4441.235652,8364.327145,1532.190996
524.342533,2368.659014,9992.780217,-383.047749
524.342854,2664.741391,9992.780217,-1302.362347
524.343174,3552.988522,7846.182985,-612.876398
524.343495,5773.606348,7624.121203,1149.143247
524.343816,5403.503377,9178.553681,1991.848295
524.344136,2960.823768,10584.944971,-536.266849
524.344457,1998.556043,10955.047942,-2221.676944
524.344777,2812.782580,9252.574275,-1532.190996
524.345098,4145.153275,7179.997637,383.047749
524.345418,4885.359217,7772.162391,2068.457845
524.345739,3997.112087,9474.636058,919.314598
524.346060,2886.803174,10881.027347,-1838.629195
524.346380,3849.070898,9178.553681,-1991.848295
524.346701,5181.441594,6809.894666,0.000000
524.347021,6513.812290,7254.018232,1991.848295
524.347342,5255.462188,9770.718434,1378.971896
524.347662,3404.947333,10658.965565,-1455.581446
524.347983,3923.091493,8290.306550,-2834.553343
524.348304,6661.853478,5995.668130,-1608.800546
524.348624,7031.956449,6365.771101,919.314598
524.348945,5773.606348,7698.141797,842.705048
524.349265,4663.297435,9326.594869,-1072.533697
524.349586,5107.421000,8882.471304,-1838.629195
524.349907,6143.709319,7698.141797,-612.876398
524.350227,7328.038826,6809.894666,1302.362347
524.350548,6069.688724,6957.935855,536.266849
524.350868,4885.359217,8438.347739,-306.438199
524.351189,4367.215058,9104.533087,0.000000
524.351509,4737.318029,7846.182985,306.438199
524.351830,5921.647536,5921.647536,0.000000
524.352151,5847.626942,8660.409521,76.609550
524.352471,3552.988522,9548.656652,-306.438199
524.352792,3404.947333,8882.471304,-766.095498
524.353112,4589.276840,7476.080014,229.828649
524.353433,5033.400406,5773.606348,1762.019645
524.353754,3997.112087,6661.853478,2604.724693
524.354074,3552.988522,8290.306550,1149.143247
524.354395,3034.844362,9326.594869,-1072.533697
524.354715,4071.132681,7920.203579,-1455.581446
524.355036,5847.626942,6069.688724,-689.485948
524.355356,7328.038826,6661.853478,612.876398
524.355677,5329.482782,8660.409521,995.924147
524.355998,4219.173869,9400.615463,0.000000
524.356318,5255.462188,7624.121203,-1838.629195
524.356639,6883.915261,5995.668130,-766.095498
524.356959,7328.038826,6291.750507,1762.019645
524.357280,6957.935855,8290.306550,1072.533697
524.357600,5847.626942,9030.512492,-1762.019645
524.357921,4737.318029,8734.430116,-2834.553343
524.358242,4811.338623,6513.812290,-1608.800546
524.358562,5107.421000,5551.544565,0.000000
524.358883,5107.421000,7402.059420,1685.410096
524.359203,4145.153275,9548.656652,459.657299
524.359524,3330.926739,10436.903782,-1149.143247
524.359845,4367.215058,9474.636058,-919.314598
524.360165,4959.379811,9548.656652,459.657299
524.360486,3997.112087,9400.615463,1149.143247
524.360806,3775.050304,9474.636058,612.876398
524.361127,2960.823768,9178.553681,-919.314598
524.361447,2812.782580,7994.224174,-383.047749
524.361768,3923.091493,7846.182985,536.266849
524.362089,4885.359217,8808.450710,612.876398
524.362409,3997.112087,10658.965565,383.047749
524.362730,4589.276840,11251.130318,0.000000
524.363050,4737.318029,8882.471304,-536.266849
524.363371,5255.462188,7402.059420,0.000000
524.363692,5551.544565,7031.956449,1149.143247
524.364012,4737.318029,8660.409521,689.485948
524.364333,4441.235652,9178.553681,-459.657299
524.364653,5477.523971,8660.409521,-1072.533697
524.364974,6513.812290,6735.874072,-1149.143247
524.365294,6957.935855,5921.647536,-536.266849
524.365615,7031.956449,7846.182985,306.438199
524.365936,5477.523971,7994.224174,-919.314598
524.366256,4441.235652,6513.812290,-1302.362347
524.366577,6217.729913,7105.977043,-689.485948
524.366897,6439.791695,7476.080014,842.705048
524.367218,4811.338623,8512.368333,0.000000
524.367538,5477.523971,9178.553681,-1532.190996
524.367859,4293.194464,8216.285956,-2451.505594
524.368180,4219.173869,6217.729913,-1685.410096
524.368500,5773.606348,5995.668130,919.314598
524.368821,5625.565159,8142.265362,995.924147
524.369141,3034.844362,10288.862594,-459.657299
524.369462,3182.885551,9918.759623,-1685.410096
524.369783,4293.194464,7402.059420,-842.705048
524.370103,5255.462188,6513.812290,919.314598
524.370424,4737.318029,6661.853478,2681.334243
524.370744,4219.173869,8438.347739,0.000000
524.371065,3404.947333,8882.471304,-1991.848295
524.371385,3627.009116,7179.997637,-1608.800546
524.371706,6513.812290,6439.791695,-383.047749
524.372027,7105.977043,7698.141797,1378.971896
524.372347,5551.544565,9844.739029,766.095498
524.372668,4441.235652,10362.883188,-995.924147
524.372988,6069.688724,7920.203579,-459.657299
524.373309,6439.791695,6217.729913,612.876398
524.373630,6735.874072,5773.606348,1915.238745
524.373950,5699.585753,7846.182985,153.219100
524.374271,4885.359217,9992.780217,-2221.676944
524.374591,5033.400406,8956.491898,-2221.676944
524.374912,6883.915261,6513.812290,-612.876398
524.375232,7402.059420,5847.626942,995.924147
524.375553,5477.523971,7772.162391,689.485948
524.375874,3775.050304,9918.759623,-1149.143247
524.376194,3478.967927,10066.800811,-2068.457845
524.376515,5403.503377,8216.285956,-229.828649
524.376835,7031.956449,7550.100608,2145.067394
524.377156,5403.503377,8734.430116,1838.629195
524.377477,3182.885551,10362.883188,-689.485948
524.377797,2368.659014,10214.842000,-1838.629195
524.378118,2886.803174,7402.059420,-919.314598
524.378438,4811.338623,6291.750507,995.924147
524.378759,5699.585753,7402.059420,2451.505594
524.379079,3923.091493,10288.862594,1149.143247
524.379400,3256.906145,11177.109724,-766.095498
524.379721,4219.173869,8882.471304,-1149.143247
524.380041,5847.626942,6809.894666,153.219100
524.380362,5995.668130,6661.853478,2068.457845
524.380682,5255.462188,7772.162391,1455.581446
524.381003,3997.112087,9104.533087,-1072.533697
524.381323,4515.256246,7920.203579,-1991.848295
524.381644,6143.709319,6143.709319,-842.705048
524.381965,7550.100608,6291.750507,919.314598
524.382285,6217.729913,7698.141797,995.924147
524.382606,4885.359217,9918.759623,-919.314598
524.382926,5477.523971,8956.491898,-2528.115143
524.383247,6143.709319,6365.771101,-1378.971896
524.383568,6809.894666,6217.729913,919.314598
524.383888,5625.565159,7031.956449,1225.752797
524.384209,4145.153275,8216.285956,-612.876398
524.384529,3552.988522,7772.162391,-1991.848295
524.384850,5773.606348,6957.935855,-1532.190996
524.385170,7031.956449,6809.894666,459.657299
524.385491,5329.482782,6291.750507,229.828649
524.385812,4219.173869,8364.327145,153.219100
524.386132,4441.235652,9104.533087,0.000000
524.386453,4071.132681,7698.141797,612.876398
524.386773,6143.709319,5551.544565,1225.752797
524.387094,7031.956449,6143.709319,766.095498
524.387415,3849.070898,8438.347739,-1608.800546
524.387735,3923.091493,9474.636058,-2221.676944
524.388056,5625.565159,8364.327145,-689.485948
524.388376,6735.874072,6143.709319,76.609550
524.388697,7328.038826,6809.894666,1302.362347
524.389017,4959.379811,9252.574275,153.219100
524.389338,2442.679609,9548.656652,-2451.505594
524.389659,3997.112087,9178.553681,-612.876398
524.389979,6513.812290,7698.141797,1072.533697
524.390300,6661.853478,7105.977043,1378.971896
524.390620,5403.503377,8142.265362,459.657299
524.390941,4367.215058,9992.780217,-1915.238745
524.391261,2960.823768,9918.759623,-2298.286494
524.391582,4145.153275,8068.244768,-153.219100
524.391903,7105.977043,7476.080014,842.705048
524.392223,5625.565159,8438.347739,995.924147
524.392544,3182.885551,11029.068536,689.485948
524.392864,2664.741391,10807.006753,-842.705048
524.393185,3478.967927,9030.512492,-1225.752797
524.393506,5181.441594,7994.224174,306.438199
524.393826,4737.318029,7476.080014,689.485948
524.394147,4219.173869,8068.244768,-766.095498
524.394467,3849.070898,9326.594869,-153.219100
524.394788,3701.029710,7920.203579,0.000000
524.395108,5847.626942,6957.935855,536.266849
524.395429,6069.688724,7328.038826,766.095498
524.395750,4811.338623,8882.471304,0.000000
524.396070,5403.503377,8882.471304,-842.705048
524.396391,6069.688724,6883.915261,-689.485948
524.396711,7994.224174,5107.421000,0.000000
524.397032,7476.080014,5107.421000,766.095498
524.397353,5551.544565,6439.791695,-459.657299
524.397673,4737.318029,8216.285956,-2298.286494
524.397994,5995.668130,9178.553681,-1532.190996
524.398314,5921.647536,7550.100608,-689.485948
524.398635,7920.203579,6365.771101,0.000000
524.398955,6809.894666,7179.997637,-536.266849
524.399276,3997.112087,8956.491898,-1455.581446
524.399597,3701.029710,8290.306550,-1302.362347
524.399917,4293.194464,6439.791695,689.485948
524.400238,5181.441594,6439.791695,1685.410096
524.400558,4663.297435,8512.368333,1685.410096
524.400879,2812.782580,10584.944971,0.000000
524.401199,2664.741391,9992.780217,-1915.238745
524.401520,4367.215058,7550.100608,-459.657299
524.401841,5625.565159,6587.832884,1378.971896
524.402161,5477.523971,7179.997637,1225.752797
524.402482,3849.070898,8808.450710,0.000000
524.402802,3182.885551,9474.636058,-1685.410096
524.403123,4811.338623,8882.471304,0.000000
524.403444,6883.915261,7846.182985,1455.581446
524.403764,6365.771101,7550.100608,766.095498
524.404085,5033.400406,8216.285956,-306.438199
524.404405,5107.421000,8882.471304,-1225.752797
524.404726,5107.421000,7105.977043,-842.705048
524.405046,6069.688724,5699.585753,229.828649
524.405367,7772.162391,6809.894666,766.095498
524.405688,6809.894666,9326.594869,-153.219100
524.406008,5329.482782,10658.965565,-1149.143247
524.406329,5699.585753,9696.697840,-459.657299
524.406650,6513.812290,7031.956449,0.000000
524.406970,6143.709319,6661.853478,612.876398
524.407291,4885.359217,7402.059420,689.485948
524.407612,3478.967927,8734.430116,-1072.533697
524.407932,4367.215058,8734.430116,-1608.800546
524.408253,4071.132681,6661.853478,-153.219100
524.408574,3330.926739,7031.956449,-153.219100
524.408894,3775.050304,9474.636058,1149.143247
524.409215,2738.761985,11843.295072,1225.752797
524.409536,2072.576638,10881.027347,0.000000
524.409856,5477.523971,8956.491898,0.000000
524.410177,5699.585753,7772.162391,459.657299
524.410498,3182.885551,8216.285956,0.000000
524.410818,2220.617826,8734.430116,-766.095498
524.411139,3256.906145,8142.265362,-995.924147
524.411460,4589.276840,7179.997637,-306.438199
524.411781,6143.709319,6661.853478,919.314598
524.412101,5255.462188,7994.224174,0.000000
524.412422,4145.153275,10066.800811,-1608.800546
524.412743,3849.070898,10362.883188,-766.095498
524.413063,6143.709319,7105.977043,612.876398
524.413384,8142.265362,4737.318029,1532.190996
524.413705,7328.038826,5033.400406,1225.752797
524.414025,5181.441594,8068.244768,-1149.143247
524.414346,4071.132681,9400.615463,-2987.772442
524.414667,5329.482782,8438.347739,-2145.067394
524.414987,7476.080014,6809.894666,0.000000
524.415308,7624.121203,5551.544565,919.314598
524.415629,6439.791695,7698.141797,153.219100
524.415949,3775.050304,10510.924376,-1302.362347
524.416270,2812.782580,8956.491898,-1915.238745
524.416591,5181.441594,6809.894666,-612.876398
524.416912,6513.812290,5181.441594,1225.752797
524.417232,4811.338623,7402.059420,1838.629195
524.417553,4071.132681,9326.594869,153.219100
524.417874,2590.720797,9474.636058,-919.314598
524.418194,3478.967927,8364.327145,-1838.629195
524.418515,5551.544565,7031.956449,76.609550
524.418836,5551.544565,7624.121203,76.609550
524.419156,4737.318029,9918.759623,0.000000
524.419477,2664.741391,9696.697840,229.828649
524.419798,3849.070898,7402.059420,153.219100
524.420118,6365.771101,6587.832884,766.095498
524.420439,5773.606348,8216.285956,536.266849
524.420760,4589.276840,9992.780217,-1072.533697
524.421080,4441.235652,9548.656652,-2604.724693
524.421401,5773.606348,7402.059420,-1378.971896
524.421722,7105.977043,6439.791695,1149.143247
524.422042,7179.997637,6809.894666,1762.019645
524.422363,4885.359217,9178.553681,-459.657299
524.422684,3775.050304,10658.965565,-1915.238745
524.423005,4589.276840,8882.471304,-919.314598
524.423325,6143.709319,6809.894666,842.705048
524.423646,6439.791695,6439.791695,1378.971896
524.423967,4589.276840,8734.430116,-459.657299
524.424287,2294.638420,9770.718434,-1762.019645
524.424608,2664.741391,8808.450710,-1991.848295
524.424929,4959.379811,6809.894666,153.219100
524.425249,5699.585753,7179.997637,995.924147
524.425570,4737.318029,10214.842000,689.485948
524.425891,3108.864956,11843.295072,-459.657299
524.426211,3256.906145,10584.944971,-1072.533697
524.426532,4737.318029,7624.121203,153.219100
524.426853,5329.482782,6069.688724,1072.533697
524.427173,4441.235652,7105.977043,766.095498
524.427494,2294.638420,9474.636058,-766.095498
524.427815,2072.576638,9622.677246,-919.314598
524.428135,6143.709319,7920.203579,0.000000
524.428456,6883.915261,5551.544565,459.657299
524.428777,5181.441594,6439.791695,1149.143247
524.429098,4145.153275,9696.697840,383.047749
524.429418,4071.132681,10881.027347,-536.266849
524.429739,4367.215058,7402.059420,-306.438199
524.430060,8438.347739,4737.318029,536.266849
524.430380,8216.285956,6217.729913,229.828649
524.430701,5181.441594,8956.491898,-766.095498
524.431022,3701.029710,9548.656652,-1991.848295
524.431342,5181.441594,7698.141797,-1762.019645
524.431663,6809.894666,5255.462188,459.657299
524.431984,7328.038826,6439.791695,2451.505594
524.432304,5625.565159,8734.430116,306.438199
524.432625,3330.926739,10658.965565,-2528.115143
524.432946,3478.967927,8586.388927,-1762.019645
524.433266,5477.523971,4737.318029,229.828649
524.433587,6735.874072,3923.091493,2145.067394
524.433908,4367.215058,7179.997637,1378.971896
524.434228,2590.720797,10881.027347,-1915.238745
524.434549,2664.741391,11177.109724,-2604.724693
524.434870,3997.112087,8882.471304,-842.705048
524.435191,6365.771101,7698.141797,1608.800546
524.435511,5255.462188,7920.203579,1685.410096
524.435832,3404.947333,9770.718434,153.219100
524.436153,2590.720797,9844.739029,-842.705048
524.436473,3478.967927,7328.038826,-1072.533697
524.436794,5847.626942,6217.729913,0.000000
524.437115,5921.647536,8438.347739,842.705048
524.437435,5477.523971,10214.842000,383.047749
524.437756,4811.338623,9696.697840,-76.609550
524.438077,5033.400406,6587.832884,-153.219100
524.438397,5551.544565,4441.235652,383.047749
524.438718,5773.606348,5551.544565,1532.190996
524.439039,5033.400406,8956.491898,76.609550
524.439359,5403.503377,11103.089130,-1149.143247
524.439680,6291.750507,8734.430116,-2068.457845
524.440001,7254.018232,6069.688724,-1072.533697
524.440322,7846.182985,6809.894666,459.657299
524.440642,4737.318029,8808.450710,153.219100
524.440963,3552.988522,9918.759623,-1838.629195
524.441284,4811.338623,7624.121203,-2604.724693
524.441604,6513.812290,6291.750507,-1072.533697
524.441925,7105.977043,7105.977043,1455.581446
524.442246,3701.029710,9548.656652,1072.533697
524.442566,2368.659014,12287.418637,-1302.362347
524.442887,2960.823768,10807.006753,-1532.190996
524.443208,4071.132681,6957.935855,689.485948
524.443528,4737.318029,5699.585753,2911.162892
524.443849,3256.906145,8290.306550,1915.238745
524.444170,814.226536,10658.965565,76.609550
524.444490,888.247130,10140.821405,-1991.848295
524.444811,4885.359217,7105.977043,-919.314598
524.445132,6735.874072,6513.812290,1225.752797
524.445452,5847.626942,8734.430116,2068.457845
524.445773,3627.009116,11103.089130,-459.657299
524.446094,2664.741391,11399.171507,-1991.848295
524.446415,3775.050304,7402.059420,0.000000
524.446735,7402.059420,5181.441594,1991.848295
524.447056,7179.997637,5995.668130,1762.019645
524.447377,3923.091493,8290.306550,-612.876398
524.447697,3478.967927,10436.903782,-2221.676944
524.448018,5255.462188,8438.347739,-2451.505594
524.448339,6661.853478,5625.565159,-689.485948
524.448659,7624.121203,4959.379811,1685.410096
524.448980,6587.832884,7994.224174,459.657299
524.449301,3330.926739,9178.553681,-1225.752797
524.449621,2590.720797,7550.100608,-1762.019645
524.449942,5773.606348,6365.771101,-383.047749
524.450263,6957.935855,6809.894666,995.924147
524.450583,5181.441594,9178.553681,1149.143247
524.450904,5181.441594,10288.862594,-1378.971896
524.451225,4293.194464,8512.368333,-2681.334243
524.451545,5033.400406,5625.565159,-1225.752797
524.451866,5921.647536,5921.647536,1455.581446
524.452187,5329.482782,8364.327145,2374.896044
524.452508,3923.091493,10881.027347,229.828649
524.452828,4663.297435,10362.883188,-536.266849
524.453149,4663.297435,7328.038826,-1149.143247
524.453470,5921.647536,5255.462188,612.876398
524.453790,5181.441594,6217.729913,2221.676944
524.454111,4367.215058,8216.285956,1225.752797
524.454432,4811.338623,8734.430116,0.000000
524.454752,4293.194464,7105.977043,-1072.533697
524.455073,6587.832884,5921.647536,-1072.533697
524.455394,6661.853478,7476.080014,383.047749
524.455714,5329.482782,9696.697840,0.000000
524.456035,5329.482782,9992.780217,-1072.533697
524.456356,5403.503377,7328.038826,-1608.800546
524.456676,6291.750507,5181.441594,229.828649
524.456997,6291.750507,6735.874072,995.924147
524.457318,4737.318029,10214.842000,-459.657299
524.457639,3478.967927,11325.150913,-3217.601092
524.457959,3923.091493,7550.100608,-2834.553343
524.458280,7031.956449,5551.544565,0.000000
524.458601,7254.018232,6291.750507,2604.724693
524.458921,4071.132681,7994.224174,1685.410096
524.459242,3775.050304,9770.718434,-1838.629195
524.459563,4737.318029,9770.718434,-2528.115143
524.459883,6143.709319,7772.162391,-612.876398
524.460204,7698.141797,7031.956449,2374.896044
524.460525,6883.915261,7994.224174,2145.067394
524.460845,3849.070898,9770.718434,-229.828649
524.461166,2146.597232,8142.265362,-1991.848295
524.461487,4441.235652,5847.626942,-1608.800546
524.461807,6217.729913,6513.812290,-153.219100
524.462128,5403.503377,9326.594869,1455.581446
524.462449,4441.235652,11251.130318,536.266849
524.462769,4885.359217,10955.047942,-1225.752797
524.463090,3701.029710,8660.409521,-842.705048
524.463411,4737.318029,6143.709319,536.266849
524.463732,4515.256246,6439.791695,995.924147
524.464052,3404.947333,9252.574275,459.657299
524.464373,2590.720797,10288.862594,-689.485948
524.464694,4515.256246,8734.430116,-2068.457845
524.465014,6291.750507,7550.100608,-1685.410096
524.465335,5403.503377,8438.347739,0.000000
524.465656,2886.803174,10288.862594,383.047749
524.465976,3034.844362,10658.965565,-689.485948
524.466297,3923.091493,8438.347739,76.609550
524.466618,5329.482782,6587.832884,1378.971896
524.466938,6661.853478,7254.018232,2298.286494
524.467259,5329.482782,9696.697840,612.876398
524.467580,3478.967927,10436.903782,-1302.362347
524.467900,4071.132681,7698.141797,-1608.800546
524.468221,6069.688724,4219.173869,-766.095498
524.468542,6735.874072,4367.215058,2221.676944
524.468862,4959.379811,7105.977043,2451.505594
524.469183,4663.297435,10288.862594,-229.828649
524.469504,4441.235652,8364.327145,-2451.505594
524.469825,5921.647536,6069.688724,-1378.971896
524.470145,8216.285956,6365.771101,1838.629195
524.470466,6809.894666,8364.327145,2374.896044
524.470787,3923.091493,8808.450710,-459.657299
524.471107,5329.482782,7624.121203,-2451.505594
524.471428,6291.750507,5773.606348,-1991.848295
524.471749,5847.626942,5181.441594,-153.219100
524.472069,6291.750507,6291.750507,1149.143247
524.472390,4737.318029,9400.615463,0.000000
524.472711,4219.173869,9770.718434,-995.924147
524.473031,4959.379811,7105.977043,-459.657299
524.473352,6439.791695,4885.359217,-766.095498
524.473673,5847.626942,5625.565159,0.000000
524.473993,4441.235652,8882.471304,612.876398
524.474314,4145.153275,10140.821405,-1072.533697
524.474635,5403.503377,8290.306550,-1455.581446
524.474956,5625.565159,6143.709319,0.000000
524.475276,7031.956449,7254.018232,0.000000
524.475597,4441.235652,9178.553681,0.000000
524.475918,3775.050304,10732.986159,-1302.362347
524.476238,4737.318029,9178.553681,-1072.533697
524.476559,5847.626942,6809.894666,-76.609550
524.476880,6217.729913,7179.997637,2068.457845
524.477200,5033.400406,9474.636058,1838.629195
524.477521,2220.617826,9992.780217,-766.095498
524.477842,2590.720797,8364.327145,-2298.286494
524.478162,5107.421000,6735.874072,-612.876398
524.478483,6587.832884,6513.812290,1149.143247
524.478804,6365.771101,9178.553681,1762.019645
524.479124,5033.400406,11695.253884,-766.095498
524.479445,3627.009116,11251.130318,-3447.429741
524.479766,3923.091493,7698.141797,-1991.848295
524.480086,7179.997637,5995.668130,1455.581446
524.480407,8364.327145,7254.018232,2528.115143
524.480728,4737.318029,8660.409521,76.609550
524.481049,3552.988522,9252.574275,-3140.991542
524.481369,4441.235652,7846.182985,-3830.477490
524.481690,5699.585753,7105.977043,-995.924147
524.482011,6735.874072,7105.977043,2528.115143
524.482331,6513.812290,9844.739029,1149.143247
524.482652,4589.276840,10658.965565,-1762.019645
524.482973,3330.926739,8660.409521,-1608.800546
524.483293,4441.235652,6661.853478,-306.438199
524.483614,5255.462188,6513.812290,1302.362347
524.483935,4885.359217,8512.368333,1378.971896
524.484255,3775.050304,10140.821405,-153.219100
524.484576,3775.050304,10288.862594,-2374.896044
524.484897,3478.967927,9104.533087,-1225.752797
524.485217,3404.947333,7624.121203,1149.143247
524.485538,3034.844362,7550.100608,1991.848295
524.485859,3701.029710,9178.553681,1838.629195
524.486179,2664.741391,8660.409521,536.266849
524.486500,2960.823768,7328.038826,-229.828649
524.486821,5477.523971,7179.997637,689.485948
524.487142,5107.421000,8734.430116,842.705048
524.487462,3923.091493,9548.656652,0.000000
524.487783,4515.256246,7624.121203,-919.314598
524.488104,5255.462188,5477.523971,-1149.143247
524.488424,5699.585753,4663.297435,1455.581446
524.488745,5403.503377,6217.729913,1685.410096
524.489066,6587.832884,8660.409521,-536.266849
524.489386,5995.668130,9400.615463,-2221.676944
524.489707,6439.791695,6735.874072,-2221.676944
524.490028,8512.368333,5625.565159,0.000000
524.490348,8068.244768,5625.565159,1838.629195
524.490669,5477.523971,7105.977043,689.485948
524.490990,5847.626942,7476.080014,-1915.238745
524.491310,4959.379811,6883.915261,-3600.648841
524.491631,5773.606348,5625.565159,-1991.848295
524.491952,7328.038826,6587.832884,1608.800546
524.492273,6439.791695,9474.636058,1455.581446
524.492593,3627.009116,10955.047942,-689.485948
524.492914,2886.803174,9326.594869,-1225.752797
524.493235,3552.988522,5995.668130,-1149.143247
524.493555,4885.359217,6291.750507,2604.724693
524.493876,4145.153275,9770.718434,4366.744339
524.494197,1924.535449,11547.212695,536.266849
524.494517,1850.514855,10140.821405,-2374.896044
524.494838,4219.173869,7624.121203,-2374.896044
524.495159,5551.544565,7624.121203,459.657299
524.495479,5181.441594,8142.265362,1915.238745
524.495800,3478.967927,10362.883188,0.000000
524.496121,3404.947333,10214.842000,-1532.190996
524.496441,3923.091493,7402.059420,0.000000
524.496762,5773.606348,5921.647536,2145.067394
524.497083,6809.894666,7772.162391,1685.410096
524.497403,4811.338623,10510.924376,-536.266849
524.497724,3701.029710,10732.986159,-4290.134789
524.498045,5625.565159,7698.141797,-3830.477490
524.498366,8734.430116,6069.688724,-76.609550
524.498686,7920.203579,7105.977043,1915.238745
524.499007,5181.441594,9474.636058,-153.219100
524.499328,3923.091493,10881.027347,-2451.505594
524.499648,4441.235652,8956.491898,-2604.724693
524.499969,6143.709319,6513.812290,459.657299
524.500290,7105.977043,6069.688724,2221.676944
524.500610,5625.565159,8586.388927,229.828649
524.500931,3330.926739,9844.739029,-1149.143247
524.501252,2812.782580,8290.306550,-2451.505594
524.501572,4885.359217,5773.606348,-536.266849
524.501893,5847.626942,5255.462188,1838.629195
524.502214,4737.318029,8882.471304,2681.334243
524.502534,3330.926739,11399.171507,459.657299
524.502855,3256.906145,10881.027347,-1762.019645
524.503176,4441.235652,7624.121203,-1149.143247
524.503496,6365.771101,5551.544565,1302.362347
524.503817,5995.668130,7179.997637,1991.848295
524.504138,4145.153275,9030.512492,306.438199
524.504459,3330.926739,9030.512492,-1991.848295
524.504779,5181.441594,6439.791695,-2145.067394
524.505100,6957.935855,5403.503377,536.266849
524.505421,6735.874072,6883.915261,1991.848295
524.505741,5107.421000,9400.615463,459.657299
524.506062,4737.318029,9770.718434,-1762.019645
524.506383,6143.709319,7920.203579,-1838.629195
524.506703,7105.977043,5403.503377,153.219100
524.507024,6957.935855,6143.709319,1378.971896
524.507345,5773.606348,8660.409521,612.876398
524.507665,2960.823768,8660.409521,-1532.190996
524.507986,4441.235652,7328.038826,-2068.457845
524.508307,7846.182985,5995.668130,153.219100
524.508628,6957.935855,6365.771101,1838.629195
524.508948,4367.215058,8660.409521,842.705048
524.509269,3997.112087,11473.192101,-919.314598
524.509590,3552.988522,10214.842000,-1149.143247
524.509910,4959.379811,6661.853478,919.314598
524.510231,7105.977043,5181.441594,2528.115143
524.510552,4293.194464,7772.162391,995.924147
524.510872,814.226536,10658.965565,-1225.752797
524.511193,1628.453072,10510.924376,-1455.581446
524.511514,4737.318029,8364.327145,-383.047749
524.511834,5995.668130,7254.018232,1991.848295
524.512155,5181.441594,8660.409521,2068.457845
524.512476,2368.659014,10140.821405,-766.095498
524.512797,888.247130,9696.697840,-1455.581446
524.513117,3182.885551,7624.121203,306.438199
524.513438,5921.647536,6439.791695,1149.143247
524.513759,5773.606348,7105.977043,995.924147
524.514079,4811.338623,9992.780217,-1072.533697
524.514400,3701.029710,11917.315666,-3064.381992
524.514721,3627.009116,8438.347739,-2451.505594
524.515041,6291.750507,5625.565159,-153.219100
524.515362,7624.121203,6291.750507,1378.971896
524.515683,4663.297435,8586.388927,689.485948
524.516003,2886.803174,10732.986159,-1072.533697
524.516324,3627.009116,9326.594869,-1608.800546
524.516645,5551.544565,6883.915261,-1378.971896
524.516966,6661.853478,6883.915261,1532.190996
524.517286,6439.791695,8216.285956,766.095498
524.517607,4737.318029,10140.821405,-1072.533697
524.517928,2960.823768,9030.512492,-1608.800546
524.518248,4071.132681,6143.709319,-536.266849
524.518569,6217.729913,6365.771101,1149.143247
524.518890,5551.544565,8882.471304,1762.019645
524.519210,3552.988522,11029.068536,76.609550
524.519531,4367.215058,10362.883188,-2145.067394
524.519852,5181.441594,7179.997637,-842.705048
524.520172,5699.585753,5477.523971,995.924147
524.520493,5773.606348,6587.832884,2068.457845
524.520814,4737.318029,8808.450710,76.609550
524.521135,3627.009116,9178.553681,-1762.019645
524.521455,5033.400406,6217.729913,-1532.190996
524.521776,7402.059420,5033.400406,229.828649
524.522097,7550.100608,6513.812290,1225.752797
524.522417,6217.729913,9548.656652,1072.533697
524.522738,5477.523971,10658.965565,-1915.238745
524.523059,6439.791695,7920.203579,-2374.896044
524.523379,7624.121203,5847.626942,0.000000
524.523700,7550.100608,5477.523971,1302.362347
524.524021,5921.647536,7846.182985,0.000000
524.524342,4589.276840,9844.739029,-1762.019645
524.524662,4293.194464,8290.306550,-2145.067394
524.524983,5699.585753,5699.585753,-459.657299
524.525304,6587.832884,5255.462188,1532.190996
524.525624,5551.544565,7994.224174,2068.457845
524.525945,3627.009116,10510.924376,-995.924147
524.526266,2960.823768,9104.533087,-1838.629195
524.526586,5551.544565,7476.080014,-306.438199
524.526907,5995.668130,6883.915261,2451.505594
524.527228,4663.297435,7846.182985,2757.943793
524.527548,3775.050304,9178.553681,306.438199
524.527869,3330.926739,9104.533087,-2374.896044
524.528190,3923.091493,7328.038826,-2221.676944
524.528511,6365.771101,6513.812290,229.828649
524.528831,6439.791695,7476.080014,1378.971896
524.529152,5107.421000,9030.512492,689.485948
524.529473,4663.297435,9030.512492,-689.485948
524.529793,4071.132681,6513.812290,-1608.800546
524.530114,5255.462188,4811.338623,-76.609550
524.530435,6143.709319,6957.935855,1762.019645
524.530755,5477.523971,10288.862594,842.705048
524.531076,4737.318029,10732.986159,-1762.019645
524.531397,5033.400406,9030.512492,-2911.162892
524.531717,4811.338623,7031.956449,-2374.896044
524.532038,4737.318029,7179.997637,536.266849
524.532359,4145.153275,9474.636058,2604.724693
524.532680,3108.864956,10881.027347,995.924147
524.533000,2294.638420,8734.430116,-1072.533697
524.533321,4589.276840,6809.894666,-995.924147
524.533642,4885.359217,7698.141797,306.438199
524.533962,2442.679609,9770.718434,919.314598
524.534283,2590.720797,10807.006753,-536.266849
524.534604,2812.782580,9474.636058,-2451.505594
524.534924,3552.988522,8142.265362,-153.219100
524.535245,4589.276840,7994.224174,2221.676944
524.535566,3701.029710,9326.594869,1532.190996
524.535886,2590.720797,11769.274478,-459.657299
524.536207,3182.885551,10066.800811,-459.657299
524.536528,5033.400406,6365.771101,-306.438199
524.536849,7698.141797,5033.400406,1455.581446
524.537169,7105.977043,7402.059420,1685.410096
524.537490,4145.153275,8882.471304,-919.314598
524.537811,5403.503377,7624.121203,-2987.772442
524.538131,8290.306550,5699.585753,-1762.019645
524.538452,9622.677246,5107.421000,1072.533697
524.538773,9178.553681,5847.626942,1762.019645
524.539093,6661.853478,7994.224174,-842.705048
524.539414,5699.585753,9474.636058,-2604.724693
524.539735,6439.791695,7179.997637,-1685.410096
524.540055,8438.347739,4737.318029,229.828649
524.540376,7476.080014,4959.379811,0.000000
524.540697,5255.462188,7698.141797,-383.047749
524.541018,3997.112087,9844.739029,-1072.533697
524.541338,4219.173869,7772.162391,-1149.143247
524.541659,5477.523971,4885.359217,0.000000
524.541980,6957.935855,4959.379811,1072.533697
524.542300,5477.523971,8512.368333,1149.143247
524.542621,3182.885551,11547.212695,229.828649
524.542942,2812.782580,10066.800811,-1302.362347
524.543262,5255.462188,6661.853478,-612.876398
524.543583,6365.771101,6143.709319,1608.800546
524.543904,4737.318029,8660.409521,1915.238745
524.544224,2368.659014,10140.821405,-536.266849
524.544545,2294.638420,8882.471304,-2451.505594
524.544866,5107.421000,6365.771101,-919.314598
524.545187,7476.080014,5921.647536,995.924147
524.545507,7402.059420,8512.368333,1685.410096
524.545828,4737.318029,11103.089130,-229.828649
524.546149,3404.947333,9918.759623,-1302.362347
524.546469,5625.565159,6365.771101,76.609550
524.546790,7328.038826,4441.235652,1915.238745
524.547111,7105.977043,5847.626942,1149.143247
524.547431,4737.318029,9696.697840,-1532.190996
524.547752,4515.256246,11103.089130,-3600.648841
524.548073,5847.626942,8586.388927,-2681.334243
524.548394,7624.121203,6143.709319,229.828649
524.548714,7105.977043,6587.832884,2451.505594
524.549035,4367.215058,9992.780217,1762.019645
524.549356,1332.370696,11103.089130,-1378.971896
524.549676,3404.947333,9326.594869,-1149.143247
524.549997,6365.771101,6291.750507,842.705048
524.550318,5625.565159,5995.668130,1378.971896
524.550638,3701.029710,9178.553681,229.828649
524.550959,1184.329507,11547.212695,-1378.971896
524.551280,1036.288319,9696.697840,-1915.238745
524.551600,4737.318029,7624.121203,689.485948
524.551921,5921.647536,7254.018232,2068.457845
524.552242,3701.029710,9474.636058,919.314598
524.552563,2294.638420,11621.233289,-459.657299
524.552883,3108.864956,10362.883188,-766.095498
524.553204,4737.318029,6661.853478,0.000000
524.553525,6143.709319,3775.050304,842.705048
524.553845,6439.791695,5921.647536,0.000000
524.554166,4589.276840,9770.718434,-1072.533697
524.554487,3108.864956,9992.780217,-1762.019645
524.554807,5773.606348,6957.935855,-1915.238745
524.555128,8512.368333,4959.379811,-536.266849
524.555449,7105.977043,6661.853478,1608.800546
524.555769,5995.668130,8882.471304,919.314598
524.556090,5699.585753,9548.656652,-2068.457845
524.556411,5995.668130,8216.285956,-2911.162892
524.556732,6957.935855,6291.750507,-1225.752797
524.557052,7772.162391,5847.626942,306.438199
524.557373,7105.977043,8216.285956,536.266849
524.557694,4885.359217,8956.491898,-383.047749
524.558014,3627.009116,5995.668130,-2145.067394
524.558335,5773.606348,5107.421000,-1378.971896
524.558656,6883.915261,6661.853478,1532.190996
524.558976,5033.400406,9844.739029,1915.238745
524.559297,5625.565159,11473.192101,0.000000
524.559618,4737.318029,9030.512492,-1915.238745
524.559938,4737.318029,6143.709319,-459.657299
524.560259,5107.421000,5773.606348,2604.724693
524.560580,3849.070898,7624.121203,2451.505594
524.560901,3034.844362,9104.533087,-459.657299
524.561221,3849.070898,8956.491898,-1302.362347
524.561542,5107.421000,6883.915261,-1532.190996
524.561863,6587.832884,6661.853478,-306.438199
524.562183,6513.812290,8438.347739,1762.019645
524.562504,5551.544565,10214.842000,0.000000
524.562825,4811.338623,9548.656652,-383.047749
524.563145,4811.338623,6809.894666,-229.828649
524.563466,5995.668130,5329.482782,766.095498
524.563787,5403.503377,6809.894666,1072.533697
524.564107,4145.153275,9474.636058,-766.095498
524.564428,4737.318029,9770.718434,-2604.724693
524.564749,5699.585753,7772.162391,-2757.943793
524.565070,6661.853478,7550.100608,-689.485948
524.565390,5107.421000,8216.285956,1072.533697
524.565711,3404.947333,9770.718434,1225.752797
524.566032,3552.988522,10955.047942,0.000000
524.566352,3108.864956,8438.347739,-306.438199
524.566673,4663.297435,6439.791695,153.219100
524.566994,4737.318029,7476.080014,1072.533697
524.567314,2220.617826,10288.862594,842.705048
524.567635,2220.617826,11103.089130,-919.314598
524.567956,2368.659014,9918.759623,-1378.971896
524.568276,3775.050304,7328.038826,-766.095498
524.568597,4441.235652,6735.874072,1685.410096
524.568918,5403.503377,9474.636058,2451.505594
524.569239,3330.926739,11177.109724,842.705048
524.569559,2368.659014,8586.388927,-1455.581446
524.569880,4959.379811,5773.606348,-1455.581446
524.570201,7698.141797,5847.626942,229.828649
524.570521,5329.482782,7254.018232,1378.971896
524.570842,5995.668130,8512.368333,-459.657299
524.571163,6439.791695,8216.285956,-2604.724693
524.571483,5329.482782,6513.812290,-2451.505594
524.571804,7031.956449,5255.462188,76.609550
524.572125,8216.285956,7105.977043,995.924147
524.572446,6883.915261,9918.759623,-383.047749
524.572766,5033.400406,9992.780217,-1762.019645
524.573087,5847.626942,6365.771101,-2757.943793
524.573408,6513.812290,4811.338623,-1532.190996
524.573728,6069.688724,6661.853478,2374.896044
524.574049,4219.173869,9178.553681,1838.629195
524.574370,2368.659014,9696.697840,-2221.676944
524.574690,1702.473667,7179.997637,-2757.943793
524.575011,5181.441594,6143.709319,229.828649
524.575332,6217.729913,7476.080014,3140.991542
524.575652,5033.400406,10362.883188,1762.019645
524.575973,3701.029710,12213.398043,-1225.752797
524.576294,2738.761985,10140.821405,-2221.676944
524.576615,4219.173869,6143.709319,612.876398
524.576935,6143.709319,5033.400406,3907.087040
524.577256,5477.523971,7328.038826,2604.724693
524.577577,3404.947333,10436.903782,-1149.143247
524.577897,3182.885551,9178.553681,-3753.867940
524.578218,6513.812290,6143.709319,-2757.943793
524.578539,8956.491898,5033.400406,1915.238745
524.578859,7772.162391,7179.997637,2604.724693
524.579180,5773.606348,9622.677246,-383.047749
524.579501,5255.462188,9474.636058,-2987.772442
524.579821,6513.812290,7698.141797,-1685.410096
524.580142,8142.265362,5847.626942,689.485948
524.580463,8068.244768,6661.853478,995.924147
524.580784,5847.626942,9548.656652,-842.705048
524.581104,3034.844362,9844.739029,-3217.601092
524.581425,3923.091493,7550.100608,-3064.381992
524.581746,6957.935855,5995.668130,0.000000
524.582066,5921.647536,6587.832884,2221.676944
524.582387,3478.967927,9474.636058,1838.629195
524.582708,1998.556043,11769.274478,0.000000
524.583028,888.247130,9770.718434,-1072.533697
524.583349,3256.906145,7031.956449,919.314598
524.583670,4959.379811,6735.874072,2298.286494
524.583990,3923.091493,9326.594869,1302.362347
524.584311,1924.535449,11399.171507,-1149.143247
524.584632,1850.514855,10214.842000,-2374.896044
524.584953,3701.029710,7402.059420,-995.924147
524.585273,5477.523971,6661.853478,2681.334243
524.585594,4885.359217,9178.553681,3064.381992
524.585915,3552.988522,11103.089130,153.219100
524.586235,3404.947333,10362.883188,-2834.553343
524.586556,5255.462188,6661.853478,-1762.019645
524.586877,7179.997637,4071.132681,536.266849
524.587197,7402.059420,5773.606348,2451.505594
524.587518,5773.606348,8438.347739,612.876398
524.587839,3849.070898,8808.450710,-2451.505594
524.588159,5329.482782,6439.791695,-2757.943793
524.588480,8808.450710,5403.503377,306.438199
524.588801,8660.409521,6513.812290,2068.457845
524.589122,6143.709319,8586.388927,459.657299
524.589442,4663.297435,10436.903782,-2834.553343
524.589763,4589.276840,8142.265362,-2757.943793
524.590084,6217.729913,5107.421000,-153.219100
524.590404,8290.306550,5403.503377,1915.238745
524.590725,5181.441594,9474.636058,383.047749
524.591046,1184.329507,11547.212695,-2451.505594
524.591366,1998.556043,9178.553681,-1378.971896
524.591687,5255.462188,7105.977043,612.876398
524.592008,5773.606348,7031.956449,2987.772442
524.592328,4145.153275,9326.594869,1991.848295
524.592649,1406.391290,11621.233289,-1455.581446
524.592970,518.144159,10955.047942,-1378.971896
524.593291,3108.864956,7846.182985,1991.848295
524.593611,5847.626942,6069.688724,3140.991542
524.593932,4367.215058,7846.182985,2911.162892
524.594253,1998.556043,10510.924376,-1072.533697
524.594573,1850.514855,10362.883188,-3294.210641
524.594894,4293.194464,6735.874072,-2298.286494
524.595215,8808.450710,5255.462188,919.314598
524.595535,9474.636058,7550.100608,1072.533697
524.595856,5033.400406,9992.780217,0.000000
524.596177,4293.194464,10436.903782,-1762.019645
524.596498,6291.750507,7772.162391,-2068.457845
524.596818,7846.182985,5847.626942,-995.924147
524.597139,7476.080014,6217.729913,459.657299
524.597460,5699.585753,8586.388927,-1225.752797
524.597780,4219.173869,9622.677246,-2834.553343
524.598101,4885.359217,7994.224174,-1762.019645
524.598422,6809.894666,5773.606348,0.000000
524.598742,6587.832884,6217.729913,689.485948
524.599063,4293.194464,9918.759623,842.705048
524.599384,2146.597232,12065.356855,-229.828649
524.599704,2442.679609,9474.636058,-919.314598
524.600025,4885.359217,6661.853478,153.219100
524.600346,5551.544565,6735.874072,2145.067394
524.600667,3034.844362,9400.615463,459.657299
524.600987,444.123565,11769.274478,-1302.362347
524.601308,1258.350101,10066.800811,-2221.676944
524.601629,4515.256246,7698.141797,383.047749
524.601949,6217.729913,7105.977043,3064.381992
524.602270,4589.276840,9252.574275,2068.457845
524.602591,2442.679609,11177.109724,-459.657299
524.602911,2590.720797,9844.739029,-1608.800546
524.603232,5625.565159,5551.544565,76.609550
524.603553,8586.388927,4441.235652,2451.505594
524.603873,7328.038826,6365.771101,1302.362347
524.604194,5107.421000,9326.594869,-1225.752797
524.604515,4515.256246,9252.574275,-2987.772442
524.604836,7105.977043,6143.709319,-1532.190996
524.605156,9252.574275,4367.215058,1225.752797
524.605477,8882.471304,5847.626942,1455.581446
524.605798,5995.668130,9622.677246,-1455.581446
524.606119,3552.988522,9844.739029,-3370.820191
524.606439,5773.606348,6957.935855,-2298.286494
524.606760,8808.450710,4663.297435,1608.800546
524.607081,7624.121203,5329.482782,2221.676944
524.607402,4293.194464,8438.347739,-306.438199
524.607723,2812.782580,10362.883188,-2528.115143
524.608043,3034.844362,8512.368333,-1915.238745
524.608364,5625.565159,5181.441594,766.095498
524.608685,7105.977043,6143.709319,2298.286494
524.609006,4367.215058,9770.718434,842.705048
524.609326,1332.370696,11177.109724,-766.095498
524.609647,2960.823768,9548.656652,-306.438199
524.609968,4663.297435,6513.812290,153.219100
524.610289,4663.297435,5403.503377,1838.629195
524.610609,4441.235652,8364.327145,1072.533697
524.610930,3478.967927,11843.295072,-995.924147
524.611251,2812.782580,10881.027347,-1762.019645
524.611572,5551.544565,7105.977043,-689.485948
524.611893,7105.977043,5181.441594,76.609550
524.612213,5995.668130,7402.059420,995.924147
524.612534,3627.009116,11177.109724,1532.190996
524.612855,3627.009116,11251.130318,-1608.800546
524.613176,5255.462188,7550.100608,-1455.581446
524.613496,6957.935855,5329.482782,229.828649
524.613817,6735.874072,6883.915261,536.266849
524.614138,3923.091493,9696.697840,-383.047749
524.614459,3330.926739,9696.697840,-3217.601092
524.614780,5329.482782,7550.100608,-2911.162892
524.615100,7105.977043,6439.791695,306.438199
524.615421,6069.688724,7179.997637,2068.457845
524.615742,4959.379811,10807.006753,1455.581446
524.616063,3108.864956,12583.501014,-1072.533697
524.616383,2886.803174,9992.780217,-2374.896044
524.616704,4663.297435,6365.771101,-612.876398
524.617025,6513.812290,6587.832884,1225.752797
524.617346,4737.318029,9696.697840,1608.800546
524.617666,1628.453072,10658.965565,-919.314598
524.617987,2516.700203,9252.574275,-2451.505594
524.618308,4663.297435,7402.059420,229.828649
524.618629,5551.544565,7254.018232,3370.820191
524.618950,5773.606348,9178.553681,3064.381992
524.619270,3182.885551,9992.780217,0.000000
524.619591,3701.029710,9030.512492,-1302.362347
524.619912,5551.544565,5699.585753,-383.047749
524.620233,7328.038826,4293.194464,766.095498
524.620553,7328.038826,6365.771101,842.705048
524.620874,5255.462188,9104.533087,-1302.362347
524.621195,4663.297435,9326.594869,-2987.772442
524.621516,6291.750507,6143.709319,-1991.848295
524.621837,8290.306550,4737.318029,612.876398
524.622157,8512.368333,5625.565159,1225.752797
524.622478,6735.874072,9326.594869,-919.314598
524.622799,4737.318029,9474.636058,-2757.943793
524.623120,5033.400406,6957.935855,-2911.162892
524.623440,7031.956449,4367.215058,-229.828649
524.623761,7550.100608,5477.523971,1608.800546
524.624082,5033.400406,9178.553681,383.047749
524.624403,2368.659014,10807.006753,-1685.410096
524.624724,2960.823768,9178.553681,-2374.896044
524.625044,5255.462188,6217.729913,0.000000
524.625365,6143.709319,6513.812290,2528.115143
524.625686,4663.297435,9030.512492,1915.238745
524.626007,2886.803174,10658.965565,-306.438199
524.626327,2442.679609,9104.533087,-612.876398
524.626648,3997.112087,5773.606348,612.876398
524.626969,5773.606348,5033.400406,2451.505594
524.627290,6291.750507,8660.409521,2451.505594
524.627610,4219.173869,11325.150913,-383.047749
524.627931,3108.864956,9474.636058,-3524.039291
524.628252,5995.668130,6735.874072,-2451.505594
524.628573,7994.224174,5847.626942,536.266849
524.628894,6661.853478,7476.080014,2451.505594
524.629214,6513.812290,9178.553681,153.219100
524.629535,4737.318029,9770.718434,-3140.991542
524.629856,4737.318029,7550.100608,-2911.162892
524.630177,6809.894666,5773.606348,306.438199
524.630497,7402.059420,7254.018232,1608.800546
524.630818,5181.441594,9622.677246,-536.266849
524.631139,3997.112087,10584.944971,-2757.943793
524.631460,3627.009116,7179.997637,-3830.477490
524.631781,4071.132681,4737.318029,-1302.362347
524.632101,4811.338623,6587.832884,2528.115143
524.632422,3404.947333,10881.027347,2145.067394
524.632743,2294.638420,12509.480420,-842.705048
524.633064,1998.556043,10881.027347,-2451.505594
524.633384,4959.379811,8290.306550,-995.924147
524.633705,4737.318029,7698.141797,1991.848295
524.634026,2886.803174,9622.677246,1685.410096
524.634347,2146.597232,10658.965565,-919.314598
524.634667,1554.432478,9770.718434,-1991.848295
524.634988,2960.823768,7846.182985,-229.828649
524.635309,4441.235652,7179.997637,2374.896044
524.635630,3775.050304,10214.842000,2068.457845
524.635951,3552.988522,11843.295072,766.095498
524.636271,3478.967927,10140.821405,-1225.752797
524.636592,5477.523971,5773.606348,-536.266849
524.636913,7920.203579,4885.359217,2298.286494
524.637234,6365.771101,7105.977043,2681.334243
524.637554,3108.864956,8290.306550,-842.705048
524.637875,4959.379811,7920.203579,-3370.820191
524.638196,7994.224174,6069.688724,-2834.553343
524.638517,9696.697840,4885.359217,-689.485948
524.638838,9474.636058,5847.626942,842.705048
524.639158,7476.080014,9030.512492,-689.485948
524.639479,5551.544565,9548.656652,-2451.505594
524.639800,6513.812290,6957.935855,-1072.533697
524.640121,8660.409521,4293.194464,153.219100
524.640441,8216.285956,4367.215058,995.924147
524.640762,6291.750507,8290.306550,383.047749
524.641083,3997.112087,9696.697840,-1532.190996
524.641404,3552.988522,6809.894666,-3140.991542
524.641725,5773.606348,4737.318029,-459.657299
524.642045,6661.853478,5403.503377,1378.971896
524.642366,4737.318029,8882.471304,2451.505594
524.642687,2812.782580,11399.171507,459.657299
524.643008,2220.617826,9992.780217,-1685.410096
524.643328,3404.947333,7476.080014,-306.438199
524.643649,5255.462188,7254.018232,2451.505594
524.643970,3108.864956,9030.512492,3064.381992
524.644291,2368.659014,10288.862594,76.609550
524.644611,2516.700203,9030.512492,-2221.676944
524.644932,3997.112087,6069.688724,-2451.505594
524.645253,6809.894666,5625.565159,612.876398
524.645574,7031.956449,8660.409521,2451.505594
524.645895,4071.132681,11103.089130,459.657299
524.646215,3330.926739,9622.677246,-1455.581446
524.646536,5329.482782,6513.812290,-1532.190996
524.646857,7254.018232,5847.626942,919.314598
524.647178,7031.956449,7846.182985,1991.848295
524.647498,5477.523971,9918.759623,-1378.971896
524.647819,5699.585753,9918.759623,-4366.744339
524.648140,5403.503377,7402.059420,-3677.258390
524.648461,6735.874072,4959.379811,-306.438199
524.648782,6735.874072,5921.647536,1455.581446
524.649102,4145.153275,10510.924376,919.314598
524.649423,2220.617826,11843.295072,-1225.752797
524.649744,4737.318029,9548.656652,-1378.971896
524.650065,5847.626942,7031.956449,-229.828649
524.650385,5181.441594,7254.018232,1455.581446
524.650706,2590.720797,9178.553681,1378.971896
524.651027,1406.391290,10807.006753,-612.876398
524.651348,1628.453072,9326.594869,-919.314598
524.651669,4219.173869,7624.121203,383.047749
524.651989,4515.256246,7772.162391,1072.533697
524.652310,2812.782580,9992.780217,995.924147
524.652631,1850.514855,12287.418637,919.314598
524.652952,2220.617826,11547.212695,-383.047749
524.653272,3775.050304,7105.977043,-229.828649
524.653593,6439.791695,5847.626942,919.314598
524.653914,5403.503377,8660.409521,1225.752797
524.654235,1702.473667,11325.150913,-612.876398
524.654555,2368.659014,10214.842000,-2757.943793
524.654876,5329.482782,7031.956449,-2604.724693
524.655197,7624.121203,5551.544565,1149.143247
524.655518,7031.956449,6735.874072,2757.943793
524.655839,6439.791695,9400.615463,0.000000
524.656159,4959.379811,10436.903782,-3370.820191
524.656480,5033.400406,7254.018232,-3217.601092
524.656801,7698.141797,3552.988522,-1149.143247
524.657122,10436.903782,4367.215058,1762.019645
524.657442,7846.182985,8142.265362,2298.286494
524.657763,3849.070898,9252.574275,-1225.752797
524.658084,4441.235652,7328.038826,-4290.134789
524.658405,7328.038826,5773.606348,-2068.457845
524.658726,9030.512492,6143.709319,2604.724693
524.659046,7994.224174,7550.100608,2681.334243
524.659367,4959.379811,8512.368333,-766.095498
524.659688,4145.153275,8734.430116,-2298.286494
524.660009,4145.153275,6513.812290,229.828649
524.660329,5477.523971,4885.359217,2681.334243
524.660650,6883.915261,6809.894666,2528.115143
524.660971,5033.400406,9992.780217,536.266849
524.661292,2590.720797,9326.594869,-1762.019645
524.661612,3923.091493,6513.812290,-1072.533697
524.661933,6069.688724,5403.503377,1532.190996
524.662254,6143.709319,7772.162391,2451.505594
524.662575,4367.215058,11251.130318,689.485948
524.662896,2812.782580,10140.821405,-2451.505594
524.663216,2738.761985,8290.306550,-1991.848295
524.663537,5551.544565,5921.647536,1991.848295
524.663858,6513.812290,6735.874072,2298.286494
524.664179,5181.441594,9030.512492,229.828649
524.664499,3849.070898,9992.780217,-2681.334243
524.664820,3849.070898,9104.533087,-3830.477490
524.665141,5255.462188,6069.688724,-1225.752797
524.665462,6365.771101,6143.709319,2298.286494
524.665783,6513.812290,9992.780217,2528.115143
524.666103,4219.173869,11769.274478,76.609550
524.666424,2960.823768,10066.800811,-2604.724693
524.666745,5255.462188,7105.977043,-1608.800546
524.667066,5255.462188,6291.750507,1149.143247
524.667386,4959.379811,8882.471304,3140.991542
524.667707,3034.844362,10288.862594,459.657299
524.668028,2146.597232,9622.677246,-2604.724693
524.668349,3701.029710,7402.059420,-2221.676944
524.668670,4441.235652,7105.977043,1302.362347
524.668990,4441.235652,9252.574275,2451.505594
524.669311,3034.844362,12065.356855,689.485948
524.669632,2294.638420,10881.027347,-2145.067394
524.669953,5107.421000,7624.121203,-1685.410096
524.670273,7031.956449,5625.565159,1378.971896
524.670594,4959.379811,6513.812290,2451.505594
524.670915,3478.967927,9252.574275,536.266849
524.671236,2886.803174,10362.883188,-2451.505594
524.671556,4219.173869,8364.327145,-3217.601092
524.671877,7920.203579,5551.544565,0.000000
524.672198,9474.636058,6587.832884,2145.067394
524.672519,5995.668130,9474.636058,306.438199
524.672840,2738.761985,9326.594869,-2451.505594
524.673160,4737.318029,7624.121203,-2834.553343
524.673481,7031.956449,5403.503377,-612.876398
524.673802,7328.038826,5403.503377,2221.676944
524.674123,6587.832884,8586.388927,1378.971896
524.674443,3552.988522,9918.759623,-1608.800546
524.674764,2960.823768,8586.388927,-2604.724693
524.675085,6735.874072,6217.729913,-383.047749
524.675406,8216.285956,5625.565159,1685.410096
524.675727,5625.565159,7698.141797,1685.410096
524.676047,3404.947333,9474.636058,-689.485948
524.676368,2960.823768,8734.430116,-1991.848295
524.676689,5181.441594,7031.956449,-766.095498
524.677010,7698.141797,6143.709319,2451.505594
524.677330,6735.874072,7772.162391,2068.457845
524.677651,4737.318029,9770.718434,153.219100
524.677972,4145.153275,8956.491898,-766.095498
524.678293,5921.647536,5625.565159,-153.219100
524.678614,8660.409521,4515.256246,1685.410096
524.678934,8586.388927,5847.626942,2374.896044
524.679255,7179.997637,7698.141797,0.000000
524.679576,7402.059420,7698.141797,-995.924147
524.679897,9400.615463,4959.379811,-842.705048
524.680217,11177.109724,1702.473667,-153.219100
524.680538,11547.212695,2220.617826,536.266849
524.680859,10584.944971,6809.894666,-383.047749
524.681180,9400.615463,8808.450710,-2298.286494
524.681500,9844.739029,6217.729913,-2911.162892
524.681821,12287.418637,3404.947333,-1762.019645
524.682142,11251.130318,3108.864956,612.876398
524.682463,8290.306550,5477.523971,689.485948
524.682784,6735.874072,7476.080014,-1225.752797
524.683104,6439.791695,5995.668130,-2528.115143
524.683425,8438.347739,3849.070898,-919.314598
524.683746,9326.594869,3923.091493,2298.286494
524.684067,7328.038826,7105.977043,1225.752797
524.684387,4811.338623,9622.677246,-766.095498
524.684708,4293.194464,9178.553681,-1378.971896
524.685029,5847.626942,6291.750507,0.000000
524.685350,7772.162391,5107.421000,3294.210641
524.685671,7254.018232,6735.874072,3600.648841
524.685991,5773.606348,8512.368333,-229.828649
524.686312,5847.626942,8660.409521,-2604.724693
524.686633,7476.080014,6365.771101,-1532.190996
524.686954,10288.862594,3034.844362,1762.019645
524.687274,11991.336260,2738.761985,3140.991542
524.687595,11473.192101,5551.544565,1149.143247
524.687916,9548.656652,7105.977043,-1915.238745
524.688237,10362.883188,5773.606348,-3294.210641
524.688557,13915.871710,3478.967927,-1302.362347
524.688878,13915.871710,2368.659014,1302.362347
524.689199,14359.995275,4293.194464,1149.143247
524.689520,12287.418637,6661.853478,-1762.019645
524.689841,10881.027347,7105.977043,-4290.134789
524.690161,10436.903782,5477.523971,-2451.505594
524.690482,11547.212695,3775.050304,536.266849
524.690803,10288.862594,3256.906145,1838.629195
524.691124,8882.471304,4811.338623,1072.533697
524.691444,6883.915261,6661.853478,-1532.190996
524.691765,6661.853478,6365.771101,-3140.991542
524.692086,6439.791695,5033.400406,-1225.752797
524.692407,7105.977043,5995.668130,1838.629195
524.692728,7772.162391,8216.285956,3447.429741
524.693048,5625.565159,8216.285956,1991.848295
524.693369,4811.338623,6661.853478,-842.705048
524.693690,7031.956449,6513.812290,153.219100
524.694011,6735.874072,6513.812290,1685.410096
524.694331,6809.894666,6365.771101,2681.334243
524.694652,8290.306550,6587.832884,1455.581446
524.694973,8956.491898,5995.668130,-766.095498
524.695294,9178.553681,4737.318029,-612.876398
524.695615,9770.718434,3256.906145,76.609550
524.695935,10881.027347,2886.803174,76.609550
524.696256,12435.459826,4589.276840,76.609550
524.696577,12953.603985,5699.585753,-306.438199
524.696898,13693.809927,5181.441594,-383.047749
524.697218,12879.583391,3627.009116,-612.876398
524.697539,11547.212695,2368.659014,-229.828649
524.697860,11251.130318,2368.659014,-1608.800546
524.698181,10584.944971,2368.659014,-2834.553343
524.698501,11843.295072,4737.318029,-3064.381992
524.698822,12065.356855,7105.977043,-1838.629195
524.699143,10288.862594,8290.306550,-306.438199
524.699464,8364.327145,7772.162391,76.609550
524.699785,7402.059420,6291.750507,919.314598
524.700105,6439.791695,4737.318029,995.924147
524.700426,5329.482782,3701.029710,612.876398
524.700747,5255.462188,3923.091493,306.438199
524.701068,6661.853478,5995.668130,1302.362347
524.701388,6957.935855,8142.265362,1685.410096
524.701709,5995.668130,8734.430116,612.876398
524.702030,6513.812290,8216.285956,-459.657299
524.702351,6809.894666,6439.791695,383.047749
524.702672,7105.977043,4441.235652,2374.896044
524.702992,7994.224174,3478.967927,2987.772442
524.703313,9178.553681,3849.070898,306.438199
524.703634,9474.636058,5921.647536,-1915.238745
524.703955,11251.130318,8068.244768,-2221.676944
524.704275,12065.356855,8142.265362,-1608.800546
524.704596,12731.542202,6957.935855,-689.485948
524.704917,12879.583391,4811.338623,-536.266849
524.705238,11695.253884,4367.215058,-689.485948
524.705558,10362.883188,4293.194464,-689.485948
524.705879,9770.718434,4663.297435,-459.657299
524.706200,10362.883188,4811.338623,-919.314598
524.706521,10362.883188,4959.379811,-536.266849
524.706842,9696.697840,6291.750507,-689.485948
524.707162,9918.759623,7550.100608,-1378.971896
524.707483,8808.450710,6957.935855,-536.266849
524.707804,8364.327145,4663.297435,689.485948
524.708124,8290.306550,3404.947333,1608.800546
524.708445,7550.100608,3997.112087,2145.067394
524.708766,7179.997637,5773.606348,1149.143247
524.709087,7254.018232,7328.038826,-766.095498
524.709407,8142.265362,7105.977043,-1762.019645
524.709728,9474.636058,5625.565159,-2068.457845
524.710049,10288.862594,4071.132681,383.047749
524.710369,9400.615463,3775.050304,306.438199
524.710690,8364.327145,4737.318029,919.314598
524.711011,8364.327145,5773.606348,766.095498
524.711331,9326.594869,6069.688724,919.314598
524.711652,10362.883188,4663.297435,536.266849
524.711973,10881.027347,4515.256246,0.000000
524.712293,10510.924376,5181.441594,-1072.533697
524.712614,9326.594869,6069.688724,-1225.752797
524.712935,9770.718434,6883.915261,-1302.362347
524.713255,10584.944971,5921.647536,-689.485948
524.713576,10362.883188,5255.462188,153.219100
524.713897,9474.636058,4737.318029,919.314598
524.714217,8956.491898,4071.132681,76.609550
524.714538,9326.594869,3330.926739,0.000000
524.714859,9844.739029,1628.453072,-459.657299
524.715179,10658.965565,2072.576638,-766.095498
524.715500,11325.150913,3923.091493,-919.314598
524.715821,11103.089130,5847.626942,-1378.971896
524.716141,10955.047942,7550.100608,-1302.362347
524.716462,11843.295072,7624.121203,-1225.752797
524.716783,11843.295072,7402.059420,-766.095498
524.717103,10881.027347,6735.874072,-612.876398
524.717424,9622.677246,6365.771101,383.047749
524.717745,8142.265362,6291.750507,1991.848295
524.718065,7179.997637,4811.338623,2374.896044
524.718386,7550.100608,4811.338623,2604.724693
524.718707,7328.038826,4663.297435,1991.848295
524.719027,7105.977043,4959.379811,1838.629195
524.719348,6957.935855,4441.235652,689.485948
524.719669,7846.182985,3701.029710,0.000000
524.719989,8512.368333,4219.173869,0.000000
524.720310,9474.636058,6069.688724,-229.828649
524.720631,10066.800811,8068.244768,-919.314598
524.720951,10732.986159,8808.450710,-1532.190996
524.721272,11029.068536,8290.306550,-1302.362347
524.721593,10955.047942,6957.935855,-383.047749
524.721913,10288.862594,5773.606348,-153.219100
524.722234,9326.594869,4737.318029,76.609550
524.722555,8956.491898,3701.029710,-306.438199
524.722875,9252.574275,2738.761985,-229.828649
524.723196,9770.718434,2368.659014,689.485948
524.723517,9844.739029,3330.926739,383.047749
524.723837,9770.718434,5477.523971,-153.219100
524.724158,10362.883188,7105.977043,0.000000
524.724479,9696.697840,7772.162391,153.219100
524.724799,8882.471304,7698.141797,459.657299
524.725120,7772.162391,7550.100608,919.314598
524.725441,6587.832884,7698.141797,306.438199
524.725762,5181.441594,7920.203579,-383.047749
524.726082,5107.421000,7254.018232,-919.314598
524.726403,5551.544565,6365.771101,-612.876398
524.726724,5107.421000,6217.729913,0.000000
524.727044,4589.276840,7328.038826,1455.581446
524.727365,4663.297435,8512.368333,2528.115143
524.727686,5255.462188,9178.553681,3217.601092
524.728006,6439.791695,9622.677246,3753.867940
524.728327,7254.018232,8956.491898,3907.087040
524.728648,6809.894666,8216.285956,2987.772442
524.728968,5995.668130,7402.059420,2987.772442
524.729289,5995.668130,7698.141797,3140.991542
524.729610,6735.874072,8438.347739,2681.334243
524.729930,7624.121203,9474.636058,2834.553343
524.730251,8364.327145,9696.697840,3294.210641
524.730572,7624.121203,9104.533087,3830.477490
524.730892,7328.038826,8290.306550,4826.401637
524.731213,6883.915261,7624.121203,5286.058936
524.731534,7105.977043,7402.059420,4519.963438
524.731854,7254.018232,7624.121203,4290.134789
524.732175,6735.874072,7698.141797,4826.401637
524.732496,7328.038826,8512.368333,5439.278036
524.732816,7105.977043,8586.388927,6894.859482
524.733137,6513.812290,8512.368333,7354.516781
524.733458,6217.729913,8142.265362,7584.345430
524.733778,5921.647536,8068.244768,7124.688131
524.734099,5403.503377,6809.894666,6665.030833
524.734420,5107.421000,5625.565159,6894.859482
524.734740,5181.441594,5921.647536,7048.078582
524.735061,5107.421000,7105.977043,7124.688131
524.735382,5181.441594,8364.327145,6435.202183
524.735702,4885.359217,8142.265362,6205.373534
524.736023,4811.338623,7772.162391,6435.202183
524.736344,4737.318029,7031.956449,7660.954980
524.736664,4219.173869,7105.977043,8427.050478
524.736985,3775.050304,5995.668130,7737.564530
524.737306,3552.988522,5625.565159,7431.126331
524.737626,2812.782580,5625.565159,6741.640382
524.737947,2368.659014,5107.421000,6358.592633
524.738268,1998.556043,5033.400406,6052.154434
524.738588,2812.782580,5329.482782,5822.325785
524.738909,3627.009116,5921.647536,6205.373534
524.739230,3627.009116,6809.894666,5975.544884
524.739550,3849.070898,7105.977043,5898.935335
524.739871,4589.276840,7772.162391,6052.154434
524.740192,4737.318029,8438.347739,5975.544884
524.740512,4441.235652,7846.182985,5132.839837
524.740833,4663.297435,7179.997637,4749.792088
524.741154,4367.215058,6439.791695,4213.525239
524.741474,3849.070898,5403.503377,4596.572988
524.741795,3627.009116,4811.338623,4596.572988
524.742116,3849.070898,4737.318029,3524.039291
524.742436,3627.009116,5625.565159,2681.334243
524.742757,5107.421000,7031.956449,2681.334243
524.743078,5477.523971,8216.285956,3217.601092
524.743399,5773.606348,9252.574275,3294.210641
524.743719,6587.832884,9844.739029,3140.991542
524.744040,6809.894666,9918.759623,3524.039291
524.744361,6809.894666,10214.842000,4136.915689
524.744681,6217.729913,10881.027347,4136.915689
524.745002,5921.647536,10807.006753,4903.011187
524.745323,5551.544565,10807.006753,5286.058936
524.745643,4663.297435,9622.677246,5286.058936
524.745964,3701.029710,6883.915261,4979.620737
524.746285,2960.823768,4515.256246,4136.915689
524.746605,2886.803174,3478.967927,2757.943793
524.746926,3701.029710,5107.421000,1532.190996
524.747247,5329.482782,8808.450710,153.219100
524.747567,7328.038826,11991.336260,-612.876398
524.747888,9030.512492,15544.324782,-842.705048
524.748209,9918.759623,16950.716072,1225.752797
524.748529,9696.697840,15914.427753,3677.258390
524.748850,8438.347739,12805.562797,5209.449386
524.749171,7402.059420,10955.047942,6588.421283
524.749491,5107.421000,9178.553681,6281.983084
524.749812,3627.009116,7846.182985,5286.058936
524.750133,3256.906145,7179.997637,4903.011187
524.750453,3034.844362,6735.874072,4596.572988
524.750774,2960.823768,4737.318029,3677.258390
524.751095,4441.235652,4367.215058,4136.915689
524.751415,5255.462188,7105.977043,4596.572988
524.751736,5107.421000,10584.944971,4903.011187
524.752057,5773.606348,12435.459826,3677.258390
524.752377,6587.832884,13027.624579,2528.115143
524.752698,7328.038826,13027.624579,3294.210641
524.753019,7698.141797,12509.480420,5056.230287
524.753339,6439.791695,10584.944971,5286.058936
524.753660,2368.659014,7476.080014,4290.134789
524.753981,1628.453072,5625.565159,4213.525239
524.754301,2738.761985,4811.338623,5209.449386
524.754622,3182.885551,4737.318029,5132.839837
524.754943,3182.885551,4219.173869,5132.839837
524.755263,4959.379811,5107.421000,6894.859482
524.755584,5181.441594,6513.812290,8120.612279
524.755905,4219.173869,7179.997637,7890.783629
524.756225,5181.441594,8290.306550,6052.154434
524.756546,6365.771101,9474.636058,5056.230287
524.756867,5181.441594,9474.636058,4903.011187
524.757187,5625.565159,8068.244768,5822.325785
524.757508,7254.018232,7476.080014,6971.469032
524.757829,5033.400406,8438.347739,8427.050478
524.758149,2368.659014,9104.533087,7890.783629
524.758470,1702.473667,7402.059420,6052.154434
524.758791,2072.576638,5403.503377,6205.373534
524.759111,1258.350101,2664.741391,8350.440928
524.759432,2812.782580,1850.514855,9269.755526
524.759753,5107.421000,4515.256246,7890.783629
524.760074,3775.050304,8808.450710,6052.154434
524.760394,2368.659014,11177.109724,3447.429741
524.760715,4589.276840,10362.883188,3064.381992
524.761036,5847.626942,8512.368333,4826.401637
524.761356,3923.091493,5921.647536,8197.221829
524.761677,3701.029710,5107.421000,9882.631924
524.761998,5477.523971,7994.224174,8886.707777
524.762318,3108.864956,10881.027347,6281.983084
524.762639,3256.906145,11917.315666,3983.696590
524.762960,5255.462188,10510.924376,3600.648841
524.763280,5033.400406,7920.203579,4749.792088
524.763601,3182.885551,4367.215058,6511.811733
524.763922,4293.194464,2368.659014,6818.249932
524.764242,4293.194464,3997.112087,6588.421283
524.764563,3108.864956,7031.956449,5669.106685
524.764884,4515.256246,9474.636058,4826.401637
524.765204,5551.544565,11473.192101,3600.648841
524.765525,3923.091493,12213.398043,4596.572988
524.765846,5181.441594,12435.459826,7124.688131
524.766166,6217.729913,10584.944971,7048.078582
524.766487,4737.318029,8808.450710,4826.401637
524.766808,3552.988522,6513.812290,2528.115143
524.767128,2960.823768,5181.441594,1302.362347
524.767449,4737.318029,6291.750507,3600.648841
524.767770,4959.379811,8142.265362,6052.154434
524.768090,5921.647536,9696.697840,5362.668486
524.768411,7105.977043,10436.903782,3140.991542
524.768732,6883.915261,11103.089130,2221.676944
524.769052,5699.585753,9696.697840,1762.019645
524.769373,5921.647536,7698.141797,2987.772442
524.769694,6809.894666,7254.018232,3830.477490
524.770014,6735.874072,8290.306550,4060.306139
524.770335,5477.523971,8512.368333,2834.553343
524.770656,5699.585753,9030.512492,1225.752797
524.770976,5699.585753,9622.677246,1072.533697
524.771297,5033.400406,9474.636058,2681.334243
524.771618,4515.256246,7254.018232,3600.648841
524.771938,4959.379811,5921.647536,3294.210641
524.772259,3923.091493,6587.832884,2834.553343
524.772580,2664.741391,7328.038826,2374.896044
524.772900,4219.173869,8438.347739,612.876398
524.773221,5255.462188,10436.903782,383.047749
524.773542,4145.153275,10510.924376,1532.190996
524.773862,4663.297435,9622.677246,2451.505594
524.774183,5551.544565,9400.615463,2757.943793
524.774504,2886.803174,9030.512492,1991.848295
524.774824,1480.411884,8882.471304,842.705048
524.775145,3478.967927,7994.224174,229.828649
524.775466,3849.070898,6661.853478,1149.143247
524.775786,4959.379811,6957.935855,3524.039291
524.776107,6365.771101,8068.244768,3140.991542
524.776428,4737.318029,7994.224174,459.657299
524.776749,4071.132681,7476.080014,76.609550
524.777069,5403.503377,6513.812290,1149.143247
524.777390,7105.977043,6143.709319,2298.286494
524.777711,8290.306550,7772.162391,2528.115143
524.778031,7402.059420,9548.656652,1072.533697
524.778352,5477.523971,10658.965565,-689.485948
524.778673,5625.565159,9548.656652,0.000000
524.778993,5699.585753,7254.018232,1685.410096
524.779314,5477.523971,5033.400406,2451.505594
524.779635,4885.359217,5847.626942,1838.629195
524.779955,3182.885551,8586.388927,-536.266849
524.780276,888.247130,8882.471304,-2374.896044
524.780597,1776.494261,7920.203579,-153.219100
524.780917,5625.565159,8142.265362,2145.067394
524.781238,6069.688724,9770.718434,3524.039291
524.781559,3849.070898,12139.377449,1685.410096
524.781879,2294.638420,11695.253884,-919.314598
524.782200,2442.679609,10214.842000,-383.047749
524.782521,4145.153275,7772.162391,3140.991542
524.782841,5995.668130,6735.874072,4060.306139
524.783162,5625.565159,6957.935855,1455.581446
524.783483,3182.885551,8068.244768,76.609550
524.783803,1776.494261,6883.915261,-459.657299
524.784124,3034.844362,3256.906145,383.047749
524.784445,6809.894666,2368.659014,1455.581446
524.784765,9252.574275,6513.812290,536.266849
524.785086,8364.327145,11695.253884,-1838.629195
524.785407,6809.894666,13545.768739,-3370.820191
524.785727,7328.038826,11769.274478,-2298.286494
524.786048,9178.553681,8512.368333,1455.581446
524.786369,8438.347739,5847.626942,2757.943793
524.786689,5477.523971,5847.626942,229.828649
524.787010,3997.112087,7846.182985,-1302.362347
524.787331,2960.823768,8808.450710,-383.047749
524.787651,3330.926739,7105.977043,995.924147
524.787972,4959.379811,5477.523971,1608.800546
524.788293,4367.215058,7105.977043,689.485948
524.788613,2664.741391,9548.656652,-229.828649
524.788934,1924.535449,10140.821405,-689.485948
524.789255,2664.741391,8808.450710,0.000000
524.789575,4515.256246,8068.244768,1685.410096
524.789896,5921.647536,10066.800811,2298.286494
524.790217,4441.235652,11917.315666,76.609550
524.790537,1998.556043,11769.274478,-612.876398
524.790858,3552.988522,10288.862594,842.705048
524.791179,4959.379811,7920.203579,2145.067394
524.791499,4145.153275,6217.729913,2298.286494
524.791820,3997.112087,6365.771101,0.000000
524.792141,3478.967927,7105.977043,-3064.381992
524.792461,2590.720797,4367.215058,-3447.429741
524.792782,6291.750507,2590.720797,-383.047749
524.793103,9770.718434,6069.688724,1532.190996
524.793423,8512.368333,10510.924376,383.047749
524.793744,6217.729913,12287.418637,-2528.115143
524.794065,7105.977043,10955.047942,-4519.963438
524.794386,7105.977043,7328.038826,-1302.362347
524.794706,8290.306550,4145.153275,2757.943793
524.795027,8586.388927,4959.379811,1532.190996
524.795348,4219.173869,8882.471304,-2911.162892
524.795668,1850.514855,9992.780217,-4366.744339
524.795989,4145.153275,7328.038826,-3370.820191
524.796310,6809.894666,4293.194464,-766.095498
524.796630,5551.544565,5181.441594,995.924147
524.796951,4515.256246,8660.409521,306.438199
524.797272,2886.803174,9548.656652,-1991.848295
524.797592,2812.782580,7846.182985,-1378.971896
524.797913,6069.688724,6809.894666,306.438199
524.798234,7402.059420,7846.182985,-306.438199
524.798554,5477.523971,10658.965565,-1608.800546
524.798875,2664.741391,11547.212695,-2221.676944
524.799196,4589.276840,10362.883188,-2451.505594
524.799516,5921.647536,6957.935855,-919.314598
524.799837,4515.256246,4885.359217,-383.047749
524.800158,3478.967927,5477.523971,-2528.115143
524.800478,3330.926739,6957.935855,-3140.991542
524.800799,4515.256246,7698.141797,-3370.820191
524.801120,7476.080014,6883.915261,-2374.896044
524.801440,9178.553681,7550.100608,-536.266849
524.801761,8512.368333,11177.109724,919.314598
524.802082,6439.791695,13101.645173,-1225.752797
524.802402,5329.482782,10436.903782,-4443.353888
524.802723,6661.853478,6809.894666,-3983.696590
524.803044,7328.038826,5403.503377,-153.219100
524.803364,7031.956449,7476.080014,2374.896044
524.803685,5255.462188,11325.150913,0.000000
524.804006,3108.864956,11695.253884,-4290.134789
524.804326,2812.782580,8068.244768,-4213.525239
524.804647,5477.523971,5329.482782,612.876398
524.804968,6957.935855,6365.771101,3294.210641
524.805288,4367.215058,10436.903782,1838.629195
524.805609,2960.823768,11029.068536,-2145.067394
524.805930,4367.215058,8808.450710,-3600.648841
524.806250,7031.956449,8364.327145,-612.876398
524.806571,7179.997637,9474.636058,3064.381992
524.806892,5551.544565,11029.068536,2834.553343
524.807212,2960.823768,10584.944971,-383.047749
524.807533,4145.153275,9400.615463,-536.266849
524.807854,5255.462188,6735.874072,1532.190996
524.808174,5477.523971,4589.276840,2068.457845
524.808495,4293.194464,5403.503377,536.266849
524.808816,4071.132681,8216.285956,-1378.971896
524.809136,4071.132681,8290.306550,-1608.800546
524.809457,5033.400406,5477.523971,-383.047749
524.809777,8142.265362,5995.668130,536.266849
524.810098,7105.977043,7994.224174,229.828649
524.810419,3034.844362,9104.533087,-1302.362347
524.810739,4737.318029,9104.533087,-3447.429741
524.811060,7105.977043,8142.265362,-919.314598
524.811381,7328.038826,6661.853478,2068.457845
524.811701,6587.832884,7105.977043,1991.848295
524.812022,3997.112087,8882.471304,-229.828649
524.812342,1776.494261,7476.080014,-383.047749
524.812663,4293.194464,3182.885551,536.266849
524.812984,6587.832884,814.226536,612.876398
524.813304,4959.379811,3775.050304,842.705048
524.813625,3627.009116,8512.368333,1302.362347
524.813946,3478.967927,9622.677246,-766.095498
524.814266,5181.441594,7772.162391,-1302.362347
524.814587,7105.977043,6587.832884,0.000000
524.814908,7254.018232,7254.018232,-383.047749
524.815228,4515.256246,8364.327145,0.000000
524.815549,3330.926739,9622.677246,-383.047749
524.815869,4589.276840,8882.471304,-2604.724693
524.816190,5107.421000,5847.626942,-2604.724693
524.816511,5403.503377,5181.441594,-1302.362347
524.816831,5403.503377,7698.141797,383.047749
524.817152,3478.967927,9030.512492,-459.657299
524.817473,2590.720797,6883.915261,-3064.381992
524.817793,5181.441594,4441.235652,-3830.477490
524.818114,7624.121203,6143.709319,-919.314598
524.818434,7105.977043,10214.842000,1685.410096
524.818755,5329.482782,12213.398043,-995.924147
524.819076,5033.400406,10881.027347,-4903.011187
524.819396,6069.688724,9104.533087,-3677.258390
524.819717,6587.832884,6809.894666,76.609550
524.820038,6069.688724,7105.977043,306.438199
524.820358,4441.235652,9252.574275,-2374.896044
524.820679,3404.947333,9844.739029,-3830.477490
524.821000,3997.112087,7772.162391,-3447.429741
524.821320,5995.668130,7550.100608,-536.266849
524.821641,6365.771101,9400.615463,1225.752797
524.821961,4811.338623,11621.233289,0.000000
524.822282,3997.112087,11769.274478,-2604.724693
524.822603,3997.112087,9178.553681,-3064.381992
524.822923,5255.462188,6735.874072,-689.485948
524.823244,6439.791695,7698.141797,153.219100
524.823565,5181.441594,10658.965565,-842.705048
524.823885,2960.823768,11473.192101,-1991.848295
524.824206,4367.215058,10214.842000,-2298.286494
524.824526,7105.977043,8216.285956,-1608.800546
524.824847,6587.832884,7179.997637,-306.438199
524.825168,5921.647536,8808.450710,76.609550
524.825488,4737.318029,10214.842000,-842.705048
524.825809,5033.400406,8882.471304,-1838.629195
524.826130,7179.997637,7624.121203,-1608.800546
524.826450,8290.306550,8068.244768,-459.657299
524.826771,5625.565159,9400.615463,229.828649
524.827092,4737.318029,10436.903782,919.314598
524.827412,5107.421000,8956.491898,0.000000
524.827733,5033.400406,5033.400406,-995.924147
524.828053,5477.523971,3552.988522,0.000000
524.828374,4885.359217,6217.729913,919.314598
524.828695,3552.988522,9326.594869,842.705048
524.829015,3701.029710,9474.636058,0.000000
524.829336,6439.791695,7402.059420,-919.314598
524.829657,6217.729913,5551.544565,0.000000
524.829977,5255.462188,6735.874072,2834.553343
524.830298,4737.318029,9252.574275,2604.724693
524.830618,4367.215058,9696.697840,153.219100
524.830939,4145.153275,6957.935855,-919.314598
524.831260,5329.482782,5181.441594,0.000000
524.831580,6365.771101,6957.935855,2757.943793
524.831901,4293.194464,10214.842000,4519.963438
524.832222,1776.494261,8364.327145,1225.752797
524.832542,2146.597232,3997.112087,-2221.676944
524.832863,5403.503377,3849.070898,-612.876398
524.833184,5033.400406,4959.379811,2604.724693
524.833504,4441.235652,7031.956449,1915.238745
524.833825,4737.318029,9104.533087,-842.705048
524.834145,3923.091493,9178.553681,-1915.238745
524.834466,5107.421000,6883.915261,0.000000
524.834787,7328.038826,6069.688724,1991.848295
524.835107,6217.729913,8808.450710,2528.115143
524.835428,3849.070898,10955.047942,1072.533697
524.835749,3108.864956,8660.409521,-536.266849
524.836069,3849.070898,5255.462188,-1685.410096
524.836390,5255.462188,4811.338623,2298.286494
524.836710,6217.729913,6957.935855,4290.134789
524.837031,3404.947333,8364.327145,919.314598
524.837352,1702.473667,8216.285956,-2528.115143
524.837672,4367.215058,7624.121203,-1072.533697
524.837993,7179.997637,7328.038826,1608.800546
524.838314,6069.688724,8364.327145,2834.553343
524.838634,4515.256246,10807.006753,995.924147
524.838955,4737.318029,11769.274478,-1838.629195
524.839276,4811.338623,8808.450710,-1838.629195
524.839596,5107.421000,6217.729913,-229.828649
524.839917,6883.915261,7328.038826,1455.581446
524.840237,6069.688724,10362.883188,1455.581446
524.840558,3108.864956,9104.533087,76.609550
524.840879,3849.070898,6439.791695,-2145.067394
524.841199,7328.038826,6661.853478,-995.924147
524.841520,7031.956449,7994.224174,1302.362347
524.841841,5329.482782,9696.697840,536.266849
524.842161,4663.297435,10214.842000,-1149.143247
524.842482,4885.359217,8808.450710,-1915.238745
524.842802,5551.544565,6069.688724,-1225.752797
524.843123,5477.523971,6143.709319,-995.924147
524.843444,4737.318029,9400.615463,-1072.533697
524.843764,3108.864956,11325.150913,-1991.848295
524.844085,3775.050304,9622.677246,-2681.334243
524.844406,6069.688724,7105.977043,-2145.067394
524.844726,6735.874072,6957.935855,689.485948
524.845047,4663.297435,9104.533087,1378.971896
524.845368,2368.659014,9844.739029,-1532.190996
524.845688,3404.947333,9696.697840,-2221.676944
524.846009,6513.812290,8512.368333,-1072.533697
524.846329,7624.121203,7476.080014,153.219100
524.846650,5995.668130,8882.471304,1455.581446
524.846971,3775.050304,10288.862594,76.609550
524.847291,2516.700203,7846.182985,-1378.971896
524.847612,4811.338623,5329.482782,-1685.410096
524.847933,6365.771101,4737.318029,383.047749
524.848253,6365.771101,7254.018232,612.876398
524.848574,5551.544565,11177.109724,0.000000
524.848894,4367.215058,11325.150913,-2068.457845
524.849215,4663.297435,9178.553681,-1762.019645
524.849536,7920.203579,7772.162391,0.000000
524.849856,6957.935855,8142.265362,1149.143247
524.850177,4071.132681,9474.636058,766.095498
524.850498,3997.112087,9770.718434,459.657299
524.850818,4367.215058,8216.285956,-1608.800546
524.851139,3849.070898,5625.565159,-842.705048
524.851460,5033.400406,5995.668130,1149.143247
524.851780,5329.482782,9474.636058,1685.410096
524.852101,2886.803174,11251.130318,459.657299
524.852421,1998.556043,8808.450710,-383.047749
524.852742,5181.441594,6957.935855,-612.876398
524.853063,5699.585753,7624.121203,2145.067394
524.853383,3404.947333,9252.574275,3447.429741
524.853704,3478.967927,9992.780217,1685.410096
524.854025,3701.029710,8808.450710,-1455.581446
524.854345,3552.988522,7698.141797,0.000000
524.854666,5033.400406,7105.977043,2145.067394
524.854986,5033.400406,7550.100608,2451.505594
524.855307,3404.947333,9548.656652,1532.190996
524.855628,2812.782580,9104.533087,459.657299
524.855948,4071.132681,5773.606348,0.000000
524.856269,5847.626942,4811.338623,1378.971896
524.856590,6513.812290,7772.162391,3294.210641
524.856910,4885.359217,10214.842000,2451.505594
524.857231,4441.235652,9178.553681,76.609550
524.857552,4885.359217,5921.647536,-536.266849
524.857872,6957.935855,5181.441594,1915.238745
524.858193,7179.997637,6439.791695,3064.381992
524.858513,5329.482782,8734.430116,1455.581446
524.858834,3775.050304,9326.594869,0.000000
524.859155,4959.379811,7550.100608,-459.657299
524.859475,6439.791695,5699.585753,459.657299
524.859796,5773.606348,4959.379811,919.314598
