#time,accel_x,accel_y,accel_z
527.704301,5107.421000,8216.285956,-459.657299
527.704621,4811.338623,7772.162391,-229.828649
527.704942,4737.318029,8068.244768,0.000000
527.705262,5181.441594,7994.224174,0.000000
527.705583,4959.379811,7994.224174,-153.219100
527.705903,4885.359217,8290.306550,0.000000
527.706224,4959.379811,7994.224174,-153.219100
527.706544,5181.441594,8216.285956,76.609550
527.706865,5181.441594,8068.244768,-229.828649
527.707185,5033.400406,8068.244768,-229.828649
527.707506,5181.441594,8068.244768,-536.266849
527.707826,4885.359217,7994.224174,-306.438199
527.708147,4959.379811,8216.285956,0.000000
527.708467,5033.400406,7920.203579,0.000000
527.708788,4959.379811,8068.244768,-153.219100
527.709109,5033.400406,8068.244768,0.000000
527.709429,4885.359217,8290.306550,-229.828649
527.709750,5181.441594,8290.306550,-306.438199
527.710070,4885.359217,8216.285956,-229.828649
527.710391,4959.379811,7994.224174,-383.047749
527.710711,4885.359217,7994.224174,0.000000
527.711032,4589.276840,8364.327145,-153.219100
527.711352,5181.441594,7920.203579,0.000000
527.711673,4959.379811,8068.244768,-229.828649
527.711993,4811.338623,7994.224174,0.000000
527.712314,4959.379811,8142.265362,-153.219100
527.712634,5033.400406,8216.285956,0.000000
527.712955,4959.379811,7994.224174,-229.828649
527.713276,5033.400406,7994.224174,-459.657299
527.713596,5033.400406,7994.224174,0.000000
527.713917,5033.400406,8142.265362,-229.828649
527.714237,5255.462188,8216.285956,0.000000
527.714558,5255.462188,8290.306550,0.000000
527.714878,5033.400406,7994.224174,0.000000
527.715199,5181.441594,7920.203579,-76.609550
527.715519,4959.379811,7920.203579,0.000000
527.715840,4959.379811,7994.224174,0.000000
527.716160,5255.462188,7846.182985,-383.047749
527.716481,4737.318029,8142.265362,0.000000
527.716801,4959.379811,7994.224174,-229.828649
527.717122,4811.338623,8068.244768,-229.828649
527.717442,4737.318029,7476.080014,-153.219100
527.717763,4071.132681,7624.121203,-306.438199
527.718084,3997.112087,8142.265362,0.000000
527.718404,4441.235652,9178.553681,-536.266849
527.718725,4515.256246,9992.780217,-1149.143247
527.719045,4589.276840,9844.739029,-1302.362347
527.719366,4145.153275,9400.615463,-995.924147
527.719686,3701.029710,8660.409521,-153.219100
527.720007,2960.823768,8808.450710,383.047749
527.720327,2886.803174,9474.636058,842.705048
527.720648,3108.864956,9400.615463,383.047749
527.720968,2886.803174,8808.450710,0.000000
527.721289,2812.782580,8216.285956,-689.485948
527.721609,2960.823768,8882.471304,-229.828649
527.721930,3034.844362,9622.677246,689.485948
527.722250,2516.700203,9252.574275,153.219100
527.722571,2368.659014,8956.491898,0.000000
527.722892,2664.741391,9326.594869,0.000000
527.723212,2368.659014,10881.027347,-612.876398
527.723533,2072.576638,11843.295072,-919.314598
527.723853,1332.370696,12139.377449,-1455.581446
527.724174,1406.391290,11843.295072,-1608.800546
527.724494,592.164754,10881.027347,-1378.971896
527.724815,-518.144159,10881.027347,-1685.410096
527.725135,-592.164754,11991.336260,-1149.143247
527.725456,-1628.453072,13101.645173,0.000000
527.725776,-1998.556043,12879.583391,536.266849
527.726097,-1258.350101,12213.398043,1149.143247
527.726417,-444.123565,11991.336260,1838.629195
527.726738,-1184.329507,12509.480420,2221.676944
527.727058,-2146.597232,11769.274478,1072.533697
527.727379,-2072.576638,10584.944971,-153.219100
527.727700,-1480.411884,9696.697840,-766.095498
527.728020,-1110.308913,9400.615463,459.657299
527.728341,0.000000,9770.718434,842.705048
527.728661,0.000000,10732.986159,0.000000
527.728982,370.102971,11769.274478,-1225.752797
527.729302,1332.370696,11399.171507,-1608.800546
527.729623,1998.556043,11103.089130,-383.047749
527.729943,3182.885551,10807.006753,383.047749
527.730264,3108.864956,10510.924376,536.266849
527.730584,2442.679609,9992.780217,-1608.800546
527.730905,2072.576638,9326.594869,-2757.943793
527.731225,1776.494261,9252.574275,-1915.238745
527.731546,2146.597232,9696.697840,-612.876398
527.731867,1850.514855,9548.656652,0.000000
527.732187,1184.329507,10288.862594,-306.438199
527.732508,444.123565,11251.130318,-153.219100
527.732828,148.041188,11325.150913,76.609550
527.733149,-370.102971,10658.965565,383.047749
527.733469,-222.061783,10436.903782,842.705048
527.733790,-296.082377,10066.800811,919.314598
527.734110,-222.061783,10288.862594,995.924147
527.734431,-1110.308913,10658.965565,766.095498
527.734751,-444.123565,11029.068536,1149.143247
527.735072,592.164754,11325.150913,919.314598
527.735392,1110.308913,11177.109724,612.876398
527.735713,1258.350101,10807.006753,-459.657299
527.736033,1184.329507,10807.006753,-1072.533697
527.736354,1332.370696,10584.944971,-1149.143247
527.736675,1554.432478,9770.718434,-306.438199
527.736995,1702.473667,8808.450710,0.000000
527.737316,1924.535449,8512.368333,153.219100
527.737636,2368.659014,8956.491898,1072.533697
527.737957,2368.659014,10436.903782,0.000000
527.738277,2516.700203,10510.924376,-766.095498
527.738598,2886.803174,10362.883188,-995.924147
527.738918,3256.906145,9844.739029,-1072.533697
527.739239,2886.803174,9770.718434,-1608.800546
527.739559,2590.720797,10066.800811,-1149.143247
527.739880,1998.556043,10214.842000,-459.657299
527.740200,1554.432478,10807.006753,-383.047749
527.740521,1258.350101,11251.130318,-306.438199
527.740841,888.247130,11547.212695,-536.266849
527.741162,370.102971,10658.965565,-1302.362347
527.741483,-666.185348,9770.718434,-1762.019645
527.741803,-1480.411884,9326.594869,-1149.143247
527.742124,-1850.514855,8956.491898,383.047749
527.742444,-1258.350101,9992.780217,1302.362347
527.742765,74.020594,11991.336260,1838.629195
527.743085,74.020594,13841.851115,1685.410096
527.743406,444.123565,14211.954086,919.314598
527.743726,1110.308913,13249.686362,76.609550
527.744047,1702.473667,11177.109724,-383.047749
527.744367,1776.494261,10214.842000,0.000000
527.744688,1406.391290,9326.594869,0.000000
527.745008,-148.041188,8512.368333,-1455.581446
527.745329,-962.267725,9030.512492,-1991.848295
527.745649,-1480.411884,10288.862594,-1455.581446
527.745970,-1480.411884,11473.192101,-995.924147
527.746291,148.041188,12583.501014,306.438199
527.746611,1184.329507,13545.768739,229.828649
527.746932,888.247130,14434.015869,-383.047749
527.747252,222.061783,13249.686362,76.609550
527.747573,222.061783,12731.542202,-153.219100
527.747893,222.061783,11103.089130,-383.047749
527.748214,814.226536,8956.491898,-689.485948
527.748534,1702.473667,7550.100608,-1225.752797
527.748855,1406.391290,8512.368333,-536.266849
527.749175,888.247130,11029.068536,689.485948
527.749496,0.000000,11769.274478,1072.533697
527.749816,0.000000,9992.780217,306.438199
527.750137,74.020594,8512.368333,919.314598
527.750457,518.144159,8068.244768,766.095498
527.750778,296.082377,9474.636058,612.876398
527.751099,222.061783,12139.377449,-612.876398
527.751419,0.000000,13397.727550,-2221.676944
527.751740,370.102971,13619.789333,-3064.381992
527.752060,888.247130,12879.583391,-1762.019645
527.752381,888.247130,12731.542202,-689.485948
527.752701,-148.041188,12139.377449,612.876398
527.753022,-444.123565,11769.274478,1532.190996
527.753342,-666.185348,9992.780217,1685.410096
527.753663,-1036.288319,9104.533087,1455.581446
527.753983,-666.185348,8364.327145,1302.362347
527.754304,-1628.453072,8142.265362,842.705048
527.754624,-1332.370696,8364.327145,-153.219100
527.754945,370.102971,9400.615463,153.219100
527.755266,1998.556043,11103.089130,229.828649
527.755586,2516.700203,12435.459826,-229.828649
527.755907,2590.720797,12287.418637,-153.219100
527.756227,1850.514855,11473.192101,-2145.067394
527.756548,1702.473667,8734.430116,-2451.505594
527.756868,2368.659014,7105.977043,-766.095498
527.757189,3923.091493,8882.471304,1225.752797
527.757509,2442.679609,12065.356855,919.314598
527.757830,1110.308913,13545.768739,-1455.581446
527.758150,1110.308913,12435.459826,-3217.601092
527.758471,1184.329507,10214.842000,-2528.115143
527.758791,74.020594,7698.141797,-919.314598
527.759112,-444.123565,7105.977043,153.219100
527.759432,-592.164754,9030.512492,76.609550
527.759753,74.020594,13175.665768,919.314598
527.760074,-1258.350101,14804.118840,459.657299
527.760394,-962.267725,14434.015869,-766.095498
527.760715,0.000000,14285.974681,0.000000
527.761035,-1184.329507,13915.871710,1149.143247
527.761356,-1554.432478,11547.212695,995.924147
527.761676,-518.144159,9474.636058,229.828649
527.761997,0.000000,9252.574275,0.000000
527.762317,-962.267725,9030.512492,1225.752797
527.762638,-962.267725,8882.471304,766.095498
527.762958,370.102971,8734.430116,153.219100
527.763279,2442.679609,10436.903782,1302.362347
527.763599,3997.112087,11621.233289,1455.581446
527.763920,4219.173869,11843.295072,-919.314598
527.764240,4589.276840,11251.130318,-2374.896044
527.764561,3849.070898,11177.109724,-2528.115143
527.764882,2368.659014,9178.553681,-2451.505594
527.765202,666.185348,6735.874072,-1532.190996
527.765523,2368.659014,7328.038826,-919.314598
527.765843,3182.885551,11769.274478,612.876398
527.766164,1924.535449,14063.912898,-153.219100
527.766484,444.123565,13027.624579,-1991.848295
527.766805,74.020594,11843.295072,-1685.410096
527.767126,-2072.576638,10214.842000,612.876398
527.767446,-2590.720797,8956.491898,2068.457845
527.767767,74.020594,9326.594869,1915.238745
527.768088,740.205942,11325.150913,0.000000
527.768408,74.020594,12509.480420,-1302.362347
527.768729,74.020594,11547.212695,-689.485948
527.769050,-296.082377,9844.739029,1991.848295
527.769370,1406.391290,9252.574275,4903.011187
527.769691,2886.803174,9104.533087,4519.963438
527.770012,2664.741391,8586.388927,153.219100
527.770332,2294.638420,7179.997637,-3064.381992
527.770653,3627.009116,6439.791695,-1455.581446
527.770974,4293.194464,4959.379811,153.219100
527.771294,6513.812290,5329.482782,1225.752797
527.771615,8216.285956,7402.059420,612.876398
527.771936,7550.100608,11177.109724,-2451.505594
527.772256,6513.812290,11695.253884,-3447.429741
527.772577,7105.977043,9918.759623,-2987.772442
527.772898,7402.059420,8142.265362,-1225.752797
527.773218,6439.791695,6069.688724,689.485948
527.773539,4145.153275,6439.791695,-459.657299
527.773860,1702.473667,7550.100608,-2528.115143
527.774180,518.144159,9474.636058,-1991.848295
527.774501,2368.659014,10881.027347,-612.876398
527.774822,3108.864956,9992.780217,0.000000
527.775142,2590.720797,10140.821405,1149.143247
527.775463,2590.720797,10066.800811,2911.162892
527.775784,1850.514855,9474.636058,3753.867940
527.776104,666.185348,9030.512492,3524.039291
527.776425,1480.411884,8142.265362,2145.067394
527.776746,3627.009116,7772.162391,0.000000
527.777066,4885.359217,8216.285956,-612.876398
527.777387,5329.482782,7846.182985,-459.657299
527.777708,5847.626942,8290.306550,-306.438199
527.778028,5699.585753,8808.450710,-612.876398
527.778349,5699.585753,7328.038826,0.000000
527.778670,6217.729913,5551.544565,-306.438199
527.778990,7624.121203,4663.297435,-383.047749
527.779311,9696.697840,7476.080014,0.000000
527.779632,8808.450710,8882.471304,-842.705048
527.779952,9178.553681,9104.533087,-3140.991542
527.780273,8216.285956,7254.018232,-4673.182538
527.780594,7846.182985,6439.791695,-4443.353888
527.780914,8068.244768,7550.100608,-1378.971896
527.781235,5773.606348,9400.615463,-306.438199
527.781556,4071.132681,10066.800811,-1302.362347
527.781876,3330.926739,9178.553681,-842.705048
527.782197,1998.556043,7624.121203,459.657299
527.782518,2294.638420,7846.182985,1762.019645
527.782838,1924.535449,9474.636058,1915.238745
527.783159,296.082377,10658.965565,-306.438199
527.783480,-592.164754,10510.924376,-1838.629195
527.783800,1702.473667,9030.512492,76.609550
527.784121,3478.967927,8956.491898,2681.334243
527.784442,3849.070898,11103.089130,4826.401637
527.784762,4367.215058,12509.480420,2911.162892
527.785083,1998.556043,10066.800811,-612.876398
527.785404,2146.597232,7105.977043,-919.314598
527.785724,4885.359217,7179.997637,2068.457845
527.786045,5329.482782,7031.956449,2604.724693
527.786366,5329.482782,6587.832884,76.609550
527.786686,7105.977043,7105.977043,-3217.601092
527.787007,5329.482782,6217.729913,-4060.306139
527.787328,6587.832884,6217.729913,-919.314598
527.787648,9104.533087,8660.409521,2145.067394
527.787969,8660.409521,9548.656652,383.047749
527.788290,7772.162391,8216.285956,-1532.190996
527.788610,9178.553681,7031.956449,-2681.334243
527.788931,7772.162391,6513.812290,-1838.629195
527.789252,6291.750507,7105.977043,153.219100
527.789572,5995.668130,7105.977043,0.000000
527.789893,5847.626942,7105.977043,-2068.457845
527.790214,5773.606348,6365.771101,-612.876398
527.790534,5773.606348,6439.791695,766.095498
527.790855,4219.173869,7031.956449,1149.143247
527.791176,2960.823768,8512.368333,919.314598
527.791496,2368.659014,9030.512492,1532.190996
527.791817,2738.761985,7624.121203,1915.238745
527.792138,3775.050304,6661.853478,2757.943793
527.792458,4293.194464,8512.368333,3447.429741
527.792779,2368.659014,9548.656652,1072.533697
527.793100,2294.638420,8882.471304,-919.314598
527.793420,3775.050304,7031.956449,-1378.971896
527.793741,5625.565159,6069.688724,-612.876398
527.794062,5699.585753,6809.894666,1225.752797
527.794382,4959.379811,7698.141797,1532.190996
527.794703,4885.359217,8290.306550,0.000000
527.795024,6291.750507,8068.244768,-1072.533697
527.795344,7402.059420,7994.224174,-1685.410096
527.795665,7328.038826,7179.997637,-1991.848295
527.795986,6809.894666,6809.894666,-766.095498
527.796306,6217.729913,6069.688724,-536.266849
527.796627,6439.791695,5773.606348,-995.924147
527.796948,6883.915261,6587.832884,-1762.019645
527.797268,6513.812290,8364.327145,-1532.190996
527.797589,6291.750507,10510.924376,-1532.190996
527.797910,6513.812290,9918.759623,-306.438199
527.798230,6291.750507,8142.265362,0.000000
527.798551,6587.832884,6587.832884,-306.438199
527.798872,4959.379811,7402.059420,0.000000
527.799192,2738.761985,7994.224174,-383.047749
527.799513,2590.720797,8216.285956,-995.924147
527.799834,3552.988522,8364.327145,-919.314598
527.800154,5033.400406,9548.656652,536.266849
527.800475,4367.215058,10584.944971,1532.190996
527.800796,2812.782580,10658.965565,459.657299
527.801116,2368.659014,9326.594869,306.438199
527.801437,3330.926739,8660.409521,1302.362347
527.801758,4367.215058,8512.368333,1685.410096
527.802078,4219.173869,8216.285956,383.047749
527.802399,5329.482782,7698.141797,-1072.533697
527.802720,5625.565159,8068.244768,-1072.533697
527.803040,5847.626942,7254.018232,-459.657299
527.803361,8882.471304,7994.224174,-766.095498
527.803682,7476.080014,7476.080014,-1991.848295
527.804002,5773.606348,7254.018232,-2834.553343
527.804323,7476.080014,7254.018232,-1302.362347
527.804644,6957.935855,7105.977043,-153.219100
527.804964,7698.141797,7105.977043,-459.657299
527.805285,9104.533087,8216.285956,-1302.362347
527.805606,6217.729913,7105.977043,-2451.505594
527.805926,5699.585753,7402.059420,-1455.581446
527.806247,6365.771101,7254.018232,-153.219100
527.806568,6143.709319,7031.956449,0.000000
527.806888,5773.606348,7772.162391,76.609550
527.807209,5181.441594,8438.347739,0.000000
527.807530,2368.659014,7476.080014,-766.095498
527.807850,2368.659014,6809.894666,76.609550
527.808171,3849.070898,8586.388927,1685.410096
527.808492,4145.153275,9178.553681,1378.971896
527.808812,2738.761985,8216.285956,383.047749
527.809133,3775.050304,8142.265362,-1302.362347
527.809454,3627.009116,8364.327145,-536.266849
527.809774,3849.070898,9104.533087,2374.896044
527.810095,5107.421000,9770.718434,2604.724693
527.810416,3404.947333,8586.388927,0.000000
527.810736,3849.070898,6661.853478,-383.047749
527.811057,5921.647536,6217.729913,1072.533697
527.811378,5773.606348,6661.853478,1378.971896
527.811698,6513.812290,8438.347739,229.828649
527.812019,6587.832884,7994.224174,-2068.457845
527.812340,6217.729913,5847.626942,-3140.991542
527.812660,7772.162391,5329.482782,-153.219100
527.812981,8734.430116,6809.894666,2681.334243
527.813302,7402.059420,7328.038826,-306.438199
527.813622,6217.729913,8364.327145,-2374.896044
527.813943,6439.791695,7698.141797,-2757.943793
527.814264,7402.059420,7476.080014,-995.924147
527.814584,7550.100608,8142.265362,1608.800546
527.814905,6661.853478,8734.430116,1532.190996
527.815226,3997.112087,7994.224174,-995.924147
527.815546,2812.782580,6069.688724,-1532.190996
527.815867,4293.194464,6291.750507,383.047749
527.816188,5181.441594,7254.018232,2068.457845
527.816508,4589.276840,8808.450710,2068.457845
527.816829,5033.400406,9548.656652,-229.828649
527.817150,3108.864956,8512.368333,-1608.800546
527.817470,4367.215058,7402.059420,153.219100
527.817791,5107.421000,8660.409521,2298.286494
527.818112,4293.194464,9030.512492,2145.067394
527.818432,3923.091493,9178.553681,229.828649
527.818753,3552.988522,8734.430116,-1072.533697
527.819074,3775.050304,7179.997637,-1149.143247
527.819394,6439.791695,7698.141797,842.705048
527.819715,5773.606348,8882.471304,766.095498
527.820036,4589.276840,9104.533087,-1149.143247
527.820356,4811.338623,7105.977043,-1302.362347
527.820677,5477.523971,5847.626942,-995.924147
527.820998,6883.915261,6661.853478,153.219100
527.821318,5921.647536,7698.141797,1225.752797
527.821639,5477.523971,8586.388927,-1532.190996
527.821960,5699.585753,7402.059420,-2987.772442
527.822280,6439.791695,6587.832884,-2681.334243
527.822601,7402.059420,7328.038826,-1225.752797
527.822922,6143.709319,8956.491898,0.000000
527.823242,4367.215058,9474.636058,-995.924147
527.823563,4293.194464,8586.388927,-2451.505594
527.823884,4737.318029,7179.997637,-1455.581446
527.824204,5107.421000,7402.059420,536.266849
527.824525,3997.112087,8734.430116,1072.533697
527.824846,2516.700203,9252.574275,-766.095498
527.825166,3108.864956,8734.430116,-1455.581446
527.825487,4811.338623,7994.224174,-229.828649
527.825808,5921.647536,7920.203579,1302.362347
527.826128,4071.132681,8882.471304,1685.410096
527.826449,2664.741391,8882.471304,-383.047749
527.826770,3775.050304,9696.697840,-842.705048
527.827090,4959.379811,8734.430116,0.000000
527.827411,6735.874072,7402.059420,0.000000
527.827732,8364.327145,8068.244768,536.266849
527.828052,4811.338623,8956.491898,-1072.533697
527.828373,4293.194464,8364.327145,-1608.800546
527.828694,5995.668130,7476.080014,-383.047749
527.829014,7105.977043,7105.977043,536.266849
527.829335,7328.038826,8290.306550,689.485948
527.829656,5773.606348,9252.574275,-919.314598
527.829976,3627.009116,8660.409521,-3983.696590
527.830297,5033.400406,9400.615463,-1991.848295
527.830618,6661.853478,8808.450710,995.924147
527.830938,5403.503377,7772.162391,995.924147
527.831259,4885.359217,7550.100608,-306.438199
527.831580,4589.276840,9548.656652,-1455.581446
527.831900,3108.864956,9400.615463,-995.924147
527.832221,3997.112087,8512.368333,612.876398
527.832542,4589.276840,8068.244768,995.924147
527.832862,3997.112087,7772.162391,689.485948
527.833183,3552.988522,7402.059420,1072.533697
527.833504,3552.988522,7624.121203,612.876398
527.833824,3775.050304,8216.285956,0.000000
527.834145,3923.091493,9178.553681,536.266849
527.834466,4145.153275,8290.306550,229.828649
527.834786,4589.276840,6809.894666,383.047749
527.835107,5995.668130,6883.915261,1532.190996
527.835428,5847.626942,7624.121203,919.314598
527.835748,5181.441594,7772.162391,-1685.410096
527.836069,5625.565159,7179.997637,-2451.505594
527.836390,5255.462188,6217.729913,-766.095498
527.836710,8142.265362,6365.771101,1685.410096
527.837031,7920.203579,6143.709319,1608.800546
527.837352,5477.523971,7179.997637,-1072.533697
527.837672,5181.441594,9326.594869,-2528.115143
527.837993,4367.215058,8808.450710,-1915.238745
527.838314,4737.318029,6957.935855,-306.438199
527.838634,8068.244768,6809.894666,1532.190996
527.838955,6365.771101,7994.224174,919.314598
527.839276,2960.823768,8808.450710,-1225.752797
527.839596,2294.638420,8734.430116,-1762.019645
527.839917,2960.823768,8734.430116,-995.924147
527.840238,4367.215058,9178.553681,1302.362347
527.840558,4441.235652,9474.636058,2221.676944
527.840879,2590.720797,9474.636058,-229.828649
527.841200,1184.329507,10066.800811,-536.266849
527.841520,1702.473667,9178.553681,995.924147
527.841841,2886.803174,9400.615463,1455.581446
527.842162,3775.050304,9696.697840,1455.581446
527.842482,2516.700203,9918.759623,153.219100
527.842803,2368.659014,9992.780217,-459.657299
527.843124,3330.926739,9326.594869,306.438199
527.843444,4145.153275,8660.409521,1149.143247
527.843765,4663.297435,8364.327145,766.095498
527.844086,4737.318029,7698.141797,-306.438199
527.844406,4663.297435,7031.956449,-995.924147
527.844727,5625.565159,7550.100608,-1072.533697
527.845048,6883.915261,9030.512492,0.000000
527.845368,6735.874072,10436.903782,-842.705048
527.845689,6513.812290,9474.636058,-1838.629195
527.846010,7179.997637,8068.244768,-2221.676944
527.846330,7105.977043,6883.915261,-1225.752797
527.846651,6439.791695,6439.791695,229.828649
527.846972,6069.688724,7994.224174,-76.609550
527.847292,5107.421000,8808.450710,-1838.629195
527.847613,4885.359217,7550.100608,-2068.457845
527.847934,6069.688724,5847.626942,-612.876398
527.848254,5847.626942,5625.565159,919.314598
527.848575,4515.256246,8438.347739,995.924147
527.848896,2960.823768,9104.533087,-919.314598
527.849216,3478.967927,7920.203579,-2604.724693
527.849537,6957.935855,6069.688724,-306.438199
527.849858,7254.018232,5847.626942,1838.629195
527.850178,5699.585753,7920.203579,995.924147
527.850499,4515.256246,9770.718434,-1072.533697
527.850820,3182.885551,8808.450710,-2068.457845
527.851140,6439.791695,7254.018232,-612.876398
527.851461,8956.491898,7624.121203,1762.019645
527.851782,6365.771101,7550.100608,306.438199
527.852102,4367.215058,8142.265362,-1455.581446
527.852423,4293.194464,8068.244768,-1072.533697
527.852744,4737.318029,6513.812290,0.000000
527.853064,7179.997637,6587.832884,1991.848295
527.853385,6957.935855,8290.306550,766.095498
527.853706,3923.091493,9622.677246,-2451.505594
527.854026,2738.761985,9992.780217,-1915.238745
527.854347,4885.359217,8734.430116,-153.219100
527.854668,5699.585753,8586.388927,1532.190996
527.854988,4737.318029,8364.327145,1532.190996
527.855309,2146.597232,9178.553681,-1302.362347
527.855630,888.247130,9252.574275,-1838.629195
527.855951,2442.679609,9178.553681,-689.485948
527.856271,4515.256246,9844.739029,612.876398
527.856592,4293.194464,9474.636058,229.828649
527.856913,3701.029710,9696.697840,229.828649
527.857233,2664.741391,9548.656652,689.485948
527.857554,2886.803174,8216.285956,0.000000
527.857875,4367.215058,8512.368333,842.705048
527.858195,4811.338623,8956.491898,612.876398
527.858516,4441.235652,8956.491898,-76.609550
527.858837,4367.215058,8438.347739,229.828649
527.859157,5995.668130,7920.203579,383.047749
527.859478,5477.523971,8660.409521,766.095498
527.859799,3923.091493,8142.265362,229.828649
527.860119,3627.009116,8216.285956,-842.705048
527.860440,4811.338623,7179.997637,-689.485948
527.860761,5699.585753,6809.894666,0.000000
527.861081,6217.729913,8364.327145,766.095498
527.861402,3849.070898,9918.759623,-536.266849
527.861723,2442.679609,9622.677246,-612.876398
527.862043,2368.659014,7698.141797,-612.876398
527.862364,4219.173869,6365.771101,306.438199
527.862685,4737.318029,7105.977043,1455.581446
527.863005,3404.947333,8438.347739,459.657299
527.863326,2072.576638,8882.471304,-1685.410096
527.863647,2664.741391,8512.368333,-1378.971896
527.863967,4145.153275,7179.997637,229.828649
527.864288,5995.668130,7698.141797,1838.629195
527.864609,5403.503377,9474.636058,842.705048
527.864929,3701.029710,9178.553681,-1608.800546
527.865250,3997.112087,6957.935855,-2068.457845
527.865571,5995.668130,5403.503377,0.000000
527.865891,7402.059420,6587.832884,1915.238745
527.866212,6513.812290,7698.141797,612.876398
527.866532,4589.276840,7772.162391,-2221.676944
527.866853,5773.606348,7402.059420,-1991.848295
527.867173,8216.285956,7105.977043,1225.752797
527.867494,9548.656652,7105.977043,2911.162892
527.867815,8882.471304,6809.894666,383.047749
527.868135,6809.894666,6587.832884,-1991.848295
527.868456,6587.832884,6957.935855,-1532.190996
527.868776,6809.894666,6365.771101,0.000000
527.869097,7772.162391,7624.121203,459.657299
527.869417,8216.285956,8734.430116,-76.609550
527.869738,5255.462188,8586.388927,-995.924147
527.870059,4811.338623,7550.100608,-1378.971896
527.870379,5699.585753,7550.100608,459.657299
527.870700,4589.276840,8586.388927,1608.800546
527.871020,3849.070898,8734.430116,536.266849
527.871341,3108.864956,8734.430116,-689.485948
527.871661,2812.782580,7846.182985,-1532.190996
527.871982,4367.215058,8512.368333,842.705048
527.872303,4885.359217,8586.388927,1532.190996
527.872623,3627.009116,9696.697840,0.000000
527.872944,2442.679609,9696.697840,-995.924147
527.873264,2516.700203,7550.100608,-1915.238745
527.873585,3775.050304,6587.832884,-612.876398
527.873905,5181.441594,8808.450710,1455.581446
527.874226,4737.318029,11177.109724,383.047749
527.874547,3775.050304,9548.656652,-1915.238745
527.874867,6217.729913,7105.977043,-1685.410096
527.875188,7105.977043,7328.038826,689.485948
527.875508,6069.688724,7402.059420,1532.190996
527.875829,5403.503377,8586.388927,-689.485948
527.876149,4959.379811,8586.388927,-2604.724693
527.876470,5995.668130,7328.038826,-2221.676944
527.876790,8364.327145,7254.018232,1762.019645
527.877111,6809.894666,7624.121203,995.924147
527.877432,3552.988522,9400.615463,-1149.143247
527.877752,3182.885551,9696.697840,-995.924147
527.878073,3478.967927,7179.997637,0.000000
527.878393,6217.729913,5625.565159,2451.505594
527.878714,6661.853478,7328.038826,2145.067394
527.879034,2960.823768,9178.553681,-766.095498
527.879355,1406.391290,9326.594869,-2834.553343
527.879676,2590.720797,7994.224174,-1302.362347
527.879996,5181.441594,7476.080014,1378.971896
527.880317,5847.626942,8068.244768,2374.896044
527.880637,4441.235652,9622.677246,153.219100
527.880958,2072.576638,9548.656652,-2221.676944
527.881278,2812.782580,7846.182985,-1149.143247
527.881599,6143.709319,6069.688724,842.705048
527.881920,6957.935855,6365.771101,1762.019645
527.882240,5551.544565,8956.491898,689.485948
527.882561,4293.194464,9622.677246,-1225.752797
527.882881,4885.359217,8586.388927,-2068.457845
527.883202,8438.347739,7105.977043,612.876398
527.883522,8808.450710,6957.935855,2451.505594
527.883843,5995.668130,7179.997637,1225.752797
527.884164,5107.421000,8142.265362,-995.924147
527.884484,4811.338623,7179.997637,229.828649
527.884805,6513.812290,6143.709319,1225.752797
527.885125,7624.121203,6513.812290,1838.629195
527.885446,5551.544565,7920.203579,0.000000
527.885766,3775.050304,7994.224174,-1225.752797
527.886087,5403.503377,7031.956449,-1225.752797
527.886408,7105.977043,5551.544565,0.000000
527.886728,6069.688724,6365.771101,1149.143247
527.887049,4663.297435,8438.347739,0.000000
527.887369,4515.256246,10955.047942,-689.485948
527.887690,4145.153275,9178.553681,-1378.971896
527.888010,6735.874072,7328.038826,153.219100
527.888331,7994.224174,7476.080014,919.314598
527.888651,4441.235652,7476.080014,-612.876398
527.888972,2738.761985,7846.182985,-1608.800546
527.889293,3775.050304,7179.997637,-1225.752797
527.889613,5995.668130,5995.668130,153.219100
527.889934,7179.997637,6809.894666,1838.629195
527.890254,5329.482782,8438.347739,-612.876398
527.890575,3478.967927,9326.594869,-3524.039291
527.890895,4959.379811,8438.347739,-842.705048
527.891216,7476.080014,7550.100608,1608.800546
527.891537,7698.141797,7476.080014,1685.410096
527.891857,5255.462188,7402.059420,-459.657299
527.892178,3330.926739,8216.285956,-3294.210641
527.892498,3775.050304,9104.533087,-1608.800546
527.892819,6143.709319,8660.409521,1072.533697
527.893139,6587.832884,8956.491898,689.485948
527.893460,4959.379811,9178.553681,-919.314598
527.893781,2368.659014,8734.430116,-383.047749
527.894101,2590.720797,8512.368333,229.828649
527.894422,4071.132681,7550.100608,1149.143247
527.894742,5551.544565,8290.306550,459.657299
527.895063,3627.009116,8290.306550,-1532.190996
527.895383,2368.659014,8734.430116,-2145.067394
527.895704,3997.112087,9474.636058,-76.609550
527.896025,4885.359217,9178.553681,1072.533697
527.896345,6217.729913,9844.739029,0.000000
527.896666,5033.400406,10140.821405,-1838.629195
527.896986,3775.050304,9030.512492,-2528.115143
527.897307,5847.626942,7402.059420,0.000000
527.897627,7624.121203,6513.812290,2068.457845
527.897948,7031.956449,7254.018232,1378.971896
527.898268,5921.647536,8438.347739,-766.095498
527.898589,4811.338623,7994.224174,-2298.286494
527.898910,6143.709319,7031.956449,-383.047749
527.899230,9030.512492,6143.709319,2374.896044
527.899551,8438.347739,6809.894666,1915.238745
527.899871,5995.668130,7550.100608,-995.924147
527.900192,5255.462188,7105.977043,-1455.581446
527.900512,5921.647536,6735.874072,-459.657299
527.900833,7476.080014,7105.977043,2068.457845
527.901154,6661.853478,8216.285956,2221.676944
527.901474,4663.297435,9252.574275,-766.095498
527.901795,3627.009116,8068.244768,-1915.238745
527.902115,4145.153275,6217.729913,76.609550
527.902436,5033.400406,5255.462188,1838.629195
527.902756,4293.194464,6365.771101,1378.971896
527.903077,2812.782580,8364.327145,-153.219100
527.903398,1554.432478,8438.347739,-2221.676944
527.903718,3627.009116,7105.977043,-1072.533697
527.904039,6587.832884,7624.121203,1532.190996
527.904359,6069.688724,9326.594869,1455.581446
527.904680,3775.050304,9400.615463,-842.705048
527.905000,3997.112087,7698.141797,-2374.896044
527.905321,5255.462188,6069.688724,-1455.581446
527.905642,7179.997637,6217.729913,919.314598
527.905962,7550.100608,7402.059420,1072.533697
527.906283,4959.379811,8660.409521,-1685.410096
527.906603,4219.173869,8882.471304,-2451.505594
527.906924,6661.853478,7772.162391,0.000000
527.907244,7846.182985,6735.874072,2298.286494
527.907565,7105.977043,7105.977043,2451.505594
527.907886,5181.441594,7994.224174,536.266849
527.908206,2442.679609,7179.997637,-2145.067394
527.908527,4737.318029,6587.832884,-306.438199
527.908847,7031.956449,7402.059420,1455.581446
527.909168,5477.523971,8734.430116,1072.533697
527.909488,3923.091493,9844.739029,-612.876398
527.909809,2368.659014,10436.903782,-2221.676944
527.910129,2516.700203,8882.471304,-1608.800546
527.910450,4811.338623,8142.265362,995.924147
527.910771,4959.379811,9844.739029,1685.410096
527.911091,2590.720797,10658.965565,-1378.971896
527.911412,1776.494261,9992.780217,-2451.505594
527.911732,3997.112087,8734.430116,-2221.676944
527.912053,4885.359217,8512.368333,306.438199
527.912373,5329.482782,10140.821405,1915.238745
527.912694,3923.091493,10732.986159,-995.924147
527.913015,3182.885551,8808.450710,-2757.943793
527.913335,4737.318029,6143.709319,0.000000
527.913656,6883.915261,6587.832884,2145.067394
527.913976,5921.647536,7994.224174,689.485948
527.914297,5033.400406,9474.636058,-1991.848295
527.914617,5403.503377,8882.471304,-2451.505594
527.914938,7402.059420,7031.956449,-306.438199
527.915259,9326.594869,6365.771101,2374.896044
527.915579,8290.306550,7698.141797,1532.190996
527.915900,5329.482782,9030.512492,-1608.800546
527.916220,4145.153275,7624.121203,-2681.334243
527.916541,6143.709319,6957.935855,-919.314598
527.916861,8068.244768,7105.977043,1225.752797
527.917182,5699.585753,8882.471304,689.485948
527.917503,2812.782580,9770.718434,-1608.800546
527.917823,2146.597232,8586.388927,-1915.238745
527.918144,2960.823768,6883.915261,-153.219100
527.918464,5329.482782,5921.647536,2528.115143
527.918785,4737.318029,7550.100608,1762.019645
527.919105,2220.617826,10436.903782,-689.485948
527.919426,1850.514855,10658.965565,-689.485948
527.919746,3775.050304,8290.306550,-766.095498
527.920067,6439.791695,7179.997637,459.657299
527.920388,6217.729913,8142.265362,1072.533697
527.920708,3330.926739,8734.430116,-536.266849
527.921029,2590.720797,8290.306550,-1762.019645
527.921349,4441.235652,6439.791695,-842.705048
527.921670,7698.141797,6957.935855,1762.019645
527.921990,6809.894666,8290.306550,1685.410096
527.922311,4959.379811,9030.512492,-766.095498
527.922632,5181.441594,9030.512492,-2528.115143
527.922952,6513.812290,6439.791695,-536.266849
527.923273,8290.306550,5255.462188,2221.676944
527.923593,7920.203579,6143.709319,2528.115143
527.923914,5107.421000,7772.162391,-842.705048
527.924234,3923.091493,8586.388927,-1991.848295
527.924555,6513.812290,7402.059420,-919.314598
527.924876,7179.997637,6365.771101,306.438199
527.925196,5773.606348,6661.853478,995.924147
527.925517,3256.906145,8364.327145,-612.876398
527.925837,2812.782580,8882.471304,-1455.581446
527.926158,2738.761985,7920.203579,-536.266849
527.926478,5329.482782,7105.977043,842.705048
527.926799,5255.462188,8364.327145,76.609550
527.927120,2146.597232,9474.636058,-1455.581446
527.927440,1258.350101,10658.965565,-1302.362347
527.927761,3923.091493,9326.594869,0.000000
527.928081,5699.585753,8586.388927,1532.190996
527.928402,5107.421000,9326.594869,995.924147
527.928722,1998.556043,9622.677246,-1991.848295
527.929043,518.144159,9548.656652,-3217.601092
527.929364,3330.926739,8364.327145,995.924147
527.929684,7105.977043,8364.327145,3753.867940
527.930005,6291.750507,8586.388927,2221.676944
527.930325,4589.276840,8438.347739,-1302.362347
527.930646,3627.009116,8660.409521,-2528.115143
527.930966,4589.276840,8512.368333,-306.438199
527.931287,7031.956449,7846.182985,2298.286494
527.931607,7920.203579,7624.121203,1225.752797
527.931928,5329.482782,7550.100608,-1225.752797
527.932249,4219.173869,8512.368333,-689.485948
527.932569,4145.153275,9104.533087,-459.657299
527.932890,4663.297435,9474.636058,-1149.143247
527.933210,4441.235652,9030.512492,-1455.581446
527.933531,3552.988522,8956.491898,-1991.848295
527.933851,3849.070898,8808.450710,-536.266849
527.934172,3775.050304,7846.182985,1149.143247
527.934493,5181.441594,8512.368333,1378.971896
527.934813,3108.864956,9622.677246,-306.438199
527.935134,1628.453072,9474.636058,-536.266849
527.935454,3182.885551,8660.409521,0.000000
527.935775,4959.379811,7179.997637,1302.362347
527.936095,6217.729913,7698.141797,1532.190996
527.936416,3775.050304,9622.677246,-383.047749
527.936737,2442.679609,9104.533087,-3064.381992
527.937057,2516.700203,6957.935855,-1608.800546
527.937378,6291.750507,5699.585753,2068.457845
527.937698,8290.306550,5995.668130,3524.039291
527.938019,6735.874072,9104.533087,1991.848295
527.938339,4737.318029,10140.821405,-2451.505594
527.938660,5625.565159,9252.574275,-3064.381992
527.938981,7402.059420,6143.709319,76.609550
527.939301,8882.471304,4441.235652,2528.115143
527.939622,6957.935855,5403.503377,1608.800546
527.939942,3775.050304,6661.853478,-1378.971896
527.940263,3330.926739,6513.812290,-2145.067394
527.940583,5477.523971,6143.709319,-842.705048
527.940904,8142.265362,7031.956449,842.705048
527.941225,7031.956449,9104.533087,766.095498
527.941545,4663.297435,9178.553681,-1378.971896
527.941866,3701.029710,8512.368333,-2298.286494
527.942186,4737.318029,6661.853478,0.000000
527.942507,6069.688724,6513.812290,1685.410096
527.942827,5551.544565,8660.409521,842.705048
527.943148,4219.173869,10214.842000,-1915.238745
527.943468,4589.276840,9474.636058,-2757.943793
527.943789,5107.421000,6217.729913,-689.485948
527.944110,6291.750507,6809.894666,1915.238745
527.944430,5477.523971,8882.471304,2528.115143
527.944751,2072.576638,9770.718434,0.000000
527.945071,3552.988522,8882.471304,-842.705048
527.945392,6365.771101,7328.038826,766.095498
527.945712,5477.523971,7105.977043,1685.410096
527.946033,4441.235652,8808.450710,842.705048
527.946354,2886.803174,9252.574275,-1225.752797
527.946674,2886.803174,8660.409521,-1991.848295
527.946995,5995.668130,8290.306550,919.314598
527.947315,6365.771101,8808.450710,1685.410096
527.947636,2812.782580,10658.965565,0.000000
527.947956,1184.329507,12509.480420,-1225.752797
527.948277,2960.823768,11621.233289,-306.438199
527.948598,4811.338623,8216.285956,1072.533697
527.948918,5847.626942,6217.729913,1608.800546
527.949239,4367.215058,8512.368333,0.000000
527.949559,740.205942,10214.842000,-2681.334243
527.949880,1332.370696,9548.656652,-1762.019645
527.950200,5551.544565,7772.162391,612.876398
527.950521,7254.018232,7105.977043,2298.286494
527.950842,6069.688724,9104.533087,1838.629195
527.951162,3256.906145,10436.903782,-612.876398
527.951483,2294.638420,9252.574275,-1685.410096
527.951803,5255.462188,6809.894666,-153.219100
527.952124,7698.141797,4737.318029,459.657299
527.952444,6661.853478,5847.626942,0.000000
527.952765,4737.318029,8216.285956,-766.095498
527.953085,3775.050304,8734.430116,-995.924147
527.953406,5551.544565,7105.977043,-1072.533697
527.953727,8364.327145,6217.729913,459.657299
527.954047,7328.038826,6587.832884,612.876398
527.954368,5477.523971,7550.100608,-383.047749
527.954688,5477.523971,7698.141797,229.828649
527.955009,5699.585753,6809.894666,76.609550
527.955329,6587.832884,6143.709319,-459.657299
527.955650,5477.523971,6513.812290,-459.657299
527.955971,3330.926739,6217.729913,-1608.800546
527.956291,3997.112087,6513.812290,-153.219100
527.956612,5921.647536,6883.915261,229.828649
527.956932,6513.812290,6883.915261,-383.047749
527.957253,6587.832884,9178.553681,-1225.752797
527.957573,5033.400406,11547.212695,-2298.286494
527.957894,4737.318029,9474.636058,-1455.581446
527.958215,6661.853478,7179.997637,1225.752797
527.958535,6883.915261,6661.853478,2451.505594
527.958856,4737.318029,8068.244768,536.266849
527.959176,3330.926739,8882.471304,-2451.505594
527.959497,4441.235652,8290.306550,-2834.553343
527.959817,6809.894666,7550.100608,229.828649
527.960138,8068.244768,7476.080014,2451.505594
527.960459,6809.894666,7624.121203,536.266849
527.960779,3701.029710,8586.388927,-1608.800546
527.961100,4441.235652,9252.574275,-76.609550
527.961420,7031.956449,8512.368333,1762.019645
527.961741,8142.265362,7920.203579,1532.190996
527.962061,6735.874072,8290.306550,-76.609550
527.962382,3627.009116,7920.203579,-2911.162892
527.962703,3849.070898,9030.512492,-1532.190996
527.963023,4959.379811,8660.409521,766.095498
527.963344,5995.668130,7624.121203,919.314598
527.963664,6513.812290,8142.265362,0.000000
527.963985,3182.885551,9178.553681,-2298.286494
527.964305,1702.473667,9252.574275,-1072.533697
527.964626,4293.194464,8660.409521,1532.190996
527.964946,5625.565159,8438.347739,1608.800546
527.965267,4885.359217,8808.450710,383.047749
527.965588,3627.009116,9918.759623,-1378.971896
527.965908,1628.453072,9178.553681,-2604.724693
527.966229,2590.720797,8512.368333,0.000000
527.966549,4737.318029,8586.388927,2451.505594
527.966870,3627.009116,8882.471304,1685.410096
527.967190,3182.885551,9252.574275,-689.485948
527.967511,3627.009116,8734.430116,-1149.143247
527.967832,3552.988522,7994.224174,0.000000
527.968152,4071.132681,7772.162391,1455.581446
527.968473,4589.276840,8142.265362,536.266849
527.968793,3849.070898,6957.935855,-919.314598
527.969114,4441.235652,5551.544565,0.000000
527.969435,5403.503377,5625.565159,919.314598
527.969756,5921.647536,8068.244768,306.438199
527.970076,5329.482782,10436.903782,-842.705048
527.970397,4811.338623,9474.636058,-2451.505594
527.970718,7402.059420,7105.977043,-1532.190996
527.971039,8956.491898,5477.523971,1608.800546
527.971359,7698.141797,5551.544565,2068.457845
527.971680,5255.462188,6217.729913,-1149.143247
527.972001,4663.297435,6513.812290,-2757.943793
527.972322,5477.523971,6513.812290,-1762.019645
527.972642,7772.162391,5625.565159,229.828649
527.972963,8808.450710,6513.812290,153.219100
527.973284,6661.853478,9104.533087,-995.924147
527.973605,3330.926739,9696.697840,-2451.505594
527.973925,3997.112087,8142.265362,-1762.019645
527.974246,5699.585753,5625.565159,306.438199
527.974567,6439.791695,5625.565159,2681.334243
527.974888,5847.626942,9474.636058,2451.505594
527.975208,3404.947333,10362.883188,-919.314598
527.975529,3256.906145,9622.677246,-2221.676944
527.975850,5625.565159,8438.347739,-306.438199
527.976170,5921.647536,7105.977043,1378.971896
527.976491,5551.544565,7105.977043,2068.457845
527.976812,3108.864956,8586.388927,536.266849
527.977133,2590.720797,7994.224174,-1225.752797
527.977453,4589.276840,7550.100608,-153.219100
527.977774,5921.647536,7772.162391,842.705048
527.978095,6217.729913,9030.512492,536.266849
527.978416,6513.812290,10066.800811,229.828649
527.978736,6143.709319,8068.244768,-1225.752797
527.979057,6809.894666,6735.874072,-1838.629195
527.979378,7402.059420,6883.915261,-995.924147
527.979699,6143.709319,7994.224174,-1149.143247
527.980019,6069.688724,9622.677246,-2145.067394
527.980340,7550.100608,7920.203579,-1991.848295
527.980661,7476.080014,6439.791695,-1225.752797
527.980982,7105.977043,5625.565159,-229.828649
527.981302,5847.626942,9104.533087,383.047749
527.981623,3256.906145,9622.677246,-612.876398
527.981944,3034.844362,7402.059420,-1225.752797
527.982265,7402.059420,6439.791695,0.000000
527.982585,5699.585753,7179.997637,0.000000
527.982906,2738.761985,9622.677246,0.000000
527.983227,1776.494261,11177.109724,-766.095498
527.983547,1480.411884,9696.697840,-995.924147
527.983868,3552.988522,8142.265362,1225.752797
527.984189,4589.276840,8512.368333,2757.943793
527.984510,1036.288319,9548.656652,-229.828649
527.984830,-444.123565,10881.027347,-612.876398
527.985151,1110.308913,10066.800811,383.047749
527.985472,3923.091493,7328.038826,995.924147
527.985793,6143.709319,6957.935855,1455.581446
527.986113,4885.359217,9252.574275,229.828649
527.986434,2146.597232,10288.862594,-2451.505594
527.986755,3404.947333,9696.697840,-1838.629195
527.987076,6957.935855,7698.141797,842.705048
527.987396,8068.244768,5625.565159,1608.800546
527.987717,6513.812290,5921.647536,766.095498
527.988038,4737.318029,8512.368333,-1302.362347
527.988359,3701.029710,9474.636058,-2221.676944
527.988679,5847.626942,7772.162391,-995.924147
527.989000,8734.430116,5995.668130,-383.047749
527.989321,8216.285956,7105.977043,-1072.533697
527.989642,6661.853478,8586.388927,459.657299
527.989962,4737.318029,6957.935855,0.000000
527.990283,4737.318029,5847.626942,0.000000
527.990604,7328.038826,6957.935855,1072.533697
527.990925,6069.688724,8660.409521,459.657299
527.991245,4293.194464,8808.450710,-1532.190996
527.991566,5477.523971,8438.347739,-306.438199
527.991887,5403.503377,6587.832884,919.314598
527.992207,5033.400406,5921.647536,1455.581446
527.992528,4145.153275,6365.771101,689.485948
527.992849,2886.803174,7105.977043,-612.876398
527.993170,4145.153275,7624.121203,306.438199
527.993490,7105.977043,7698.141797,1072.533697
527.993811,7328.038826,8216.285956,306.438199
527.994132,6217.729913,9326.594869,-995.924147
527.994453,5329.482782,9992.780217,-1072.533697
527.994773,5107.421000,6735.874072,-536.266849
527.995094,7105.977043,4737.318029,1455.581446
527.995415,7476.080014,4737.318029,1378.971896
527.995736,5921.647536,7476.080014,-1225.752797
527.996056,4367.215058,9474.636058,-3294.210641
527.996377,6143.709319,8956.491898,-2145.067394
527.996698,8068.244768,7402.059420,0.000000
527.997019,8734.430116,6217.729913,1302.362347
527.997339,6143.709319,6587.832884,0.000000
527.997660,2516.700203,7772.162391,-2221.676944
527.997981,2738.761985,7994.224174,-1532.190996
527.998302,5995.668130,7698.141797,0.000000
527.998622,7254.018232,8512.368333,383.047749
527.998943,5107.421000,10510.924376,-995.924147
527.999264,2368.659014,11399.171507,-2068.457845
527.999584,1924.535449,9770.718434,-1149.143247
527.999905,3108.864956,8068.244768,689.485948
528.000226,4441.235652,7846.182985,1991.848295
528.000547,4145.153275,9622.677246,306.438199
528.000867,2368.659014,10510.924376,-1532.190996
528.001188,888.247130,9104.533087,-1302.362347
528.001509,3701.029710,8808.450710,1072.533697
528.001830,4737.318029,10066.800811,2145.067394
528.002150,1998.556043,10584.944971,153.219100
528.002471,2590.720797,9622.677246,-2298.286494
528.002792,2590.720797,7846.182985,-1991.848295
528.003113,2886.803174,7328.038826,-153.219100
528.003433,4145.153275,8216.285956,1991.848295
528.003754,4293.194464,10288.862594,842.705048
528.004075,2960.823768,10584.944971,-1915.238745
528.004396,4737.318029,9696.697840,-1378.971896
528.004716,5995.668130,7994.224174,-612.876398
528.005037,5699.585753,7402.059420,-766.095498
528.005358,4441.235652,7994.224174,-766.095498
528.005679,4737.318029,7402.059420,-1532.190996
528.005999,6291.750507,6439.791695,-766.095498
528.006320,7402.059420,5329.482782,229.828649
528.006641,6809.894666,6883.915261,-229.828649
528.006962,5551.544565,9548.656652,-1762.019645
528.007282,5329.482782,10140.821405,-1378.971896
528.007603,6957.935855,8216.285956,0.000000
528.007924,7772.162391,4367.215058,1072.533697
528.008244,7698.141797,4885.359217,1302.362347
528.008565,4515.256246,8142.265362,153.219100
528.008886,1406.391290,9770.718434,-1991.848295
528.009207,3849.070898,8734.430116,-995.924147
528.009527,7328.038826,6365.771101,0.000000
528.009848,7328.038826,6957.935855,1685.410096
528.010169,4885.359217,8660.409521,1915.238745
528.010490,1332.370696,8734.430116,-1302.362347
528.010810,1776.494261,8512.368333,-1302.362347
528.011131,4737.318029,6809.894666,1532.190996
528.011452,6439.791695,6365.771101,2987.772442
528.011773,5477.523971,7624.121203,1762.019645
528.012093,3997.112087,9400.615463,-766.095498
528.012414,3775.050304,8660.409521,-995.924147
528.012735,5551.544565,6513.812290,-766.095498
528.013056,7179.997637,5921.647536,-76.609550
528.013376,6957.935855,7179.997637,612.876398
528.013697,4885.359217,7994.224174,76.609550
528.014018,4293.194464,7846.182985,-689.485948
528.014339,6217.729913,7105.977043,-612.876398
528.014659,7920.203579,8364.327145,459.657299
528.014980,6291.750507,9474.636058,-766.095498
528.015301,4737.318029,9400.615463,-1991.848295
528.015621,4515.256246,8290.306550,-536.266849
528.015942,5181.441594,6513.812290,1149.143247
528.016263,4663.297435,6587.832884,1455.581446
528.016584,3256.906145,8660.409521,-536.266849
528.016904,2146.597232,10140.821405,-1378.971896
528.017225,3552.988522,10140.821405,153.219100
528.017546,5329.482782,8660.409521,1532.190996
528.017867,5033.400406,8142.265362,1225.752797
528.018187,2590.720797,8364.327145,306.438199
528.018508,1776.494261,9178.553681,-306.438199
528.018829,2442.679609,8586.388927,1378.971896
528.019150,5921.647536,7772.162391,2068.457845
528.019470,7402.059420,8290.306550,842.705048
528.019791,3478.967927,9104.533087,-1608.800546
528.020112,3034.844362,9918.759623,-2221.676944
528.020433,5477.523971,9474.636058,76.609550
528.020753,6217.729913,7328.038826,1302.362347
528.021074,7254.018232,6365.771101,536.266849
528.021395,6069.688724,6957.935855,-1302.362347
528.021716,2960.823768,8290.306550,-2451.505594
528.022036,3849.070898,9252.574275,0.000000
528.022357,5995.668130,7772.162391,1455.581446
528.022678,7624.121203,6661.853478,0.000000
528.022998,6513.812290,7994.224174,-1072.533697
528.023319,2886.803174,8068.244768,-2604.724693
528.023640,2590.720797,7179.997637,-2604.724693
528.023961,4959.379811,7328.038826,0.000000
528.024281,5625.565159,8068.244768,1072.533697
528.024602,5033.400406,9178.553681,0.000000
528.024923,3775.050304,9770.718434,-689.485948
528.025244,3108.864956,9178.553681,-919.314598
528.025564,4071.132681,7624.121203,612.876398
528.025885,5773.606348,6957.935855,689.485948
528.026206,4515.256246,7402.059420,-766.095498
528.026527,2812.782580,7031.956449,-1608.800546
528.026847,4441.235652,7328.038826,-383.047749
528.027168,5847.626942,8068.244768,842.705048
528.027489,5255.462188,8512.368333,1149.143247
528.027810,5107.421000,9252.574275,-536.266849
528.028130,4293.194464,8882.471304,-2068.457845
528.028451,5995.668130,8068.244768,0.000000
528.028772,7772.162391,6587.832884,2451.505594
528.029093,6735.874072,6439.791695,1072.533697
528.029413,4885.359217,7920.203579,-1685.410096
528.029734,4737.318029,8586.388927,-2145.067394
528.030055,4959.379811,7402.059420,-1072.533697
528.030376,8068.244768,7105.977043,1532.190996
528.030696,8290.306550,8586.388927,1608.800546
528.031017,5403.503377,9178.553681,-1455.581446
528.031338,3034.844362,8660.409521,-2451.505594
528.031658,4293.194464,8290.306550,-153.219100
528.031979,6587.832884,7698.141797,1915.238745
528.032300,6217.729913,7476.080014,2528.115143
528.032621,3849.070898,8882.471304,-459.657299
528.032941,2220.617826,10214.842000,-1991.848295
528.033262,3552.988522,9696.697840,-229.828649
528.033583,5625.565159,7994.224174,1378.971896
528.033904,5477.523971,7402.059420,1302.362347
528.034224,4071.132681,7994.224174,766.095498
528.034545,2220.617826,8734.430116,-306.438199
528.034866,3034.844362,8216.285956,842.705048
528.035187,5847.626942,7624.121203,2221.676944
528.035507,7105.977043,7846.182985,1455.581446
528.035828,5107.421000,8956.491898,-536.266849
528.036149,3997.112087,9696.697840,-1149.143247
528.036470,4515.256246,7772.162391,-536.266849
528.036790,7105.977043,5995.668130,689.485948
528.037111,6809.894666,6143.709319,612.876398
528.037432,4515.256246,8142.265362,-536.266849
528.037753,5107.421000,8364.327145,-1762.019645
528.038073,5847.626942,7550.100608,-1302.362347
528.038394,5921.647536,6217.729913,459.657299
528.038715,7476.080014,7476.080014,1149.143247
528.039035,4959.379811,8734.430116,-689.485948
528.039356,2886.803174,8438.347739,-2528.115143
528.039677,4959.379811,6217.729913,-2068.457845
528.039998,5847.626942,5033.400406,-459.657299
528.040318,5625.565159,6439.791695,766.095498
528.040639,4293.194464,9844.739029,766.095498
528.040960,2812.782580,9474.636058,-919.314598
528.041281,5181.441594,7772.162391,-229.828649
528.041601,7846.182985,6883.915261,1608.800546
528.041922,5403.503377,7476.080014,0.000000
528.042243,3404.947333,7920.203579,-1532.190996
528.042564,3330.926739,7994.224174,-1608.800546
528.042884,5921.647536,7105.977043,76.609550
528.043205,7179.997637,6439.791695,2374.896044
528.043526,7105.977043,7402.059420,689.485948
528.043847,4663.297435,9844.739029,-2451.505594
528.044167,3404.947333,11473.192101,-2604.724693
528.044488,5107.421000,9844.739029,0.000000
528.044809,8290.306550,7031.956449,1762.019645
528.045130,6735.874072,5847.626942,2451.505594
528.045450,3701.029710,9104.533087,536.266849
528.045771,1184.329507,10436.903782,-1225.752797
528.046092,2738.761985,9770.718434,-383.047749
528.046413,6217.729913,7772.162391,689.485948
528.046733,6587.832884,6883.915261,459.657299
528.047054,4589.276840,9178.553681,76.609550
528.047375,2146.597232,10881.027347,-536.266849
528.047695,1554.432478,9548.656652,-919.314598
528.048016,4737.318029,7179.997637,536.266849
528.048337,6439.791695,6735.874072,689.485948
528.048658,5551.544565,8438.347739,76.609550
528.048978,3997.112087,9622.677246,-1149.143247
528.049299,4737.318029,8438.347739,-1532.190996
528.049620,6587.832884,7624.121203,-1072.533697
528.049941,7105.977043,7105.977043,0.000000
528.050261,5773.606348,7105.977043,-612.876398
528.050582,5255.462188,7031.956449,-766.095498
528.050903,5403.503377,7254.018232,229.828649
528.051224,6439.791695,7476.080014,1455.581446
528.051544,6365.771101,7031.956449,-306.438199
528.051865,5551.544565,7698.141797,-1915.238745
528.052186,4589.276840,7624.121203,-1915.238745
528.052507,5329.482782,5995.668130,-995.924147
528.052827,6439.791695,5773.606348,0.000000
528.053148,5551.544565,7476.080014,383.047749
528.053469,3404.947333,9770.718434,-536.266849
528.053790,3034.844362,10214.842000,-1149.143247
528.054110,4367.215058,9252.574275,0.000000
528.054431,5699.585753,7624.121203,1378.971896
528.054752,4515.256246,8068.244768,306.438199
528.055072,1776.494261,8586.388927,-1991.848295
528.055393,1406.391290,8068.244768,-2221.676944
528.055714,3923.091493,7328.038826,612.876398
528.056035,6439.791695,7105.977043,3217.601092
528.056355,7105.977043,8586.388927,1991.848295
528.056676,3923.091493,9326.594869,-2068.457845
528.056997,2442.679609,8882.471304,-3294.210641
528.057318,5403.503377,7624.121203,306.438199
528.057638,9326.594869,6143.709319,2757.943793
528.057959,8512.368333,5551.544565,1685.410096
528.058280,7031.956449,7179.997637,-1685.410096
528.058601,4737.318029,7254.018232,-2911.162892
528.058921,5847.626942,7698.141797,-1149.143247
528.059242,8660.409521,7179.997637,1302.362347
528.059563,9104.533087,7772.162391,689.485948
528.059884,7920.203579,9178.553681,-2221.676944
528.060204,5847.626942,8734.430116,-1915.238745
528.060525,4293.194464,6661.853478,-1685.410096
528.060846,5847.626942,6069.688724,153.219100
528.061167,5477.523971,7179.997637,2221.676944
528.061487,3923.091493,9400.615463,995.924147
528.061808,3997.112087,9770.718434,-459.657299
528.062129,4885.359217,8808.450710,-689.485948
528.062449,4737.318029,8216.285956,-536.266849
528.062770,3552.988522,8734.430116,306.438199
528.063091,3256.906145,8660.409521,153.219100
528.063412,2664.741391,8734.430116,229.828649
528.063732,3552.988522,7105.977043,1378.971896
528.064053,4737.318029,8734.430116,2221.676944
528.064374,3627.009116,10362.883188,842.705048
528.064695,1850.514855,11103.089130,-1149.143247
528.065015,2664.741391,9622.677246,-1378.971896
528.065336,5255.462188,6291.750507,-306.438199
528.065657,6513.812290,5181.441594,1455.581446
528.065978,5477.523971,6735.874072,1455.581446
528.066298,2442.679609,8660.409521,-2221.676944
528.066619,3552.988522,8882.471304,-2911.162892
528.066940,7031.956449,7624.121203,-612.876398
528.067261,9918.759623,7105.977043,1685.410096
528.067581,9474.636058,8142.265362,1225.752797
528.067902,6217.729913,8734.430116,-1762.019645
528.068227,4441.235652,7994.224174,-3217.601092
528.068548,5107.421000,5255.462188,-1149.143247
528.068869,7772.162391,4367.215058,153.219100
528.069189,7105.977043,6291.750507,1225.752797
528.069510,4441.235652,9844.739029,-842.705048
528.069831,3108.864956,11251.130318,-2451.505594
528.070151,4737.318029,8734.430116,-1302.362347
528.070472,5773.606348,6735.874072,995.924147
528.070793,5107.421000,8290.306550,2068.457845
528.071114,2072.576638,8438.347739,383.047749
528.071434,962.267725,8956.491898,-536.266849
528.071755,2738.761985,8216.285956,1149.143247
528.072076,4145.153275,7994.224174,612.876398
528.072397,4589.276840,9104.533087,76.609550
528.072717,3404.947333,9918.759623,-995.924147
528.073038,3330.926739,10066.800811,-1608.800546
528.073359,5181.441594,8512.368333,0.000000
528.073680,6513.812290,7254.018232,1225.752797
528.074000,5699.585753,7698.141797,612.876398
528.074321,4737.318029,9696.697840,-306.438199
528.074642,4885.359217,9326.594869,-842.705048
528.074962,7031.956449,6439.791695,612.876398
528.075283,8512.368333,5699.585753,995.924147
528.075604,7846.182985,7624.121203,-306.438199
528.075925,4441.235652,9326.594869,-2221.676944
528.076245,5255.462188,8660.409521,-2451.505594
528.076566,8290.306550,6661.853478,-919.314598
528.076887,8216.285956,5625.565159,766.095498
528.077208,6883.915261,6957.935855,153.219100
528.077528,4441.235652,9474.636058,-1149.143247
528.077849,3478.967927,9548.656652,-1685.410096
528.078170,5847.626942,7920.203579,0.000000
528.078491,6735.874072,5847.626942,383.047749
528.078811,4219.173869,6809.894666,-1455.581446
528.079132,1628.453072,9918.759623,-1072.533697
528.079453,1628.453072,10436.903782,0.000000
528.079773,3182.885551,8586.388927,383.047749
528.080094,4885.359217,7031.956449,1302.362347
528.080415,3923.091493,8142.265362,229.828649
528.080736,1776.494261,10881.027347,-612.876398
528.081056,1332.370696,10584.944971,0.000000
528.081377,3627.009116,7994.224174,306.438199
528.081698,6735.874072,5329.482782,919.314598
528.082019,6809.894666,6809.894666,459.657299
528.082339,3775.050304,9548.656652,-536.266849
528.082660,2590.720797,9178.553681,-1532.190996
528.082981,6143.709319,7994.224174,-766.095498
528.083302,9104.533087,6217.729913,995.924147
528.083622,7920.203579,6217.729913,229.828649
528.083943,6217.729913,8290.306550,-1225.752797
528.084264,4589.276840,8586.388927,-2068.457845
528.084584,5847.626942,7994.224174,-612.876398
528.084905,8068.244768,6883.915261,842.705048
528.085226,7698.141797,7254.018232,0.000000
528.085547,5033.400406,9104.533087,-1302.362347
528.085867,3108.864956,9844.739029,-612.876398
528.086188,4589.276840,9030.512492,229.828649
528.086509,5477.523971,7254.018232,1225.752797
528.086830,4589.276840,7328.038826,612.876398
528.087150,3923.091493,9030.512492,-766.095498
528.087471,1480.411884,9474.636058,-536.266849
528.087792,2738.761985,8586.388927,1455.581446
528.088113,5181.441594,7920.203579,2451.505594
528.088433,4663.297435,9474.636058,1225.752797
528.088754,2590.720797,10658.965565,-766.095498
528.089075,2738.761985,9770.718434,-1225.752797
528.089395,4071.132681,6957.935855,-612.876398
528.089716,5477.523971,5181.441594,1532.190996
528.090037,5181.441594,5921.647536,1225.752797
528.090358,3627.009116,8512.368333,-842.705048
528.090678,4219.173869,9622.677246,-995.924147
528.090999,6735.874072,8586.388927,306.438199
528.091320,9474.636058,6439.791695,1072.533697
528.091641,8438.347739,6365.771101,0.000000
528.091961,6217.729913,7550.100608,-1532.190996
528.092282,5181.441594,7105.977043,-2145.067394
528.092603,7031.956449,5773.606348,0.000000
528.092924,9178.553681,5477.523971,1455.581446
528.093244,7550.100608,7031.956449,-919.314598
528.093565,4589.276840,9474.636058,-3447.429741
528.093886,3478.967927,9696.697840,-3370.820191
528.094206,4737.318029,7698.141797,-1072.533697
528.094527,7328.038826,6513.812290,2068.457845
528.094848,5551.544565,7254.018232,1685.410096
528.095169,1184.329507,9474.636058,-1838.629195
528.095489,0.000000,10510.924376,-2604.724693
528.095810,1406.391290,9770.718434,-383.047749
528.096131,4367.215058,9696.697840,1762.019645
528.096452,4663.297435,10214.842000,1915.238745
528.096772,1628.453072,11029.068536,-1149.143247
528.097093,148.041188,10584.944971,-2298.286494
528.097414,1110.308913,9474.636058,-383.047749
528.097735,3108.864956,8586.388927,1838.629195
528.098055,3849.070898,8956.491898,1762.019645
528.098376,3034.844362,10658.965565,383.047749
528.098697,2812.782580,10066.800811,-76.609550
528.099017,4219.173869,9252.574275,1149.143247
528.099338,6143.709319,7402.059420,1532.190996
528.099659,5921.647536,7328.038826,0.000000
528.099980,4885.359217,7994.224174,-1608.800546
528.100300,4811.338623,8216.285956,-2221.676944
528.100621,7179.997637,7328.038826,-306.438199
528.100942,9104.533087,7846.182985,919.314598
528.101263,7550.100608,8882.471304,-689.485948
528.101583,4737.318029,9178.553681,-2757.943793
528.101904,5403.503377,8808.450710,-2145.067394
528.102225,6587.832884,6957.935855,612.876398
528.102546,7772.162391,4885.359217,1915.238745
528.102866,6883.915261,5921.647536,229.828649
528.103187,4219.173869,8586.388927,-2221.676944
528.103508,4145.153275,9104.533087,-2451.505594
528.103828,6217.729913,7105.977043,-383.047749
528.104149,7105.977043,4219.173869,1532.190996
528.104470,5625.565159,5995.668130,1838.629195
528.104791,3330.926739,10362.883188,153.219100
528.105111,1258.350101,9844.739029,-1608.800546
528.105432,5033.400406,7994.224174,-842.705048
528.105753,8882.471304,6809.894666,1532.190996
528.106074,5551.544565,7402.059420,766.095498
528.106394,2812.782580,7920.203579,-689.485948
528.106715,2516.700203,8734.430116,-1225.752797
528.107036,4441.235652,6883.915261,0.000000
528.107357,7254.018232,6069.688724,1991.848295
528.107677,7328.038826,6439.791695,766.095498
528.107998,4219.173869,8438.347739,-2604.724693
528.108319,2738.761985,8956.491898,-1685.410096
528.108639,5625.565159,7179.997637,459.657299
528.108960,8512.368333,6291.750507,842.705048
528.109281,7624.121203,7105.977043,612.876398
528.109602,4811.338623,8660.409521,-2451.505594
528.109922,4367.215058,9326.594869,-3600.648841
528.110243,5625.565159,8808.450710,-383.047749
528.110564,7328.038826,8142.265362,1149.143247
528.110885,7105.977043,7476.080014,766.095498
528.111205,5107.421000,9400.615463,-306.438199
528.111526,2294.638420,9918.759623,-1608.800546
528.111847,3404.947333,7920.203579,-383.047749
528.112167,5477.523971,6883.915261,1149.143247
528.112488,4959.379811,7624.121203,842.705048
528.112809,3330.926739,9252.574275,-306.438199
528.113130,3552.988522,9844.739029,-306.438199
528.113450,4515.256246,8438.347739,612.876398
528.113771,5033.400406,7994.224174,1455.581446
528.114092,4885.359217,9326.594869,689.485948
528.114413,2886.803174,9400.615463,-1455.581446
528.114733,3034.844362,9474.636058,-1225.752797
528.115054,4959.379811,8660.409521,766.095498
528.115375,5551.544565,7550.100608,1149.143247
528.115696,4737.318029,8364.327145,0.000000
528.116016,2664.741391,9992.780217,-2451.505594
528.116337,2368.659014,9326.594869,-1915.238745
528.116658,5255.462188,8438.347739,459.657299
528.116978,6143.709319,7179.997637,1762.019645
528.117299,5033.400406,8734.430116,306.438199
528.117620,3478.967927,10807.006753,-536.266849
528.117941,1776.494261,10214.842000,-1532.190996
528.118261,3923.091493,7328.038826,76.609550
528.118582,7105.977043,6513.812290,2451.505594
528.118903,5921.647536,7105.977043,1378.971896
528.119224,3034.844362,8512.368333,-919.314598
528.119544,2738.761985,8512.368333,-2374.896044
528.119865,4885.359217,6069.688724,-1225.752797
528.120186,7179.997637,5921.647536,1149.143247
528.120507,7179.997637,7846.182985,1532.190996
528.120827,3775.050304,9474.636058,-1302.362347
528.121148,2368.659014,8512.368333,-2298.286494
528.121469,5181.441594,6957.935855,0.000000
528.121789,7402.059420,6661.853478,2834.553343
528.122110,8216.285956,7550.100608,2528.115143
528.122431,5477.523971,8438.347739,-1225.752797
528.122752,2886.803174,6587.832884,-3447.429741
528.123072,5255.462188,5699.585753,-459.657299
528.123393,7994.224174,5847.626942,2451.505594
528.123714,6809.894666,6513.812290,1532.190996
528.124035,7254.018232,7402.059420,-919.314598
528.124355,5181.441594,6217.729913,-2374.896044
528.124676,5625.565159,5255.462188,-1532.190996
528.124997,7550.100608,5551.544565,1915.238745
528.125318,7105.977043,7772.162391,842.705048
528.125638,5181.441594,9474.636058,-1608.800546
528.125959,5625.565159,8956.491898,-2221.676944
528.126280,6513.812290,7328.038826,-1532.190996
528.126600,7031.956449,6439.791695,0.000000
528.126921,5625.565159,8882.471304,919.314598
528.127242,2590.720797,10140.821405,-1455.581446
528.127563,3108.864956,10288.862594,-1762.019645
528.127883,5329.482782,7105.977043,536.266849
528.128204,6883.915261,7105.977043,1915.238745
528.128525,3997.112087,8586.388927,919.314598
528.128846,1850.514855,10066.800811,-1455.581446
528.129166,2072.576638,9178.553681,-1762.019645
528.129487,4737.318029,7105.977043,689.485948
528.129808,7254.018232,6809.894666,2911.162892
528.130129,5921.647536,9548.656652,1378.971896
528.130449,2294.638420,11769.274478,-2068.457845
528.130770,1924.535449,11029.068536,-3140.991542
528.131091,5107.421000,8142.265362,-1302.362347
528.131411,8142.265362,7031.956449,1762.019645
528.131732,6365.771101,8734.430116,1608.800546
528.132053,3182.885551,10066.800811,-1302.362347
528.132374,2442.679609,9622.677246,-3064.381992
528.132694,5033.400406,7105.977043,-1302.362347
528.133015,6957.935855,6661.853478,1378.971896
528.133336,6661.853478,8068.244768,1378.971896
528.133657,4367.215058,9918.759623,-612.876398
528.133977,3552.988522,9622.677246,-1685.410096
528.134298,4737.318029,7624.121203,-995.924147
528.134619,6883.915261,6661.853478,612.876398
528.134940,5699.585753,8068.244768,383.047749
528.135260,3034.844362,9548.656652,-612.876398
528.135581,2812.782580,9474.636058,-766.095498
528.135902,4737.318029,8956.491898,306.438199
528.136222,4737.318029,7698.141797,1608.800546
528.136543,3404.947333,8142.265362,536.266849
528.136864,2960.823768,9030.512492,-1149.143247
528.137185,2590.720797,8364.327145,-306.438199
528.137505,5551.544565,6883.915261,1532.190996
528.137826,7031.956449,6365.771101,1915.238745
528.138147,5181.441594,8068.244768,0.000000
528.138468,3404.947333,9622.677246,-919.314598
528.138788,4737.318029,8290.306550,-229.828649
528.139109,7476.080014,6587.832884,536.266849
528.139430,7550.100608,5255.462188,689.485948
528.139751,5847.626942,6883.915261,-306.438199
528.140071,3849.070898,8216.285956,-1838.629195
528.140392,5625.565159,7920.203579,-536.266849
528.140713,7920.203579,5477.523971,1608.800546
528.141033,8290.306550,4145.153275,1149.143247
528.141354,6217.729913,6957.935855,-995.924147
528.141675,4145.153275,9770.718434,-1608.800546
528.141996,4219.173869,8586.388927,-612.876398
528.142316,8290.306550,5329.482782,383.047749
528.142637,9696.697840,5107.421000,229.828649
528.142958,5255.462188,7105.977043,-1149.143247
528.143279,2516.700203,10288.862594,-1838.629195
528.143599,2812.782580,9992.780217,-689.485948
528.143920,5329.482782,7624.121203,1072.533697
528.144241,7772.162391,7031.956449,2604.724693
528.144562,4959.379811,7550.100608,229.828649
528.144882,814.226536,9622.677246,-1685.410096
528.145203,814.226536,9252.574275,76.609550
528.145524,3775.050304,7328.038826,1302.362347
528.145844,6217.729913,6439.791695,1685.410096
528.146165,4959.379811,8586.388927,459.657299
528.146486,2812.782580,10732.986159,-2145.067394
528.146807,1924.535449,10288.862594,-2374.896044
528.147127,4737.318029,8142.265362,76.609550
528.147448,7846.182985,7698.141797,1762.019645
528.147769,6291.750507,8882.471304,612.876398
528.148090,3552.988522,10140.821405,-1991.848295
528.148410,3404.947333,10288.862594,-2604.724693
528.148731,6365.771101,7772.162391,-459.657299
528.149052,7328.038826,6957.935855,689.485948
528.149373,6069.688724,7624.121203,0.000000
528.149693,4515.256246,8882.471304,-2145.067394
528.150014,4515.256246,8956.491898,-1149.143247
528.150335,6069.688724,7994.224174,1378.971896
528.150655,7031.956449,6809.894666,842.705048
528.150976,5625.565159,7846.182985,0.000000
528.151297,3627.009116,9548.656652,-1838.629195
528.151618,3997.112087,8882.471304,-1455.581446
528.151938,5847.626942,6957.935855,1149.143247
528.152259,7031.956449,6587.832884,1608.800546
528.152580,4367.215058,8956.491898,-612.876398
528.152901,2590.720797,10955.047942,-2451.505594
528.153221,3701.029710,10066.800811,-1608.800546
528.153542,6513.812290,7328.038826,612.876398
528.153863,6957.935855,6217.729913,2298.286494
528.154184,4663.297435,7846.182985,459.657299
528.154504,1554.432478,9326.594869,-1838.629195
528.154825,2146.597232,9252.574275,-842.705048
528.155146,6217.729913,7550.100608,842.705048
528.155466,7846.182985,6365.771101,1762.019645
528.155787,5625.565159,7772.162391,0.000000
528.156108,2960.823768,8808.450710,-1608.800546
528.156429,3182.885551,7698.141797,-919.314598
528.156749,5921.647536,6291.750507,1532.190996
528.157070,8142.265362,6217.729913,2068.457845
528.157391,6291.750507,8290.306550,-459.657299
528.157712,3256.906145,10288.862594,-3064.381992
528.158032,3775.050304,9326.594869,-2451.505594
528.158353,6809.894666,6735.874072,842.705048
528.158674,9030.512492,5625.565159,2451.505594
528.158995,7179.997637,7105.977043,1072.533697
528.159315,2812.782580,7920.203579,-1915.238745
528.159636,1998.556043,7920.203579,-2298.286494
528.159957,5551.544565,8734.430116,306.438199
528.160277,7328.038826,8882.471304,2374.896044
528.160598,6291.750507,8438.347739,919.314598
528.160919,5329.482782,8142.265362,-1225.752797
528.161240,2590.720797,7254.018232,-1378.971896
528.161560,3108.864956,5699.585753,1378.971896
528.161881,4515.256246,5921.647536,2834.553343
528.162202,5329.482782,8290.306550,612.876398
528.162523,4293.194464,11029.068536,-1532.190996
528.162843,4811.338623,10881.027347,-1685.410096
528.163164,5625.565159,8216.285956,-689.485948
528.163485,5847.626942,6513.812290,612.876398
528.163806,4145.153275,7105.977043,1532.190996
528.164126,2738.761985,8364.327145,-1225.752797
528.164447,3775.050304,7994.224174,-1838.629195
528.164768,6809.894666,8364.327145,0.000000
528.165088,7624.121203,8586.388927,383.047749
528.165409,5477.523971,9992.780217,-459.657299
528.165730,3404.947333,10584.944971,-1762.019645
528.166051,3701.029710,8216.285956,-995.924147
528.166371,5699.585753,5921.647536,2145.067394
528.166692,7179.997637,6217.729913,2987.772442
528.167013,3849.070898,8734.430116,153.219100
528.167334,1776.494261,10362.883188,-2528.115143
528.167654,3404.947333,9326.594869,-2604.724693
528.167975,6069.688724,7698.141797,383.047749
528.168296,7846.182985,7254.018232,2298.286494
528.168617,5255.462188,8660.409521,1149.143247
528.168937,2294.638420,10066.800811,-2451.505594
528.169258,1998.556043,8956.491898,-2757.943793
528.169579,5181.441594,7328.038826,229.828649
528.169899,7846.182985,7105.977043,1762.019645
528.170220,5847.626942,9326.594869,1225.752797
528.170541,3108.864956,9696.697840,-919.314598
528.170862,3256.906145,8882.471304,-1915.238745
528.171182,5329.482782,7402.059420,-153.219100
528.171503,6587.832884,6291.750507,1225.752797
528.171824,5699.585753,7105.977043,306.438199
528.172145,4219.173869,8142.265362,-1149.143247
528.172465,4145.153275,9030.512492,-995.924147
528.172786,6587.832884,8586.388927,76.609550
528.173107,5921.647536,7920.203579,0.000000
528.173428,4589.276840,9030.512492,-919.314598
528.173748,4293.194464,9400.615463,-919.314598
528.174069,4959.379811,8512.368333,-689.485948
528.174390,6365.771101,7402.059420,153.219100
528.174710,6587.832884,6809.894666,229.828649
528.175031,4219.173869,8142.265362,-766.095498
528.175352,2960.823768,9326.594869,-536.266849
528.175673,4071.132681,7550.100608,1149.143247
528.175993,7031.956449,6587.832884,1149.143247
528.176314,7105.977043,6735.874072,1149.143247
528.176635,3775.050304,7846.182985,-1455.581446
528.176956,3627.009116,8512.368333,-1762.019645
528.177276,6365.771101,7179.997637,153.219100
528.177597,7624.121203,5329.482782,2298.286494
528.177918,7105.977043,4737.318029,536.266849
528.178239,5773.606348,8808.450710,-1378.971896
528.178559,3701.029710,11547.212695,-1608.800546
528.178880,4589.276840,9252.574275,-229.828649
528.179201,9770.718434,5329.482782,766.095498
528.179521,9252.574275,4441.235652,689.485948
528.179842,4071.132681,6291.750507,-766.095498
528.180163,1924.535449,8364.327145,-1378.971896
528.180484,3256.906145,8734.430116,-1532.190996
528.180804,6217.729913,7254.018232,153.219100
528.181125,8216.285956,7476.080014,1685.410096
528.181446,5773.606348,9326.594869,0.000000
528.181767,1480.411884,10658.965565,-1302.362347
528.182087,1110.308913,9326.594869,76.609550
528.182408,3849.070898,6735.874072,1072.533697
528.182729,6069.688724,6439.791695,1455.581446
528.183050,3849.070898,8956.491898,459.657299
528.183370,1036.288319,10881.027347,-2374.896044
528.183691,740.205942,10658.965565,-2298.286494
528.184012,4811.338623,9992.780217,919.314598
528.184333,5403.503377,8364.327145,1915.238745
528.184653,4367.215058,8586.388927,459.657299
528.184974,3108.864956,9918.759623,-995.924147
528.185295,1924.535449,9770.718434,-842.705048
528.185615,4071.132681,7994.224174,306.438199
528.185936,6291.750507,6957.935855,995.924147
528.186257,6217.729913,8290.306550,-153.219100
528.186578,4885.359217,10066.800811,-1455.581446
528.186898,4219.173869,9178.553681,-995.924147
528.187219,5847.626942,7476.080014,-153.219100
528.187540,7846.182985,7031.956449,1225.752797
528.187861,6069.688724,8734.430116,306.438199
528.188181,4367.215058,9474.636058,-1455.581446
528.188502,5551.544565,8364.327145,-1608.800546
528.188823,6735.874072,6957.935855,536.266849
528.189144,6365.771101,7031.956449,1378.971896
528.189464,4885.359217,7994.224174,0.000000
528.189785,3182.885551,9326.594869,-2145.067394
528.190106,3775.050304,8216.285956,-1378.971896
528.190426,6957.935855,6143.709319,1532.190996
528.190747,7105.977043,6883.915261,1838.629195
528.191068,3923.091493,8734.430116,0.000000
528.191389,1628.453072,10362.883188,-1532.190996
528.191709,2442.679609,8808.450710,-689.485948
528.192030,5477.523971,6587.832884,1302.362347
528.192351,6957.935855,5921.647536,2298.286494
528.192672,6217.729913,7846.182985,76.609550
528.192992,2886.803174,8808.450710,-2834.553343
528.193313,2812.782580,8142.265362,-2374.896044
528.193634,6809.894666,6143.709319,689.485948
528.193955,9326.594869,5995.668130,2834.553343
528.194275,6661.853478,7772.162391,995.924147
528.194596,4589.276840,8734.430116,-1455.581446
528.194917,4293.194464,7846.182985,-2145.067394
528.195238,6735.874072,5773.606348,153.219100
528.195558,9474.636058,4663.297435,1991.848295
528.195879,9400.615463,6291.750507,689.485948
528.196200,4737.318029,6957.935855,-1532.190996
528.196520,3330.926739,7179.997637,-2681.334243
528.196841,6587.832884,7994.224174,-76.609550
528.197162,7105.977043,8512.368333,919.314598
528.197483,6069.688724,9326.594869,536.266849
528.197803,6365.771101,9178.553681,-1302.362347
528.198124,3404.947333,7402.059420,-2068.457845
528.198445,3108.864956,6069.688724,536.266849
528.198766,4219.173869,7105.977043,2374.896044
528.199086,3330.926739,9770.718434,0.000000
528.199407,1406.391290,11695.253884,-1455.581446
528.199728,3478.967927,11029.068536,-1149.143247
528.200049,4811.338623,8364.327145,-153.219100
528.200369,4367.215058,8290.306550,2298.286494
528.200690,2368.659014,9400.615463,1455.581446
528.201011,1554.432478,9770.718434,-995.924147
528.201331,3182.885551,8586.388927,-306.438199
528.201652,5773.606348,7550.100608,0.000000
528.201973,5107.421000,7698.141797,306.438199
528.202294,3478.967927,9474.636058,-536.266849
528.202614,3478.967927,10881.027347,-1608.800546
528.202935,4589.276840,8068.244768,-612.876398
528.203256,8068.244768,5255.462188,536.266849
528.203577,9474.636058,7328.038826,995.924147
528.203897,4811.338623,9992.780217,-1302.362347
528.204218,3034.844362,10732.986159,-2604.724693
528.204539,5625.565159,8216.285956,-1838.629195
528.204860,8142.265362,5551.544565,76.609550
528.205180,8512.368333,6513.812290,1915.238745
528.205501,4367.215058,7698.141797,-153.219100
528.205822,1850.514855,8882.471304,-3677.258390
528.206142,3330.926739,8808.450710,-2451.505594
528.206463,6291.750507,7402.059420,1072.533697
528.206784,7994.224174,6735.874072,1915.238745
528.207105,5477.523971,8364.327145,229.828649
528.207425,1332.370696,10510.924376,-842.705048
528.207746,1628.453072,9030.512492,-536.266849
528.208067,4367.215058,6809.894666,766.095498
528.208388,6217.729913,6587.832884,1608.800546
528.208708,5255.462188,7550.100608,76.609550
528.209029,4071.132681,8512.368333,-919.314598
528.209350,4145.153275,8068.244768,-995.924147
528.209671,5773.606348,6809.894666,306.438199
528.209991,6957.935855,6513.812290,229.828649
528.210312,5847.626942,7550.100608,-459.657299
528.210633,5255.462188,8438.347739,-612.876398
528.210954,6587.832884,7328.038826,842.705048
528.211274,8734.430116,5847.626942,919.314598
528.211595,8290.306550,5329.482782,-306.438199
528.211916,7105.977043,7772.162391,-2451.505594
528.212236,4811.338623,8956.491898,-1838.629195
528.212557,5773.606348,7624.121203,-153.219100
528.212878,7994.224174,6439.791695,1149.143247
528.213199,6809.894666,7105.977043,842.705048
528.213519,3775.050304,9326.594869,-766.095498
528.213840,1924.535449,9622.677246,-1762.019645
528.214161,3997.112087,7772.162391,76.609550
528.214482,6513.812290,6069.688724,2298.286494
528.214802,4959.379811,6217.729913,1685.410096
528.215123,2294.638420,9400.615463,0.000000
528.215444,518.144159,12509.480420,-1302.362347
528.215765,1406.391290,10584.944971,-383.047749
528.216085,5625.565159,7179.997637,1685.410096
528.216406,8290.306550,7328.038826,1915.238745
528.216727,3108.864956,9104.533087,0.000000
528.217047,74.020594,9548.656652,-2604.724693
528.217368,1924.535449,8586.388927,-1455.581446
528.217689,6513.812290,6957.935855,1072.533697
528.218010,8142.265362,7105.977043,2911.162892
528.218330,6661.853478,8364.327145,459.657299
528.218651,3627.009116,8808.450710,-3677.258390
528.218972,3552.988522,7476.080014,-2068.457845
528.219293,6735.874072,5773.606348,1149.143247
528.219613,9474.636058,5107.421000,1149.143247
528.219934,7772.162391,7031.956449,-612.876398
528.220255,5329.482782,9474.636058,-3600.648841
528.220576,3775.050304,9474.636058,-3064.381992
528.220896,5403.503377,7105.977043,-153.219100
528.221217,7698.141797,7624.121203,1149.143247
528.221538,5107.421000,7994.224174,612.876398
528.221858,1406.391290,8438.347739,-1915.238745
528.222179,3182.885551,8512.368333,-1225.752797
528.222500,4145.153275,8364.327145,306.438199
528.222821,4071.132681,8956.491898,1149.143247
528.223141,3404.947333,9844.739029,-383.047749
528.223462,2960.823768,10732.986159,-2221.676944
528.223783,3034.844362,9844.739029,383.047749
528.224104,3997.112087,7402.059420,3064.381992
528.224424,4737.318029,7402.059420,1685.410096
528.224745,3182.885551,8438.347739,-536.266849
528.225066,2072.576638,10288.862594,-995.924147
528.225387,5107.421000,8660.409521,-766.095498
528.225707,7920.203579,6069.688724,306.438199
528.226028,8142.265362,6439.791695,612.876398
528.226349,5847.626942,8512.368333,-153.219100
528.226670,4071.132681,8882.471304,-1455.581446
528.226990,5551.544565,7698.141797,-1378.971896
528.227311,9622.677246,5995.668130,689.485948
528.227632,9992.780217,5995.668130,1378.971896
528.227952,7179.997637,7994.224174,0.000000
528.228273,4071.132681,8734.430116,-2068.457845
528.228594,4737.318029,7550.100608,-1762.019645
528.228915,8290.306550,5625.565159,76.609550
528.229235,8068.244768,5847.626942,1608.800546
528.229556,5847.626942,7920.203579,383.047749
528.229877,3552.988522,9622.677246,-1532.190996
528.230198,3182.885551,8438.347739,-1685.410096
528.230518,5699.585753,6661.853478,0.000000
528.230839,7031.956449,6957.935855,2145.067394
528.231160,4145.153275,8364.327145,1072.533697
528.231481,1036.288319,9918.759623,-995.924147
528.231801,1184.329507,8512.368333,-995.924147
528.232122,4737.318029,7105.977043,0.000000
528.232443,5921.647536,7920.203579,1685.410096
528.232763,4663.297435,10066.800811,612.876398
528.233084,3108.864956,9474.636058,-1302.362347
528.233405,3108.864956,5995.668130,-1378.971896
528.233726,5403.503377,4589.276840,1608.800546
528.234046,6957.935855,7402.059420,2911.162892
528.234367,4071.132681,8882.471304,0.000000
528.234688,4145.153275,9474.636058,-2528.115143
528.235009,7179.997637,8512.368333,-2145.067394
528.235329,7476.080014,6513.812290,-459.657299
528.235650,7328.038826,5551.544565,0.000000
528.235971,5255.462188,7994.224174,-1302.362347
528.236292,4145.153275,10066.800811,-2451.505594
528.236612,5033.400406,9844.739029,-919.314598
528.236933,7179.997637,8142.265362,229.828649
528.237254,5921.647536,7920.203579,-229.828649
528.237575,3627.009116,9474.636058,-689.485948
528.237895,1258.350101,10140.821405,-536.266849
528.238216,2590.720797,8956.491898,-306.438199
528.238537,4737.318029,7105.977043,1608.800546
528.238857,4885.359217,8142.265362,536.266849
528.239178,2072.576638,10362.883188,-766.095498
528.239499,-148.041188,11917.315666,-1225.752797
528.239820,2220.617826,10955.047942,0.000000
528.240140,5255.462188,7846.182985,1838.629195
528.240461,5551.544565,7550.100608,2451.505594
528.240782,3923.091493,10288.862594,919.314598
528.241103,1332.370696,10658.965565,-1608.800546
528.241423,2812.782580,9104.533087,-1685.410096
528.241744,6439.791695,7179.997637,76.609550
528.242065,8734.430116,6661.853478,842.705048
528.242386,7328.038826,8438.347739,1532.190996
528.242706,4441.235652,8956.491898,229.828649
528.243027,4367.215058,7550.100608,-1608.800546
528.243348,7179.997637,5847.626942,-766.095498
528.243668,8290.306550,5921.647536,1225.752797
528.243989,7254.018232,7105.977043,766.095498
528.244310,5995.668130,7476.080014,-1149.143247
528.244631,5921.647536,6661.853478,-1685.410096
528.244951,6513.812290,6365.771101,-76.609550
528.245272,7031.956449,7402.059420,612.876398
528.245593,5033.400406,8956.491898,-766.095498
528.245914,3034.844362,8882.471304,-2145.067394
528.246234,4293.194464,7402.059420,-536.266849
528.246555,6513.812290,6217.729913,1302.362347
528.246876,5033.400406,7254.018232,1378.971896
528.247197,2368.659014,9844.739029,-383.047749
528.247517,222.061783,9548.656652,-2374.896044
528.247838,2368.659014,7772.162391,-612.876398
528.248159,5625.565159,7031.956449,3524.039291
528.248479,6143.709319,7846.182985,2681.334243
528.248800,3330.926739,9770.718434,-536.266849
528.249121,1554.432478,9400.615463,-3753.867940
528.249442,4071.132681,7179.997637,-842.705048
528.249762,6957.935855,5551.544565,3677.258390
528.250083,7105.977043,6365.771101,2757.943793
528.250404,5477.523971,9030.512492,-689.485948
528.250725,3997.112087,9992.780217,-3140.991542
528.251045,5921.647536,8734.430116,-1685.410096
528.251366,9400.615463,6069.688724,1762.019645
528.251687,10214.842000,5181.441594,1685.410096
528.252008,6957.935855,6587.832884,-536.266849
528.252328,3627.009116,7550.100608,-2451.505594
528.252649,4663.297435,8068.244768,-1225.752797
528.252970,7105.977043,6587.832884,1225.752797
528.253291,8290.306550,6809.894666,229.828649
528.253611,7698.141797,9252.574275,-689.485948
528.253932,2886.803174,10140.821405,-2221.676944
528.254253,2294.638420,8142.265362,-1608.800546
528.254573,4367.215058,6513.812290,306.438199
528.254894,5995.668130,7772.162391,1225.752797
528.255215,3404.947333,10362.883188,536.266849
528.255536,1480.411884,11991.336260,-1302.362347
528.255856,1776.494261,9918.759623,-1915.238745
528.256177,3552.988522,8364.327145,153.219100
528.256498,4071.132681,7994.224174,1838.629195
528.256819,2812.782580,10288.862594,689.485948
528.257139,888.247130,11103.089130,-612.876398
528.257460,2294.638420,9918.759623,-919.314598
528.257781,4589.276840,7846.182985,383.047749
528.258102,5107.421000,7994.224174,1991.848295
528.258422,4071.132681,10362.883188,1225.752797
528.258743,2294.638420,10140.821405,-306.438199
528.259064,4441.235652,7179.997637,-306.438199
528.259384,7772.162391,5625.565159,1378.971896
528.259705,7179.997637,7179.997637,842.705048
528.260026,4885.359217,9104.533087,-1149.143247
528.260347,3478.967927,8734.430116,-2911.162892
528.260667,6809.894666,6957.935855,-2451.505594
528.260988,9326.594869,6587.832884,1149.143247
528.261309,8364.327145,6957.935855,1915.238745
528.261630,4737.318029,9252.574275,-1532.190996
528.261950,3108.864956,9992.780217,-3294.210641
528.262271,3701.029710,7920.203579,-1762.019645
528.262592,7031.956449,4885.359217,1149.143247
528.262913,7254.018232,5477.523971,995.924147
528.263233,3404.947333,8956.491898,-689.485948
528.263554,222.061783,10732.986159,-1685.410096
528.263875,1998.556043,9030.512492,-1072.533697
528.264195,6069.688724,7031.956449,1225.752797
528.264516,6439.791695,7550.100608,2451.505594
528.264837,3627.009116,8808.450710,766.095498
528.265158,2442.679609,9622.677246,-1149.143247
528.265478,3256.906145,7402.059420,0.000000
528.265799,5847.626942,6513.812290,1072.533697
528.266120,7254.018232,6809.894666,1225.752797
528.266441,4959.379811,8882.471304,-612.876398
528.266761,3256.906145,8956.491898,-1762.019645
528.267082,6217.729913,7105.977043,-1072.533697
528.267403,8586.388927,5551.544565,919.314598
528.267724,7920.203579,5033.400406,842.705048
528.268044,5033.400406,7476.080014,-612.876398
528.268365,3849.070898,8882.471304,-1762.019645
528.268686,5107.421000,7772.162391,-612.876398
528.269007,7846.182985,6217.729913,1225.752797
528.269327,8586.388927,6957.935855,-76.609550
528.269648,6069.688724,9104.533087,-1915.238745
528.269969,2960.823768,9252.574275,-2451.505594
528.270289,6143.709319,6809.894666,-766.095498
528.270610,7994.224174,4885.359217,919.314598
528.270930,6957.935855,6439.791695,1762.019645
528.271251,4367.215058,11029.068536,0.000000
528.271572,2072.576638,12435.459826,-1991.848295
528.271892,3923.091493,9474.636058,-842.705048
528.272213,8586.388927,5921.647536,1838.629195
528.272533,6957.935855,6069.688724,1608.800546
528.272854,2072.576638,8142.265362,-766.095498
528.273175,296.082377,10066.800811,-1532.190996
528.273495,2664.741391,9326.594869,-229.828649
528.273816,6587.832884,8512.368333,2604.724693
528.274136,8216.285956,9548.656652,3064.381992
528.274457,3923.091493,10955.047942,-995.924147
528.274777,888.247130,9918.759623,-3217.601092
528.275098,2886.803174,7698.141797,-229.828649
528.275419,5995.668130,4959.379811,842.705048
528.275739,6661.853478,5625.565159,1991.848295
528.276060,4515.256246,9400.615463,-1149.143247
528.276380,2072.576638,11177.109724,-4519.963438
528.276701,2442.679609,10066.800811,-2987.772442
528.277022,7105.977043,7772.162391,919.314598
528.277342,7105.977043,7031.956449,1991.848295
528.277663,4145.153275,7846.182985,306.438199
528.277983,3256.906145,9770.718434,-1608.800546
528.278304,3330.926739,9252.574275,-2145.067394
528.278624,4441.235652,7254.018232,-612.876398
528.278945,6809.894666,7920.203579,306.438199
528.279266,5255.462188,10066.800811,-459.657299
528.279586,2812.782580,10881.027347,-842.705048
528.279907,3108.864956,8068.244768,0.000000
528.280227,5033.400406,5181.441594,0.000000
528.280548,5033.400406,5699.585753,1225.752797
528.280868,3627.009116,9030.512492,919.314598
528.281189,3182.885551,10066.800811,-995.924147
528.281510,5255.462188,9030.512492,-612.876398
528.281830,7846.182985,6809.894666,1149.143247
528.282151,7105.977043,7328.038826,1608.800546
528.282471,4737.318029,9030.512492,383.047749
528.282792,3627.009116,9326.594869,-842.705048
528.283113,5181.441594,6439.791695,-2145.067394
528.283433,8586.388927,4811.338623,383.047749
528.283754,9104.533087,6069.688724,1915.238745
528.284074,5551.544565,9252.574275,0.000000
528.284395,3627.009116,9474.636058,-1915.238745
528.284715,5181.441594,7476.080014,-1532.190996
528.285036,7476.080014,4737.318029,689.485948
528.285357,8512.368333,5625.565159,1991.848295
528.285677,6513.812290,8068.244768,0.000000
528.285998,3404.947333,9178.553681,-2451.505594
528.286318,4293.194464,7624.121203,-2987.772442
528.286639,6957.935855,5699.585753,0.000000
528.286960,7698.141797,6217.729913,1991.848295
528.287280,5403.503377,9474.636058,1149.143247
528.287601,2220.617826,10881.027347,-842.705048
528.287921,2886.803174,9030.512492,-2068.457845
528.288242,5847.626942,7179.997637,0.000000
528.288562,6883.915261,6661.853478,2221.676944
528.288883,4737.318029,7402.059420,1455.581446
528.289204,2220.617826,7105.977043,-1225.752797
528.289524,2442.679609,6365.771101,-1378.971896
528.289845,5329.482782,7698.141797,995.924147
528.290165,5625.565159,9696.697840,1685.410096
528.290486,5107.421000,11399.171507,-229.828649
528.290806,5403.503377,10881.027347,-1838.629195
528.291127,4219.173869,8068.244768,-1302.362347
528.291448,5551.544565,4959.379811,153.219100
528.291768,5995.668130,6143.709319,612.876398
528.292089,4071.132681,8660.409521,-1149.143247
528.292409,2886.803174,9992.780217,-2298.286494
528.292730,5255.462188,9474.636058,-1991.848295
528.293051,7254.018232,7624.121203,-842.705048
528.293371,6587.832884,8882.471304,1072.533697
528.293692,4367.215058,9918.759623,229.828649
528.294012,2738.761985,9992.780217,-1762.019645
528.294333,4145.153275,6735.874072,-766.095498
528.294653,5847.626942,5699.585753,153.219100
528.294974,4959.379811,7105.977043,459.657299
528.295295,2886.803174,11473.192101,0.000000
528.295615,1998.556043,13101.645173,-1455.581446
528.295936,3182.885551,9178.553681,-1072.533697
528.296256,7179.997637,5995.668130,612.876398
528.296577,7254.018232,8142.265362,1685.410096
528.296898,2368.659014,11103.089130,76.609550
528.297218,592.164754,10807.006753,-1685.410096
528.297539,3552.988522,7105.977043,-842.705048
528.297859,7698.141797,5995.668130,1762.019645
528.298180,7846.182985,9400.615463,3294.210641
528.298500,3627.009116,11621.233289,0.000000
528.298821,1480.411884,10510.924376,-3447.429741
528.299142,5107.421000,7920.203579,-1225.752797
528.299462,7254.018232,4885.359217,2451.505594
528.299783,8290.306550,5107.421000,3064.381992
528.300103,5255.462188,7254.018232,153.219100
528.300424,2516.700203,9696.697840,-2757.943793
528.300745,3849.070898,7846.182985,-1455.581446
528.301065,8438.347739,6143.709319,1072.533697
528.301386,9252.574275,6365.771101,1072.533697
528.301706,6661.853478,7920.203579,-229.828649
528.302027,3849.070898,8808.450710,-2221.676944
528.302347,5107.421000,6143.709319,-1991.848295
528.302668,7550.100608,3775.050304,306.438199
528.302989,7920.203579,4589.276840,1302.362347
528.303309,5329.482782,8364.327145,-459.657299
528.303630,2590.720797,9474.636058,-1378.971896
528.303950,4589.276840,7994.224174,-536.266849
528.304271,8364.327145,6439.791695,1838.629195
528.304591,6735.874072,6439.791695,1685.410096
528.304912,3478.967927,8808.450710,-459.657299
528.305233,1406.391290,8586.388927,-1378.971896
528.305553,2960.823768,6883.915261,306.438199
528.305874,6217.729913,5625.565159,2604.724693
528.306194,6587.832884,7550.100608,1915.238745
528.306515,4293.194464,10955.047942,-766.095498
528.306836,2294.638420,11843.295072,-2451.505594
528.307156,4293.194464,8438.347739,-1149.143247
528.307477,7994.224174,4663.297435,1225.752797
528.307797,8216.285956,5403.503377,2145.067394
528.308118,4145.153275,8956.491898,536.266849
528.308438,2664.741391,10288.862594,-2298.286494
528.308759,4145.153275,8882.471304,-2221.676944
528.309080,7772.162391,7105.977043,153.219100
528.309400,9030.512492,8660.409521,2068.457845
528.309721,5699.585753,10732.986159,0.000000
528.310041,2516.700203,9770.718434,-3064.381992
528.310362,4589.276840,7031.956449,-1991.848295
528.310683,7105.977043,5551.544565,1149.143247
528.311003,6513.812290,6661.853478,2681.334243
528.311324,3256.906145,9548.656652,1149.143247
528.311644,2220.617826,10881.027347,-2374.896044
528.311965,3923.091493,9326.594869,-2298.286494
528.312285,6957.935855,7328.038826,76.609550
528.312606,6365.771101,7105.977043,1072.533697
528.312927,3627.009116,7994.224174,-306.438199
528.313247,1628.453072,9474.636058,-1302.362347
528.313568,2590.720797,8808.450710,-842.705048
528.313888,5625.565159,7994.224174,1378.971896
528.314209,5699.585753,9178.553681,1149.143247
528.314529,3182.885551,10584.944971,-612.876398
528.314850,3108.864956,10140.821405,-2528.115143
528.315171,4441.235652,8216.285956,-1532.190996
528.315491,6735.874072,6365.771101,612.876398
528.315812,5995.668130,6957.935855,1915.238745
528.316132,3108.864956,8734.430116,76.609550
528.316453,2442.679609,9400.615463,-1685.410096
528.316774,6069.688724,8956.491898,-919.314598
528.317094,6883.915261,7402.059420,0.000000
528.317415,7105.977043,7772.162391,76.609550
528.317735,5625.565159,8956.491898,229.828649
528.318056,4293.194464,9326.594869,-306.438199
528.318376,5181.441594,6217.729913,612.876398
528.318697,8290.306550,4737.318029,1455.581446
528.319018,8512.368333,6365.771101,612.876398
528.319338,5477.523971,8734.430116,459.657299
528.319659,4959.379811,7402.059420,-153.219100
528.319979,8808.450710,4959.379811,536.266849
528.320300,10584.944971,1850.514855,1072.533697
528.320621,9548.656652,3404.947333,1072.533697
528.320941,8068.244768,5403.503377,-919.314598
528.321262,7476.080014,6217.729913,-2451.505594
528.321582,10066.800811,4885.359217,-1149.143247
528.321903,13397.727550,3330.926739,766.095498
528.322223,12953.603985,4589.276840,306.438199
528.322544,9474.636058,7328.038826,-689.485948
528.322865,7031.956449,7105.977043,-2374.896044
528.323185,9474.636058,4737.318029,-2374.896044
528.323506,11695.253884,2886.803174,612.876398
528.323826,10584.944971,3552.988522,919.314598
528.324147,7624.121203,6143.709319,-383.047749
528.324467,5329.482782,7179.997637,-2068.457845
528.324788,5921.647536,6587.832884,-842.705048
528.325109,9474.636058,4959.379811,1915.238745
528.325429,9178.553681,5551.544565,1455.581446
528.325750,6809.894666,7994.224174,-459.657299
528.326070,4737.318029,10066.800811,-1915.238745
528.326391,6883.915261,7476.080014,0.000000
528.326712,9178.553681,4219.173869,2528.115143
528.327032,11029.068536,3552.988522,3907.087040
528.327353,7920.203579,6291.750507,919.314598
528.327673,5847.626942,7179.997637,-1685.410096
528.327994,8142.265362,4959.379811,-1225.752797
528.328314,12953.603985,2738.761985,1149.143247
528.328635,13767.830521,2368.659014,1685.410096
528.328956,11843.295072,5255.462188,-383.047749
528.329276,9400.615463,7476.080014,-4136.915689
528.329597,9992.780217,6957.935855,-2604.724693
528.329917,12065.356855,4441.235652,1378.971896
528.330238,14063.912898,3256.906145,1915.238745
528.330559,12139.377449,5995.668130,-306.438199
528.330879,7772.162391,8512.368333,-2911.162892
528.331200,6957.935855,8438.347739,-3140.991542
528.331520,9104.533087,5255.462188,-689.485948
528.331841,9696.697840,2294.638420,1225.752797
528.332161,8512.368333,3478.967927,995.924147
528.332482,6069.688724,7031.956449,-1225.752797
528.332803,5403.503377,9548.656652,-2068.457845
528.333123,6587.832884,8438.347739,-766.095498
528.333444,8808.450710,5773.606348,1149.143247
528.333764,8956.491898,6143.709319,2145.067394
528.334085,6291.750507,7994.224174,842.705048
528.334406,4885.359217,8734.430116,-842.705048
528.334726,6809.894666,7328.038826,-689.485948
528.335047,8290.306550,5181.441594,459.657299
528.335367,9030.512492,4293.194464,2145.067394
528.335688,8512.368333,4737.318029,1532.190996
528.336008,7920.203579,5107.421000,-842.705048
528.336329,9474.636058,4589.276840,-995.924147
528.336650,11695.253884,3330.926739,-306.438199
528.336970,12139.377449,3627.009116,536.266849
528.337291,12731.542202,5995.668130,536.266849
528.337611,12065.356855,7328.038826,-229.828649
528.337932,11399.171507,5995.668130,-1378.971896
528.338252,10140.821405,3552.988522,-1991.848295
528.338573,10362.883188,2368.659014,-612.876398
528.338894,10436.903782,3849.070898,-153.219100
528.339214,10584.944971,5921.647536,-383.047749
528.339535,10362.883188,6513.812290,0.000000
528.339855,9104.533087,5403.503377,-229.828649
528.340176,7920.203579,4885.359217,229.828649
528.340497,7402.059420,3923.091493,1072.533697
528.340817,6883.915261,4219.173869,689.485948
528.341138,9104.533087,4959.379811,842.705048
528.341458,9400.615463,6883.915261,-306.438199
528.341779,7994.224174,7920.203579,-689.485948
528.342099,7105.977043,7402.059420,536.266849
528.342420,7550.100608,6661.853478,919.314598
528.342741,7920.203579,5255.462188,1685.410096
528.343061,8882.471304,3108.864956,1991.848295
528.343382,8586.388927,2590.720797,-306.438199
528.343702,8808.450710,3256.906145,-1225.752797
528.344023,10510.924376,4589.276840,76.609550
528.344344,12139.377449,7105.977043,689.485948
528.344664,12657.521608,5921.647536,-383.047749
528.344985,12509.480420,5181.441594,-2068.457845
528.345305,11621.233289,4959.379811,-1608.800546
528.345626,9474.636058,4441.235652,-76.609550
528.345946,9474.636058,3923.091493,383.047749
528.346267,10510.924376,4219.173869,-229.828649
528.346588,9474.636058,5773.606348,-1762.019645
528.346908,7994.224174,7476.080014,-1915.238745
528.347229,7624.121203,8290.306550,-1225.752797
528.347549,8142.265362,8290.306550,153.219100
528.347870,7698.141797,6735.874072,1685.410096
528.348190,6883.915261,5477.523971,995.924147
528.348511,6069.688724,5403.503377,383.047749
528.348832,4959.379811,5921.647536,229.828649
528.349152,5551.544565,6143.709319,306.438199
528.349473,7179.997637,6291.750507,153.219100
528.349793,8068.244768,6661.853478,-766.095498
528.350114,8438.347739,8142.265362,-1378.971896
528.350435,9178.553681,8290.306550,-1072.533697
528.350755,9992.780217,7846.182985,229.828649
528.351076,9770.718434,6143.709319,1302.362347
528.351396,9400.615463,4219.173869,1378.971896
528.351717,9918.759623,4589.276840,0.000000
528.352037,9844.739029,5403.503377,-1532.190996
528.352358,9844.739029,5107.421000,-1991.848295
528.352679,11029.068536,4811.338623,-1685.410096
528.352999,11399.171507,4071.132681,-1378.971896
528.353320,11177.109724,4367.215058,-766.095498
528.353640,10288.862594,5625.565159,-229.828649
528.353961,9992.780217,5995.668130,919.314598
528.354282,9770.718434,5551.544565,1225.752797
528.354602,10288.862594,4293.194464,919.314598
528.354923,9918.759623,3701.029710,-306.438199
528.355243,9548.656652,4663.297435,-842.705048
528.355564,8660.409521,6217.729913,-1225.752797
528.355884,9548.656652,6513.812290,-612.876398
528.356205,10214.842000,5699.585753,-153.219100
528.356526,9992.780217,4441.235652,0.000000
528.356846,9326.594869,3997.112087,689.485948
528.357167,8660.409521,3404.947333,919.314598
528.357487,8882.471304,2812.782580,842.705048
528.357808,10362.883188,2368.659014,1149.143247
528.358128,11325.150913,3256.906145,536.266849
528.358449,11251.130318,5403.503377,76.609550
528.358770,10584.944971,6587.832884,-1378.971896
528.359090,10881.027347,7179.997637,-1685.410096
528.359411,11695.253884,6217.729913,-919.314598
528.359731,11769.274478,5033.400406,-612.876398
528.360052,10881.027347,4737.318029,-536.266849
528.360373,9696.697840,4811.338623,459.657299
528.360693,8512.368333,4959.379811,842.705048
528.361014,9104.533087,4515.256246,2145.067394
528.361334,9696.697840,4145.153275,1838.629195
528.361655,8808.450710,4293.194464,1072.533697
528.361975,8142.265362,4737.318029,-153.219100
528.362296,7846.182985,4663.297435,-306.438199
528.362617,8882.471304,4589.276840,-383.047749
528.362937,9252.574275,5181.441594,-689.485948
528.363258,9622.677246,7105.977043,-1302.362347
528.363578,9918.759623,8734.430116,-1302.362347
528.363899,9252.574275,9326.594869,-842.705048
528.364220,9030.512492,7846.182985,689.485948
528.364540,8882.471304,6365.771101,1302.362347
528.364861,8660.409521,5107.421000,1838.629195
528.365181,7772.162391,3923.091493,1072.533697
528.365502,7328.038826,3849.070898,153.219100
528.365822,8438.347739,3108.864956,0.000000
528.366143,9252.574275,3627.009116,0.000000
528.366464,9474.636058,4959.379811,0.000000
528.366784,10066.800811,7179.997637,-306.438199
528.367105,9770.718434,9178.553681,-459.657299
528.367425,9104.533087,10140.821405,0.000000
528.367746,8734.430116,9030.512492,459.657299
528.368067,7402.059420,8364.327145,612.876398
528.368387,6217.729913,7328.038826,689.485948
528.368708,4737.318029,6883.915261,-229.828649
528.369028,4589.276840,5699.585753,-766.095498
528.369349,5033.400406,5255.462188,-383.047749
528.369669,4959.379811,5995.668130,306.438199
528.369990,4959.379811,7550.100608,1532.190996
528.370310,5625.565159,9548.656652,2221.676944
528.370631,6069.688724,10288.862594,2757.943793
528.370951,7031.956449,10066.800811,3677.258390
528.371272,7328.038826,9474.636058,3600.648841
528.371593,6883.915261,8290.306550,2528.115143
528.371913,6069.688724,7476.080014,2451.505594
528.372234,5551.544565,7846.182985,2451.505594
528.372554,6513.812290,8364.327145,2757.943793
528.372875,7698.141797,8512.368333,3140.991542
528.373195,7254.018232,8660.409521,3677.258390
528.373516,6809.894666,7698.141797,4366.744339
528.373836,6735.874072,7105.977043,4979.620737
528.374157,6661.853478,7254.018232,5439.278036
528.374477,8216.285956,7550.100608,4979.620737
528.374798,7772.162391,7920.203579,5132.839837
528.375118,7846.182985,8660.409521,5822.325785
528.375439,7772.162391,8956.491898,6281.983084
528.375759,7179.997637,8956.491898,7277.907231
528.376080,7105.977043,8142.265362,7584.345430
528.376401,6365.771101,7698.141797,7201.297681
528.376721,6365.771101,6661.853478,6741.640382
528.377042,5773.606348,5329.482782,6358.592633
528.377362,5625.565159,4589.276840,6665.030833
528.377683,5921.647536,5033.400406,7201.297681
528.378003,6143.709319,6883.915261,6281.983084
528.378324,5699.585753,8068.244768,6358.592633
528.378644,5773.606348,8660.409521,6281.983084
528.378965,5625.565159,8586.388927,7354.516781
528.379285,5329.482782,7550.100608,7890.783629
528.379606,4663.297435,6587.832884,8503.660028
528.379926,3404.947333,6291.750507,7737.564530
528.380247,2442.679609,6291.750507,6741.640382
528.380567,2072.576638,5773.606348,5975.544884
528.380888,1702.473667,5255.462188,6281.983084
528.381208,1628.453072,4515.256246,6588.421283
528.381529,2146.597232,5107.421000,6205.373534
528.381850,2442.679609,6143.709319,5975.544884
528.382170,2664.741391,7476.080014,5975.544884
528.382491,3034.844362,7698.141797,6052.154434
528.382811,4441.235652,8438.347739,6588.421283
528.383132,4589.276840,9104.533087,6511.811733
528.383452,4219.173869,8364.327145,5515.887586
528.383773,4219.173869,7031.956449,4903.011187
528.384093,3256.906145,5625.565159,4519.963438
528.384414,3256.906145,4219.173869,4366.744339
528.384734,3478.967927,3775.050304,4366.744339
528.385055,3849.070898,4219.173869,3294.210641
528.385375,3997.112087,6143.709319,2451.505594
528.385696,5107.421000,7624.121203,2068.457845
528.386016,5847.626942,7994.224174,2068.457845
528.386337,6957.935855,9030.512492,2221.676944
528.386658,7550.100608,10732.986159,2528.115143
528.386978,7550.100608,11251.130318,2451.505594
528.387299,7402.059420,10362.883188,2681.334243
528.387619,7179.997637,10584.944971,4136.915689
528.387940,6291.750507,11251.130318,5669.106685
528.388260,5773.606348,11917.315666,5745.716235
528.388581,4515.256246,9474.636058,4903.011187
528.388901,2590.720797,6143.709319,3907.087040
528.389222,2294.638420,2664.741391,3217.601092
528.389542,3108.864956,1332.370696,2374.896044
528.389863,4441.235652,3775.050304,1762.019645
528.390183,6143.709319,9400.615463,76.609550
528.390504,7920.203579,14508.036463,-1072.533697
528.390824,9918.759623,17468.860231,-842.705048
528.391145,11029.068536,18135.045579,1149.143247
528.391465,9844.739029,16802.674883,4443.353888
528.391786,7994.224174,12731.542202,5592.497135
528.392107,6069.688724,8734.430116,5975.544884
528.392427,6291.750507,7624.121203,6665.030833
528.392748,2960.823768,7698.141797,6128.763984
528.393068,2664.741391,8364.327145,4290.134789
528.393389,2294.638420,8290.306550,3217.601092
528.393709,2738.761985,6809.894666,3600.648841
528.394030,4367.215058,5329.482782,4596.572988
528.394350,5921.647536,6365.771101,6971.469032
528.394671,5699.585753,9178.553681,5822.325785
528.394991,5181.441594,12213.398043,4366.744339
528.395312,5773.606348,13397.727550,3294.210641
528.395632,7772.162391,14434.015869,2987.772442
528.395953,8660.409521,13397.727550,4443.353888
528.396273,5921.647536,10066.800811,5745.716235
528.396594,5329.482782,6217.729913,6435.202183
528.396915,1628.453072,4293.194464,6588.421283
528.397235,1480.411884,4293.194464,6971.469032
528.397556,3256.906145,5403.503377,5132.839837
528.397876,4663.297435,6143.709319,4673.182538
528.398197,4515.256246,5921.647536,5592.497135
528.398517,6143.709319,7031.956449,8886.707777
528.398838,7031.956449,8364.327145,10418.898773
528.399158,4071.132681,9474.636058,8503.660028
528.399479,3108.864956,9030.512492,5592.497135
528.399799,3034.844362,6661.853478,4673.182538
528.400120,3849.070898,3701.029710,5439.278036
528.400440,4737.318029,3923.091493,9039.926876
528.400761,4737.318029,7031.956449,9806.022374
528.401081,962.267725,8734.430116,6971.469032
528.401402,888.247130,9474.636058,4519.963438
528.401722,1924.535449,6883.915261,4749.792088
528.402043,2368.659014,2368.659014,6435.202183
528.402364,3627.009116,666.185348,8120.612279
528.402684,6365.771101,4663.297435,7967.393179
528.403005,5033.400406,9918.759623,5745.716235
528.403325,3478.967927,11251.130318,3600.648841
528.403646,5107.421000,10362.883188,2681.334243
528.403966,5847.626942,7402.059420,5132.839837
528.404287,3404.947333,5477.523971,8810.098227
528.404607,3478.967927,4811.338623,10342.289223
528.404928,4811.338623,6957.935855,9729.412825
528.405248,2368.659014,8882.471304,6665.030833
528.405569,2960.823768,10362.883188,4060.306139
528.405889,4737.318029,10807.006753,2987.772442
528.406210,4293.194464,9548.656652,3907.087040
528.406530,3849.070898,6735.874072,6588.421283
528.406851,5847.626942,5033.400406,7354.516781
528.407172,4959.379811,5477.523971,6971.469032
528.407492,3256.906145,7328.038826,6281.983084
528.407813,3627.009116,8660.409521,3907.087040
528.408133,5033.400406,9992.780217,2068.457845
528.408454,4737.318029,11547.212695,3983.696590
528.408774,5329.482782,11399.171507,5822.325785
528.409095,7179.997637,10881.027347,6128.763984
528.409415,6587.832884,9918.759623,4290.134789
528.409736,4367.215058,7920.203579,995.924147
528.410056,3478.967927,4959.379811,-919.314598
528.410377,6291.750507,5551.544565,2221.676944
528.410697,7328.038826,8808.450710,6818.249932
528.411018,5403.503377,10436.903782,5669.106685
528.411338,6513.812290,11251.130318,1991.848295
528.411659,7179.997637,11843.295072,1762.019645
528.411979,5403.503377,10066.800811,2528.115143
528.412300,5181.441594,7698.141797,3600.648841
528.412621,5551.544565,7698.141797,3524.039291
528.412941,3775.050304,8660.409521,3907.087040
528.413262,4441.235652,9696.697840,4596.572988
528.413582,5847.626942,10214.842000,2911.162892
528.413903,4811.338623,10362.883188,1838.629195
528.414223,4071.132681,10288.862594,3677.258390
528.414544,5551.544565,9178.553681,4673.182538
528.414864,5033.400406,7994.224174,4749.792088
528.415185,3627.009116,7105.977043,4290.134789
528.415505,4145.153275,7179.997637,2451.505594
528.415826,4737.318029,7328.038826,1838.629195
528.416146,4219.173869,7846.182985,2451.505594
528.416467,5699.585753,8290.306550,2221.676944
528.416787,5847.626942,8734.430116,995.924147
528.417108,4959.379811,8660.409521,919.314598
528.417429,5403.503377,9326.594869,1915.238745
528.417749,5403.503377,9844.739029,1991.848295
528.418070,4515.256246,7846.182985,2451.505594
528.418390,5255.462188,5625.565159,2757.943793
528.418711,5477.523971,6143.709319,2987.772442
528.419031,3701.029710,7328.038826,2987.772442
528.419352,2220.617826,8290.306550,2221.676944
528.419672,3182.885551,7846.182985,612.876398
528.419993,4219.173869,6365.771101,1762.019645
528.420313,4737.318029,6291.750507,4826.401637
528.420634,4811.338623,6883.915261,4290.134789
528.420954,2812.782580,8364.327145,2451.505594
528.421275,1776.494261,9178.553681,1838.629195
528.421595,3108.864956,7550.100608,1608.800546
528.421916,6217.729913,6735.874072,2145.067394
528.422236,6439.791695,8068.244768,3217.601092
528.422557,5033.400406,9548.656652,2834.553343
528.422878,3849.070898,9918.759623,766.095498
528.423198,3330.926739,9400.615463,1685.410096
528.423519,4589.276840,7846.182985,3677.258390
528.423839,5847.626942,6365.771101,4290.134789
528.424160,6217.729913,6809.894666,3217.601092
528.424480,3849.070898,7846.182985,1685.410096
528.424801,2960.823768,7550.100608,612.876398
528.425121,5181.441594,6069.688724,459.657299
528.425442,6809.894666,5403.503377,919.314598
528.425762,6735.874072,6439.791695,612.876398
528.426083,6883.915261,9696.697840,229.828649
528.426403,5847.626942,10658.965565,842.705048
528.426724,4885.359217,8660.409521,1072.533697
528.427044,7179.997637,7031.956449,1378.971896
528.427365,7698.141797,7550.100608,689.485948
528.427686,4959.379811,8956.491898,0.000000
528.428006,3552.988522,9696.697840,-612.876398
528.428327,3552.988522,7476.080014,-1149.143247
528.428647,4515.256246,5329.482782,-383.047749
528.428968,5181.441594,6069.688724,1532.190996
528.429288,4071.132681,8142.265362,842.705048
528.429609,1776.494261,9474.636058,-1072.533697
528.429929,1480.411884,8956.491898,-2298.286494
528.430250,3775.050304,7328.038826,-1915.238745
528.430570,5329.482782,6957.935855,1302.362347
528.430891,6365.771101,9918.759623,2068.457845
528.431211,4441.235652,13027.624579,-536.266849
528.431532,2294.638420,12065.356855,-2604.724693
528.431852,3552.988522,8586.388927,-1685.410096
528.432173,6883.915261,7328.038826,1455.581446
528.432493,4959.379811,8068.244768,2987.772442
528.432814,2368.659014,8808.450710,689.485948
528.433135,3330.926739,8660.409521,-2528.115143
528.433455,5033.400406,8216.285956,-2451.505594
528.433776,6291.750507,6513.812290,536.266849
528.434096,7328.038826,7698.141797,919.314598
528.434417,5773.606348,10066.800811,-1302.362347
528.434737,4885.359217,9770.718434,-1838.629195
528.435058,6957.935855,7402.059420,-1915.238745
528.435378,8882.471304,6069.688724,-1072.533697
528.435699,8142.265362,7402.059420,-153.219100
528.436019,6217.729913,10066.800811,-689.485948
528.436340,5773.606348,11029.068536,-3064.381992
528.436660,6439.791695,9252.574275,-2298.286494
528.436981,7698.141797,7254.018232,-536.266849
528.437301,7328.038826,6809.894666,-229.828649
528.437622,4367.215058,7328.038826,153.219100
528.437943,2812.782580,8364.327145,-1532.190996
528.438263,4515.256246,7328.038826,-2145.067394
528.438584,4959.379811,6513.812290,-1378.971896
528.438904,5773.606348,7105.977043,689.485948
528.439225,4145.153275,8364.327145,1608.800546
528.439545,1776.494261,8734.430116,-459.657299
528.439866,2886.803174,8216.285956,-1762.019645
528.440186,4811.338623,7772.162391,-1149.143247
528.440507,4959.379811,8068.244768,-842.705048
528.440827,3923.091493,8956.491898,0.000000
528.441148,2442.679609,8808.450710,-536.266849
528.441468,3330.926739,7179.997637,-1378.971896
528.441789,4885.359217,5255.462188,-536.266849
528.442109,5329.482782,6513.812290,-1302.362347
528.442430,4737.318029,8512.368333,-2068.457845
528.442750,4515.256246,8956.491898,-1991.848295
528.443071,5477.523971,7105.977043,-2068.457845
528.443392,7402.059420,6291.750507,-229.828649
528.443712,7846.182985,7476.080014,306.438199
528.444033,5773.606348,9178.553681,-1532.190996
528.444353,4737.318029,8660.409521,-2374.896044
528.444674,5699.585753,6809.894666,-2451.505594
528.444994,7846.182985,6291.750507,-1225.752797
528.445315,7624.121203,7402.059420,-153.219100
528.445635,5847.626942,9400.615463,-459.657299
528.445956,4663.297435,9992.780217,-1762.019645
528.446276,4959.379811,8068.244768,-1225.752797
528.446597,6957.935855,7031.956449,919.314598
528.446917,7031.956449,7550.100608,1991.848295
528.447238,6069.688724,9696.697840,1149.143247
528.447558,3478.967927,10066.800811,0.000000
528.447879,4293.194464,7328.038826,-459.657299
528.448200,6587.832884,6957.935855,1072.533697
528.448520,6365.771101,8660.409521,3064.381992
528.448841,3701.029710,9326.594869,842.705048
528.449161,2294.638420,9104.533087,-2145.067394
528.449482,4219.173869,7994.224174,-1532.190996
528.449802,5921.647536,7476.080014,1915.238745
528.450123,7179.997637,8364.327145,2298.286494
528.450443,4219.173869,10214.842000,-459.657299
528.450764,2442.679609,10362.883188,-2068.457845
528.451084,3849.070898,6957.935855,-995.924147
528.451405,6661.853478,4737.318029,76.609550
528.451725,6513.812290,6143.709319,306.438199
528.452046,3552.988522,8808.450710,-1532.190996
528.452366,3849.070898,9474.636058,-2451.505594
528.452687,5625.565159,8142.265362,-1762.019645
528.453007,6513.812290,6883.915261,536.266849
528.453328,6735.874072,6809.894666,1915.238745
528.453649,5033.400406,8660.409521,306.438199
528.453969,3256.906145,9104.533087,-459.657299
528.454290,4145.153275,7402.059420,0.000000
528.454610,6661.853478,4441.235652,-76.609550
528.454931,6735.874072,4663.297435,766.095498
528.455251,4589.276840,6883.915261,919.314598
528.455572,3775.050304,8290.306550,-766.095498
528.455892,5033.400406,7179.997637,-2374.896044
528.456213,7254.018232,6883.915261,-1302.362347
528.456533,7402.059420,7846.182985,995.924147
528.456854,5329.482782,8586.388927,689.485948
528.457174,3775.050304,7698.141797,-459.657299
528.457495,4441.235652,6439.791695,-1072.533697
528.457815,6513.812290,5773.606348,-1685.410096
528.458136,7105.977043,7031.956449,-1072.533697
528.458457,4959.379811,8586.388927,-1608.800546
528.458777,3923.091493,7994.224174,-1455.581446
528.459098,6069.688724,6957.935855,-1532.190996
528.459418,6661.853478,5773.606348,-1532.190996
528.459739,5995.668130,7402.059420,-1225.752797
528.460059,4737.318029,9696.697840,-1685.410096
528.460380,3627.009116,9696.697840,-2987.772442
528.460700,4071.132681,7994.224174,-2987.772442
528.461021,6069.688724,6883.915261,-2298.286494
528.461341,5773.606348,7328.038826,-1378.971896
528.461662,3108.864956,7920.203579,-1991.848295
528.461982,2812.782580,8216.285956,-4519.963438
528.462303,4293.194464,7624.121203,-4979.620737
528.462623,5699.585753,7920.203579,-2451.505594
528.462944,7550.100608,10362.883188,612.876398
528.463264,5699.585753,12509.480420,842.705048
528.463585,2886.803174,10881.027347,-1455.581446
528.463906,3108.864956,7254.018232,-2604.724693
528.464226,4959.379811,5847.626942,-1608.800546
528.464547,6365.771101,7624.121203,-842.705048
528.464867,5625.565159,9844.739029,-2068.457845
528.465188,3478.967927,9918.759623,-5056.230287
528.465508,4959.379811,8808.450710,-3370.820191
528.465829,7031.956449,8290.306550,1302.362347
528.466149,7624.121203,9992.780217,2298.286494
528.466470,4885.359217,10658.965565,-1685.410096
528.466790,4515.256246,9770.718434,-4903.011187
528.467111,7031.956449,8290.306550,-3753.867940
528.467431,8956.491898,6661.853478,842.705048
528.467752,8142.265362,7846.182985,2221.676944
528.468072,7031.956449,11251.130318,0.000000
528.468393,4145.153275,11769.274478,-2604.724693
528.468714,3256.906145,8438.347739,-2528.115143
528.469034,6957.935855,5847.626942,383.047749
528.469355,9030.512492,7994.224174,3064.381992
528.469675,5255.462188,10436.903782,2374.896044
528.469996,2590.720797,9622.677246,-536.266849
528.470317,3478.967927,7402.059420,-2145.067394
528.470637,4811.338623,6661.853478,612.876398
528.470958,5255.462188,6957.935855,2987.772442
528.471278,4293.194464,8660.409521,1455.581446
528.471599,3256.906145,9918.759623,-689.485948
528.471919,3849.070898,8660.409521,612.876398
528.472240,5551.544565,6735.874072,1762.019645
528.472561,5181.441594,6587.832884,2145.067394
528.472881,2516.700203,9252.574275,2451.505594
528.473202,1776.494261,9622.677246,689.485948
528.473522,3404.947333,6661.853478,-459.657299
528.473843,5847.626942,3923.091493,612.876398
528.474164,7402.059420,5625.565159,3294.210641
528.474484,4441.235652,6883.915261,2911.162892
528.474805,1406.391290,6883.915261,-536.266849
528.475125,4515.256246,5921.647536,-1762.019645
528.475446,6439.791695,5033.400406,-229.828649
528.475767,7105.977043,5255.462188,2451.505594
528.476087,6883.915261,8586.388927,3140.991542
528.476408,4515.256246,10658.965565,1072.533697
528.476728,2590.720797,7772.162391,-1149.143247
528.477049,5329.482782,4145.153275,-766.095498
528.477370,6217.729913,4071.132681,1072.533697
528.477690,3997.112087,6661.853478,2528.115143
528.478011,3256.906145,7254.018232,689.485948
528.478331,4293.194464,6883.915261,-2681.334243
528.478652,5625.565159,6661.853478,229.828649
528.478973,6587.832884,7772.162391,3753.867940
528.479293,4959.379811,8438.347739,3600.648841
528.479614,2220.617826,7550.100608,536.266849
528.479934,2738.761985,6735.874072,-1302.362347
528.480255,5995.668130,6809.894666,-2068.457845
528.480576,5995.668130,7994.224174,-689.485948
528.480896,5255.462188,9474.636058,0.000000
528.481217,4219.173869,9326.594869,-2374.896044
528.481537,4293.194464,8438.347739,-2604.724693
528.481858,4737.318029,8290.306550,-536.266849
528.482179,6513.812290,9474.636058,612.876398
528.482499,5329.482782,11029.068536,-153.219100
528.482820,3997.112087,10510.924376,-1685.410096
528.483140,4737.318029,7846.182985,-1991.848295
528.483461,6143.709319,5551.544565,-1455.581446
528.483782,4737.318029,5847.626942,-383.047749
528.484102,3997.112087,8142.265362,-995.924147
528.484423,3923.091493,9474.636058,-3294.210641
528.484743,5181.441594,9696.697840,-2987.772442
528.485064,8068.244768,10288.862594,-919.314598
528.485385,9104.533087,11843.295072,842.705048
528.485705,5181.441594,13027.624579,0.000000
528.486026,3627.009116,11103.089130,-1072.533697
528.486346,4885.359217,8216.285956,-1532.190996
528.486667,7105.977043,6957.935855,-1378.971896
528.486988,6143.709319,7772.162391,-766.095498
528.487308,4589.276840,9474.636058,-1302.362347
528.487629,4219.173869,9326.594869,-1915.238745
528.487949,5551.544565,8512.368333,-1302.362347
528.488270,6291.750507,8290.306550,-766.095498
528.488591,5847.626942,8290.306550,-383.047749
528.488911,5181.441594,9918.759623,153.219100
528.489232,5033.400406,10510.924376,153.219100
528.489552,5477.523971,8808.450710,0.000000
528.489873,5995.668130,6735.874072,-689.485948
528.490194,6513.812290,8734.430116,-306.438199
528.490514,3923.091493,9844.739029,612.876398
528.490835,2738.761985,9770.718434,-766.095498
528.491155,5181.441594,8734.430116,-1915.238745
528.491476,5699.585753,7105.977043,-306.438199
528.491796,4515.256246,6883.915261,2298.286494
528.492117,3552.988522,8956.491898,2834.553343
528.492438,1036.288319,7920.203579,0.000000
528.492758,2442.679609,6809.894666,-1608.800546
528.493079,5773.606348,7698.141797,-306.438199
528.493399,4737.318029,9030.512492,1685.410096
528.493720,3108.864956,9844.739029,1838.629195
528.494041,4885.359217,9178.553681,919.314598
528.494361,3552.988522,6513.812290,0.000000
528.494682,3849.070898,5995.668130,2068.457845
528.495002,5921.647536,8882.471304,3753.867940
528.495323,3552.988522,10288.862594,2681.334243
528.495644,2072.576638,7772.162391,1685.410096
528.495964,5551.544565,5847.626942,1225.752797
528.496285,6883.915261,5773.606348,2068.457845
528.496605,4589.276840,6661.853478,2604.724693
528.496926,3701.029710,7254.018232,1838.629195
528.497247,3627.009116,6217.729913,-689.485948
528.497567,4589.276840,5699.585753,306.438199
528.497888,6883.915261,6365.771101,2604.724693
528.498208,7105.977043,8586.388927,1762.019645
528.498529,4737.318029,10658.965565,459.657299
528.498850,3256.906145,8734.430116,-1762.019645
528.499170,4885.359217,5107.421000,-1225.752797
528.499491,7105.977043,3923.091493,2757.943793
528.499811,6143.709319,6365.771101,3217.601092
528.500132,3108.864956,8808.450710,-995.924147
528.500453,1776.494261,8142.265362,-3064.381992
528.500773,4885.359217,6661.853478,-1072.533697
528.501094,8364.327145,7031.956449,3524.039291
528.501414,7105.977043,8956.491898,3600.648841
528.501735,1998.556043,9770.718434,0.000000
528.502056,1554.432478,8882.471304,-1915.238745
528.502376,4145.153275,7254.018232,0.000000
528.502697,6513.812290,6809.894666,3064.381992
528.503017,5181.441594,8142.265362,1838.629195
528.503338,2664.741391,10362.883188,-1302.362347
528.503659,1406.391290,9696.697840,-1378.971896
528.503979,3701.029710,7254.018232,0.000000
528.504300,6513.812290,6217.729913,306.438199
528.504620,5329.482782,8364.327145,-153.219100
528.504941,4367.215058,10658.965565,-995.924147
528.505262,4441.235652,10510.924376,-1608.800546
528.505582,5625.565159,8068.244768,-459.657299
528.505903,8734.430116,7550.100608,689.485948
528.506223,7179.997637,9326.594869,306.438199
528.506544,3701.029710,10140.821405,-459.657299
528.506865,4737.318029,9696.697840,-1378.971896
528.507185,7105.977043,7698.141797,-1455.581446
528.507506,8142.265362,5625.565159,-919.314598
528.507826,7402.059420,7550.100608,76.609550
528.508147,4367.215058,10362.883188,-995.924147
528.508468,2886.803174,9696.697840,-2145.067394
528.508788,5921.647536,6587.832884,-2221.676944
528.509109,7846.182985,6143.709319,-1991.848295
528.509429,6587.832884,9252.574275,0.000000
528.509750,4145.153275,12287.418637,0.000000
528.510071,3701.029710,10881.027347,-1762.019645
528.510391,5033.400406,7550.100608,-1838.629195
528.510712,6809.894666,6217.729913,612.876398
528.511032,5329.482782,7624.121203,2298.286494
528.511353,2812.782580,10584.944971,1302.362347
528.511673,2516.700203,9548.656652,-689.485948
528.511994,4367.215058,5995.668130,-2451.505594
528.512315,6661.853478,4293.194464,-919.314598
528.512635,5773.606348,7105.977043,2757.943793
528.512956,3478.967927,9326.594869,1532.190996
528.513276,3182.885551,9400.615463,-2298.286494
528.513597,4515.256246,7624.121203,-4136.915689
528.513918,6365.771101,7254.018232,-1685.410096
528.514238,7772.162391,8882.471304,1838.629195
528.514559,5551.544565,10732.986159,766.095498
528.514879,2886.803174,10288.862594,-3217.601092
528.515200,4441.235652,7105.977043,-3064.381992
528.515521,6883.915261,5181.441594,-153.219100
528.515841,6439.791695,6883.915261,2298.286494
528.516162,3256.906145,8956.491898,1532.190996
528.516482,2146.597232,7402.059420,-2528.115143
528.516803,4219.173869,4811.338623,-2145.067394
528.517124,7031.956449,5847.626942,2451.505594
528.517444,6143.709319,8586.388927,4290.134789
528.517765,4293.194464,9992.780217,76.609550
528.518085,2812.782580,9400.615463,-3064.381992
528.518406,4515.256246,7402.059420,-689.485948
528.518727,7624.121203,7105.977043,2681.334243
528.519047,7550.100608,9030.512492,2681.334243
528.519368,2960.823768,9622.677246,-306.438199
528.519688,1480.411884,10214.842000,-1532.190996
528.520009,4441.235652,7994.224174,0.000000
528.520330,5477.523971,5699.585753,2221.676944
528.520650,5329.482782,6661.853478,2374.896044
528.520971,3997.112087,8808.450710,-306.438199
528.521291,2072.576638,8290.306550,-2221.676944
528.521612,3478.967927,6735.874072,306.438199
528.521933,7328.038826,7105.977043,2451.505594
528.522253,7031.956449,9326.594869,2451.505594
528.522574,3330.926739,10881.027347,153.219100
