#time,accel_x,accel_y,accel_z
147.734259,4811.338623,7476.080014,0.000000
147.734579,5255.462188,7994.224174,0.000000
147.734900,4959.379811,7994.224174,-459.657299
147.735220,4737.318029,7920.203579,-76.609550
147.735541,5033.400406,8068.244768,-153.219100
147.735861,4885.359217,8290.306550,-229.828649
147.736182,4885.359217,8364.327145,-383.047749
147.736502,5033.400406,7846.182985,-306.438199
147.736823,4959.379811,8068.244768,-153.219100
147.737143,4885.359217,7994.224174,-153.219100
147.737464,5255.462188,7920.203579,0.000000
147.737784,4885.359217,8586.388927,0.000000
147.738105,5107.421000,8216.285956,-229.828649
147.738426,4885.359217,7994.224174,76.609550
147.738746,4959.379811,8142.265362,-153.219100
147.739067,4959.379811,8068.244768,0.000000
147.739387,4737.318029,8216.285956,-306.438199
147.739708,4959.379811,8068.244768,-383.047749
147.740028,5033.400406,8142.265362,0.000000
147.740349,4959.379811,8216.285956,0.000000
147.740669,4885.359217,8142.265362,459.657299
147.740990,5033.400406,8216.285956,0.000000
147.741310,4811.338623,8142.265362,-229.828649
147.741631,5181.441594,8068.244768,-229.828649
147.741951,4959.379811,8068.244768,-76.609550
147.742272,5033.400406,7920.203579,0.000000
147.742592,5255.462188,7994.224174,-919.314598
147.742913,4811.338623,7994.224174,-306.438199
147.743234,4885.359217,8142.265362,-229.828649
147.743554,4959.379811,7920.203579,0.000000
147.743875,5107.421000,7994.224174,-76.609550
147.744195,5107.421000,8068.244768,153.219100
147.744516,4885.359217,8290.306550,-76.609550
147.744836,5255.462188,7846.182985,-153.219100
147.745157,5107.421000,7994.224174,-153.219100
147.745477,4885.359217,8068.244768,-229.828649
147.745798,5255.462188,8142.265362,0.000000
147.746118,4959.379811,7920.203579,-76.609550
147.746439,5033.400406,7846.182985,0.000000
147.746759,5107.421000,7994.224174,-229.828649
147.747080,4959.379811,7994.224174,-76.609550
147.747400,5033.400406,7772.162391,612.876398
147.747721,4885.359217,7920.203579,0.000000
147.748041,4737.318029,7476.080014,0.000000
147.748362,4589.276840,7328.038826,-229.828649
147.748683,4145.153275,7402.059420,0.000000
147.749003,4219.173869,8364.327145,0.000000
147.749324,4663.297435,9474.636058,-689.485948
147.749644,4663.297435,9918.759623,-1072.533697
147.749965,4663.297435,9474.636058,-1455.581446
147.750285,4293.194464,8956.491898,0.000000
147.750606,3552.988522,8882.471304,383.047749
147.750926,3182.885551,9178.553681,689.485948
147.751247,2664.741391,9474.636058,766.095498
147.751567,2664.741391,8882.471304,229.828649
147.751888,2664.741391,8364.327145,-306.438199
147.752208,3182.885551,8068.244768,-383.047749
147.752529,3034.844362,9252.574275,-383.047749
147.752849,2960.823768,9474.636058,0.000000
147.753170,2664.741391,9252.574275,306.438199
147.753491,2368.659014,9474.636058,76.609550
147.753811,2072.576638,9918.759623,306.438199
147.754132,1998.556043,11251.130318,-1225.752797
147.754452,1258.350101,11843.295072,-1225.752797
147.754773,1258.350101,11917.315666,-1378.971896
147.755093,888.247130,11547.212695,-1608.800546
147.755414,-296.082377,11473.192101,-1225.752797
147.755734,-370.102971,11547.212695,-995.924147
147.756055,-1554.432478,12583.501014,-153.219100
147.756375,-2072.576638,13101.645173,766.095498
147.756696,-2146.597232,12509.480420,1455.581446
147.757016,-1332.370696,11991.336260,1455.581446
147.757337,-1110.308913,12287.418637,1915.238745
147.757657,-1998.556043,12435.459826,1608.800546
147.757978,-2664.741391,11473.192101,76.609550
147.758299,-1998.556043,10362.883188,-1072.533697
147.758619,-1036.288319,9326.594869,-459.657299
147.758940,-740.205942,9696.697840,995.924147
147.759260,0.000000,10362.883188,1072.533697
147.759581,148.041188,11325.150913,-153.219100
147.759901,740.205942,11843.295072,-1455.581446
147.760222,1480.411884,11325.150913,-1225.752797
147.760542,2590.720797,10140.821405,-383.047749
147.760863,3182.885551,10066.800811,0.000000
147.761183,2812.782580,9844.739029,-536.266849
147.761504,2220.617826,9474.636058,-2374.896044
147.761824,2220.617826,9548.656652,-2604.724693
147.762145,2072.576638,9622.677246,-1302.362347
147.762465,2368.659014,9918.759623,0.000000
147.762786,1998.556043,10066.800811,-229.828649
147.763107,1332.370696,10510.924376,0.000000
147.763427,740.205942,11325.150913,-383.047749
147.763748,-222.061783,11103.089130,0.000000
147.764068,-370.102971,9770.718434,919.314598
147.764389,0.000000,9474.636058,612.876398
147.764709,222.061783,10288.862594,1072.533697
147.765030,-666.185348,10584.944971,612.876398
147.765350,-814.226536,10732.986159,919.314598
147.765671,0.000000,11177.109724,1378.971896
147.765991,962.267725,11473.192101,1455.581446
147.766312,1110.308913,11177.109724,766.095498
147.766632,2072.576638,10732.986159,-766.095498
147.766953,1776.494261,10510.924376,-1532.190996
147.767273,1480.411884,9696.697840,-919.314598
147.767594,1776.494261,8956.491898,0.000000
147.767914,2146.597232,8290.306550,306.438199
147.768235,2886.803174,8734.430116,612.876398
147.768556,2886.803174,9770.718434,229.828649
147.768876,2812.782580,10658.965565,-383.047749
147.769197,2960.823768,10658.965565,-766.095498
147.769517,3108.864956,10140.821405,-1149.143247
147.769838,3775.050304,9622.677246,-995.924147
147.770158,3552.988522,9548.656652,-612.876398
147.770479,2738.761985,9474.636058,-766.095498
147.770799,1924.535449,10510.924376,-459.657299
147.771120,1554.432478,11399.171507,-459.657299
147.771440,1258.350101,11843.295072,0.000000
147.771761,1036.288319,10955.047942,-995.924147
147.772081,0.000000,9474.636058,-1532.190996
147.772402,-1184.329507,8734.430116,-1608.800546
147.772722,-2368.659014,8882.471304,-612.876398
147.773043,-2072.576638,9548.656652,1149.143247
147.773364,-814.226536,11399.171507,1838.629195
147.773684,148.041188,13249.686362,2068.457845
147.774005,0.000000,14582.057057,1302.362347
147.774325,0.000000,14211.954086,0.000000
147.774646,518.144159,13397.727550,-383.047749
147.774966,740.205942,11843.295072,-306.438199
147.775287,814.226536,10510.924376,0.000000
147.775607,296.082377,9104.533087,-1072.533697
147.775928,-888.247130,9474.636058,-1685.410096
147.776248,-2072.576638,10066.800811,-1455.581446
147.776569,-2368.659014,11177.109724,-919.314598
147.776889,-1110.308913,11325.150913,-536.266849
147.777210,740.205942,12361.439231,459.657299
147.777530,1480.411884,13249.686362,1072.533697
147.777851,444.123565,13471.748144,-459.657299
147.778172,0.000000,13323.706956,-689.485948
147.778492,666.185348,12731.542202,-689.485948
147.778813,1406.391290,10066.800811,-995.924147
147.779133,2294.638420,7698.141797,-919.314598
147.779454,2812.782580,7772.162391,-919.314598
147.779774,1258.350101,9622.677246,-612.876398
147.780095,740.205942,11547.212695,1149.143247
147.780415,148.041188,10807.006753,1072.533697
147.780736,518.144159,9252.574275,153.219100
147.781056,1406.391290,8586.388927,842.705048
147.781377,1110.308913,8882.471304,689.485948
147.781697,814.226536,10510.924376,-153.219100
147.782018,444.123565,11843.295072,-1378.971896
147.782338,296.082377,12805.562797,-2298.286494
147.782659,518.144159,12361.439231,-1685.410096
147.782980,814.226536,13101.645173,-919.314598
147.783300,296.082377,13101.645173,306.438199
147.783621,-296.082377,11991.336260,536.266849
147.783941,-222.061783,10288.862594,1532.190996
147.784262,-518.144159,9474.636058,2145.067394
147.784582,-1110.308913,8216.285956,2068.457845
147.784903,-1850.514855,8216.285956,919.314598
147.785223,-1702.473667,8290.306550,76.609550
147.785544,-666.185348,9696.697840,-842.705048
147.785864,1850.514855,10658.965565,153.219100
147.786185,2590.720797,11399.171507,76.609550
147.786505,2812.782580,11917.315666,0.000000
147.786826,2442.679609,11695.253884,0.000000
147.787146,1406.391290,9992.780217,-1685.410096
147.787467,1406.391290,7402.059420,-2911.162892
147.787787,2886.803174,6957.935855,-1608.800546
147.788108,4145.153275,9622.677246,1608.800546
147.788429,2072.576638,12805.562797,0.000000
147.788749,1110.308913,13619.789333,-3217.601092
147.789070,1554.432478,12287.418637,-3830.477490
147.789390,74.020594,9992.780217,-2374.896044
147.789711,-1406.391290,6883.915261,-536.266849
147.790031,-814.226536,7550.100608,-536.266849
147.790352,-222.061783,11769.274478,-383.047749
147.790672,-1184.329507,15840.407159,0.000000
147.790993,-2072.576638,16358.551318,766.095498
147.791313,-444.123565,14359.995275,689.485948
147.791634,-888.247130,12287.418637,1915.238745
147.791954,-1406.391290,11695.253884,2451.505594
147.792275,-1628.453072,11029.068536,459.657299
147.792595,-1036.288319,10140.821405,153.219100
147.792916,962.267725,9844.739029,689.485948
147.793237,1406.391290,8956.491898,1378.971896
147.793557,1258.350101,8290.306550,536.266849
147.793878,2516.700203,8660.409521,842.705048
147.794198,4885.359217,9474.636058,995.924147
147.794519,6365.771101,10066.800811,919.314598
147.794839,7402.059420,9548.656652,-919.314598
147.795160,7550.100608,9400.615463,-2221.676944
147.795480,7402.059420,8734.430116,-2451.505594
147.795801,5329.482782,6291.750507,-1838.629195
147.796121,5699.585753,5477.523971,-2145.067394
147.796442,5847.626942,6661.853478,-2068.457845
147.796761,6365.771101,10584.944971,153.219100
147.797081,5625.565159,11547.212695,536.266849
147.797402,4515.256246,9474.636058,-919.314598
147.797722,2960.823768,6365.771101,-1838.629195
147.798043,1332.370696,5255.462188,0.000000
147.798363,2146.597232,6735.874072,1225.752797
147.798684,2590.720797,8586.388927,1072.533697
147.799004,2960.823768,10732.986159,-689.485948
147.799325,4589.276840,12731.542202,-1302.362347
147.799645,2294.638420,11399.171507,0.000000
147.799966,1036.288319,8734.430116,2374.896044
147.800286,2590.720797,8290.306550,4290.134789
147.800607,2590.720797,7994.224174,2834.553343
147.800927,3182.885551,7105.977043,842.705048
147.801248,3849.070898,6513.812290,306.438199
147.801568,3404.947333,5255.462188,229.828649
147.801889,3627.009116,4071.132681,2145.067394
147.802209,7105.977043,3701.029710,2528.115143
147.802530,9252.574275,6661.853478,306.438199
147.802850,8438.347739,8956.491898,-2221.676944
147.803171,8956.491898,10288.862594,-4213.525239
147.803491,9844.739029,9474.636058,-4213.525239
147.803812,9178.553681,6957.935855,-1532.190996
147.804132,9696.697840,6365.771101,153.219100
147.804453,8068.244768,7031.956449,-1838.629195
147.804773,5551.544565,9178.553681,-3983.696590
147.805094,3997.112087,9548.656652,-3294.210641
147.805414,2516.700203,7698.141797,-1762.019645
147.805735,3108.864956,6217.729913,612.876398
147.806055,4737.318029,7328.038826,2451.505594
147.806376,3330.926739,9252.574275,1915.238745
147.806696,1850.514855,11547.212695,1302.362347
147.807017,370.102971,11473.192101,919.314598
147.807337,-296.082377,10214.842000,1072.533697
147.807658,2368.659014,9326.594869,2145.067394
147.807978,5329.482782,9844.739029,2528.115143
147.808299,3108.864956,10214.842000,229.828649
147.808619,1184.329507,9844.739029,-1225.752797
147.808940,1406.391290,10436.903782,-766.095498
147.809260,2442.679609,10658.965565,1149.143247
147.809581,2072.576638,7920.203579,1762.019645
147.809901,5921.647536,5773.606348,766.095498
147.810222,8512.368333,6143.709319,-229.828649
147.810542,5847.626942,7402.059420,-612.876398
147.810863,5403.503377,7772.162391,-689.485948
147.811183,6661.853478,7402.059420,-1685.410096
147.811503,9252.574275,6217.729913,-2451.505594
147.811824,10658.965565,7031.956449,-919.314598
147.812144,9696.697840,7254.018232,-2221.676944
147.812465,6661.853478,7031.956449,-4903.011187
147.812785,6513.812290,8512.368333,-2681.334243
147.813106,6883.915261,8438.347739,-612.876398
147.813426,7105.977043,6883.915261,-612.876398
147.813747,6365.771101,5847.626942,-766.095498
147.814067,6365.771101,8142.265362,-1072.533697
147.814388,3182.885551,10584.944971,-536.266849
147.814708,1998.556043,9178.553681,842.705048
147.815029,3478.967927,6217.729913,229.828649
147.815349,5625.565159,6217.729913,1685.410096
147.815670,4737.318029,9104.533087,2451.505594
147.815990,1036.288319,9992.780217,1532.190996
147.816311,-518.144159,9030.512492,689.485948
147.816631,2146.597232,8734.430116,1838.629195
147.816952,3627.009116,8808.450710,2451.505594
147.817272,2960.823768,8882.471304,1532.190996
147.817593,2960.823768,9770.718434,-612.876398
147.817913,1998.556043,10362.883188,-612.876398
147.818234,2368.659014,9030.512492,0.000000
147.818554,4959.379811,7328.038826,1532.190996
147.818875,5847.626942,6291.750507,919.314598
147.819195,7179.997637,8142.265362,459.657299
147.819516,6957.935855,9770.718434,229.828649
147.819836,5773.606348,7846.182985,-1762.019645
147.820157,6143.709319,6365.771101,-1532.190996
147.820477,8512.368333,6661.853478,0.000000
147.820798,8512.368333,7179.997637,0.000000
147.821118,7476.080014,7105.977043,-842.705048
147.821439,6439.791695,6217.729913,-2298.286494
147.821759,5847.626942,5921.647536,-1838.629195
147.822080,6291.750507,6439.791695,76.609550
147.822400,5773.606348,7254.018232,153.219100
147.822721,4959.379811,8290.306550,-536.266849
147.823041,5255.462188,9104.533087,383.047749
147.823362,5033.400406,8364.327145,1608.800546
147.823682,3627.009116,6883.915261,1991.848295
147.824003,3775.050304,7254.018232,1762.019645
147.824323,4367.215058,7402.059420,995.924147
147.824644,3627.009116,8290.306550,-459.657299
147.824964,4663.297435,8438.347739,-229.828649
147.825285,3997.112087,7402.059420,-306.438199
147.825605,3330.926739,6957.935855,229.828649
147.825926,4811.338623,7328.038826,1455.581446
147.826246,4737.318029,7846.182985,919.314598
147.826567,4959.379811,8068.244768,-306.438199
147.826887,5329.482782,8142.265362,-612.876398
147.827208,4959.379811,7846.182985,-459.657299
147.827528,6587.832884,7550.100608,536.266849
147.827849,7698.141797,7994.224174,383.047749
147.828169,7254.018232,7254.018232,-1302.362347
147.828490,7550.100608,7328.038826,-2451.505594
147.828810,7476.080014,7402.059420,-1838.629195
147.829131,6809.894666,5773.606348,-306.438199
147.829451,7105.977043,5181.441594,0.000000
147.829772,8290.306550,5995.668130,-459.657299
147.830092,8808.450710,8586.388927,-1532.190996
147.830413,5773.606348,9548.656652,-2221.676944
147.830733,4367.215058,7624.121203,-2374.896044
147.831053,6069.688724,6513.812290,-306.438199
147.831374,5995.668130,7105.977043,1455.581446
147.831694,5551.544565,9104.533087,306.438199
147.832015,4663.297435,9992.780217,-689.485948
147.832335,2664.741391,9992.780217,-995.924147
147.832656,2960.823768,8956.491898,766.095498
147.832976,4293.194464,7994.224174,2757.943793
147.833297,3182.885551,7179.997637,842.705048
147.833617,3701.029710,8142.265362,-842.705048
147.833938,3849.070898,9104.533087,-1991.848295
147.834258,3108.864956,9252.574275,-1302.362347
147.834579,3997.112087,7994.224174,766.095498
147.834899,5773.606348,7698.141797,1149.143247
147.835220,5921.647536,9178.553681,1072.533697
147.835540,5255.462188,10955.047942,919.314598
147.835861,4885.359217,9622.677246,-1685.410096
147.836181,4737.318029,7698.141797,-2221.676944
147.836502,5773.606348,7105.977043,153.219100
147.836822,6661.853478,7550.100608,1225.752797
147.837143,6069.688724,6735.874072,-459.657299
147.837463,6735.874072,6513.812290,-1532.190996
147.837784,5477.523971,7254.018232,-1532.190996
147.838104,4219.173869,6587.832884,-459.657299
147.838425,4959.379811,6809.894666,0.000000
147.838745,6587.832884,8142.265362,-383.047749
147.839066,6809.894666,9178.553681,-1915.238745
147.839386,6513.812290,9992.780217,-1455.581446
147.839707,5033.400406,8808.450710,-1072.533697
147.840027,2886.803174,7402.059420,0.000000
147.840348,5551.544565,6883.915261,1149.143247
147.840668,5255.462188,5773.606348,459.657299
147.840989,4737.318029,6291.750507,0.000000
147.841309,5181.441594,7698.141797,76.609550
147.841630,3256.906145,7254.018232,0.000000
147.841950,2664.741391,6809.894666,612.876398
147.842271,6143.709319,6809.894666,2068.457845
147.842591,5773.606348,7402.059420,919.314598
147.842912,6587.832884,8660.409521,-995.924147
147.843232,6143.709319,10214.842000,-919.314598
147.843553,3627.009116,8956.491898,-919.314598
147.843873,4959.379811,6735.874072,1149.143247
147.844194,7402.059420,7402.059420,2834.553343
147.844514,5551.544565,7624.121203,0.000000
147.844835,4367.215058,8512.368333,-1991.848295
147.845155,3849.070898,7698.141797,-1608.800546
147.845476,4367.215058,7179.997637,-383.047749
147.845796,6217.729913,6365.771101,2451.505594
147.846117,7254.018232,7105.977043,995.924147
147.846437,7105.977043,9474.636058,-1608.800546
147.846758,5773.606348,10288.862594,-1072.533697
147.847078,4441.235652,8216.285956,-842.705048
147.847399,5033.400406,5921.647536,459.657299
147.847719,6217.729913,6661.853478,842.705048
147.848040,6809.894666,9326.594869,153.219100
147.848360,5551.544565,9548.656652,-1915.238745
147.848681,4293.194464,8290.306550,-3064.381992
147.849001,4441.235652,7254.018232,-1149.143247
147.849322,4441.235652,6069.688724,1685.410096
147.849642,5255.462188,7476.080014,2604.724693
147.849963,6365.771101,9474.636058,536.266849
147.850283,5477.523971,10140.821405,-1532.190996
147.850603,5107.421000,8586.388927,-766.095498
147.850924,3997.112087,6957.935855,-383.047749
147.851244,4959.379811,7328.038826,1455.581446
147.851565,5699.585753,8438.347739,766.095498
147.851885,4885.359217,7920.203579,-1838.629195
147.852206,4811.338623,7698.141797,-2834.553343
147.852526,3923.091493,7105.977043,-1225.752797
147.852847,3182.885551,7624.121203,1838.629195
147.853167,4367.215058,8660.409521,2221.676944
147.853488,5033.400406,8882.471304,-689.485948
147.853808,5329.482782,9178.553681,-1762.019645
147.854129,5625.565159,8734.430116,-995.924147
147.854449,3923.091493,7105.977043,-766.095498
147.854770,5181.441594,7624.121203,0.000000
147.855090,5921.647536,7698.141797,229.828649
147.855411,6735.874072,8142.265362,-1455.581446
147.855731,6513.812290,8142.265362,-1455.581446
147.856052,4737.318029,7846.182985,-1455.581446
147.856372,4219.173869,8142.265362,0.000000
147.856693,4589.276840,7846.182985,306.438199
147.857013,4737.318029,6661.853478,0.000000
147.857334,6291.750507,7698.141797,-229.828649
147.857654,5551.544565,9548.656652,0.000000
147.857975,2738.761985,9400.615463,-612.876398
147.858295,2590.720797,8438.347739,0.000000
147.858616,4663.297435,8660.409521,1149.143247
147.858936,5477.523971,8660.409521,1072.533697
147.859257,5329.482782,8364.327145,459.657299
147.859577,4293.194464,7920.203579,-766.095498
147.859898,2368.659014,8068.244768,-1378.971896
147.860218,3627.009116,7476.080014,766.095498
147.860539,5329.482782,7550.100608,0.000000
147.860859,6735.874072,7920.203579,-842.705048
147.861180,6291.750507,9548.656652,-766.095498
147.861500,4441.235652,9474.636058,-689.485948
147.861821,3775.050304,7698.141797,-766.095498
147.862141,5255.462188,7328.038826,459.657299
147.862462,5921.647536,8438.347739,459.657299
147.862782,5921.647536,8660.409521,-383.047749
147.863103,5255.462188,8068.244768,-1072.533697
147.863423,4145.153275,7624.121203,-1072.533697
147.863744,4219.173869,6883.915261,306.438199
147.864064,5403.503377,6735.874072,1378.971896
147.864385,5995.668130,7772.162391,-153.219100
147.864705,5699.585753,8734.430116,-1149.143247
147.865026,4441.235652,8882.471304,-995.924147
147.865346,4441.235652,8068.244768,0.000000
147.865667,3404.947333,6365.771101,1072.533697
147.865987,4441.235652,7328.038826,612.876398
147.866308,5921.647536,8734.430116,-612.876398
147.866628,4737.318029,8808.450710,-1225.752797
147.866949,3330.926739,7994.224174,-1762.019645
147.867269,5181.441594,7105.977043,0.000000
147.867590,5033.400406,7550.100608,842.705048
147.867910,5699.585753,7624.121203,612.876398
147.868231,6069.688724,8364.327145,-383.047749
147.868551,5329.482782,9104.533087,-1532.190996
147.868872,4293.194464,8364.327145,-306.438199
147.869192,4219.173869,8438.347739,919.314598
147.869513,4885.359217,7402.059420,-306.438199
147.869833,5847.626942,7698.141797,-1225.752797
147.870153,5403.503377,8808.450710,-1225.752797
147.870474,4145.153275,9030.512492,-1685.410096
147.870794,2886.803174,8586.388927,-1072.533697
147.871115,3627.009116,8586.388927,842.705048
147.871435,4737.318029,9326.594869,766.095498
147.871756,5033.400406,10066.800811,995.924147
147.872076,5107.421000,9992.780217,76.609550
147.872397,3627.009116,8808.450710,-536.266849
147.872717,2812.782580,8808.450710,0.000000
147.873038,4737.318029,8068.244768,1608.800546
147.873358,4737.318029,7179.997637,383.047749
147.873679,5181.441594,7920.203579,-766.095498
147.873999,4885.359217,9770.718434,-306.438199
147.874320,2738.761985,8364.327145,-383.047749
147.874640,2886.803174,7254.018232,459.657299
147.874961,5033.400406,6883.915261,1838.629195
147.875281,5477.523971,7550.100608,459.657299
147.875602,6513.812290,9178.553681,-383.047749
147.875922,4737.318029,9030.512492,-2298.286494
147.876243,3701.029710,8364.327145,-2451.505594
147.876563,5551.544565,7624.121203,76.609550
147.876884,6143.709319,7254.018232,919.314598
147.877204,6513.812290,7179.997637,-689.485948
147.877525,5477.523971,8068.244768,-1608.800546
147.877845,3552.988522,8142.265362,-2221.676944
147.878166,2886.803174,7105.977043,-1072.533697
147.878486,5551.544565,7179.997637,766.095498
147.878807,6735.874072,7624.121203,383.047749
147.879127,5255.462188,7698.141797,-383.047749
147.879448,4441.235652,9252.574275,-1378.971896
147.879768,2960.823768,9326.594869,-766.095498
147.880089,2220.617826,8068.244768,842.705048
147.880409,4885.359217,8438.347739,2145.067394
147.880730,5033.400406,8734.430116,919.314598
147.881050,3775.050304,9622.677246,-459.657299
147.881371,2886.803174,10288.862594,-536.266849
147.881691,1924.535449,9326.594869,0.000000
147.882012,2368.659014,7550.100608,1455.581446
147.882332,4441.235652,7550.100608,1915.238745
147.882653,4219.173869,8216.285956,-229.828649
147.882973,3256.906145,8660.409521,-1072.533697
147.883294,2664.741391,9622.677246,-229.828649
147.883614,2590.720797,9474.636058,689.485948
147.883935,4367.215058,8586.388927,1685.410096
147.884255,5551.544565,7920.203579,689.485948
147.884576,5403.503377,8734.430116,-1072.533697
147.884896,5477.523971,10140.821405,-919.314598
147.885217,3627.009116,8660.409521,-1915.238745
147.885537,4071.132681,7105.977043,-1302.362347
147.885858,7105.977043,6883.915261,229.828649
147.886178,7402.059420,7105.977043,766.095498
147.886499,6809.894666,7624.121203,0.000000
147.886819,5625.565159,8290.306550,-842.705048
147.887140,3997.112087,7179.997637,-1991.848295
147.887460,5033.400406,6809.894666,-383.047749
147.887781,7624.121203,6957.935855,842.705048
147.888101,7550.100608,7476.080014,-689.485948
147.888422,5773.606348,8734.430116,-1532.190996
147.888742,5403.503377,7994.224174,-1608.800546
147.889062,4145.153275,6587.832884,-689.485948
147.889383,4589.276840,6365.771101,1838.629195
147.889703,6365.771101,7550.100608,2298.286494
147.890024,6291.750507,9622.677246,229.828649
147.890344,5107.421000,9474.636058,-1072.533697
147.890665,4367.215058,7624.121203,-1838.629195
147.890985,4737.318029,6291.750507,-76.609550
147.891306,6143.709319,5699.585753,1762.019645
147.891626,5921.647536,6217.729913,995.924147
147.891947,5255.462188,6513.812290,-383.047749
147.892267,5329.482782,9030.512492,-1378.971896
147.892588,4219.173869,8734.430116,-919.314598
147.892908,5477.523971,7994.224174,-689.485948
147.893229,8290.306550,8660.409521,153.219100
147.893549,6809.894666,8364.327145,-612.876398
147.893870,6513.812290,8290.306550,-1685.410096
147.894190,5773.606348,8216.285956,-1378.971896
147.894511,3701.029710,7105.977043,-919.314598
147.894831,5181.441594,8290.306550,306.438199
147.895152,6883.915261,9696.697840,306.438199
147.895472,4589.276840,8734.430116,-2374.896044
147.895793,4959.379811,8660.409521,-1072.533697
147.896113,4441.235652,8438.347739,612.876398
147.896434,3182.885551,8438.347739,1378.971896
147.896755,4515.256246,8142.265362,1302.362347
147.897075,5107.421000,8364.327145,-1225.752797
147.897396,3923.091493,9770.718434,-1225.752797
147.897717,3701.029710,10140.821405,459.657299
147.898037,3256.906145,9474.636058,689.485948
147.898358,3034.844362,8364.327145,919.314598
147.898679,4441.235652,8290.306550,1149.143247
147.898999,4071.132681,8734.430116,-383.047749
147.899320,3256.906145,9474.636058,-1302.362347
147.899640,3330.926739,9992.780217,-612.876398
147.899961,2516.700203,8882.471304,306.438199
147.900282,4219.173869,7994.224174,995.924147
147.900602,5403.503377,8142.265362,919.314598
147.900923,3997.112087,8734.430116,-306.438199
147.901244,3997.112087,9104.533087,-919.314598
147.901564,2812.782580,7624.121203,-383.047749
147.901885,3330.926739,6957.935855,612.876398
147.902206,5921.647536,7476.080014,1685.410096
147.902526,6587.832884,7328.038826,229.828649
147.902847,5255.462188,7624.121203,-1685.410096
147.903167,4811.338623,7772.162391,-1915.238745
147.903488,4367.215058,6809.894666,-612.876398
147.903809,5255.462188,6291.750507,766.095498
147.904129,8142.265362,6957.935855,1225.752797
147.904450,8290.306550,8142.265362,536.266849
147.904771,6365.771101,8142.265362,-612.876398
147.905091,4145.153275,7328.038826,-1532.190996
147.905412,3997.112087,6809.894666,-536.266849
147.905732,4663.297435,7105.977043,1838.629195
147.906053,6365.771101,7920.203579,1072.533697
147.906374,6661.853478,7328.038826,-306.438199
147.906694,4589.276840,7105.977043,-1225.752797
147.907015,3997.112087,7698.141797,-383.047749
147.907336,3997.112087,7772.162391,1532.190996
147.907656,5181.441594,7402.059420,1991.848295
147.907977,6957.935855,7920.203579,459.657299
147.908298,6883.915261,8956.491898,-842.705048
147.908618,4219.173869,7994.224174,-1991.848295
147.908939,3627.009116,7402.059420,-1225.752797
147.909259,5625.565159,7476.080014,1225.752797
147.909580,7031.956449,7328.038826,1072.533697
147.909901,7328.038826,6883.915261,0.000000
147.910221,6365.771101,7105.977043,-2528.115143
147.910542,4589.276840,8142.265362,-1915.238745
147.910863,5255.462188,8808.450710,1302.362347
147.911183,7328.038826,7402.059420,1302.362347
147.911504,9030.512492,6883.915261,-383.047749
147.911825,8512.368333,7846.182985,-1838.629195
147.912145,6365.771101,8808.450710,-1762.019645
147.912466,4737.318029,8364.327145,-995.924147
147.912786,5847.626942,7476.080014,612.876398
147.913107,7328.038826,6217.729913,459.657299
147.913428,7105.977043,6809.894666,-306.438199
147.913748,6513.812290,7920.203579,-1149.143247
147.914069,3034.844362,9548.656652,-689.485948
147.914390,2368.659014,9030.512492,0.000000
147.914710,4737.318029,8068.244768,1072.533697
147.915031,5551.544565,7698.141797,459.657299
147.915352,5625.565159,8734.430116,0.000000
147.915672,4219.173869,11029.068536,-536.266849
147.915993,2220.617826,10510.924376,-766.095498
147.916313,1702.473667,7994.224174,-766.095498
147.916634,4071.132681,7254.018232,612.876398
147.916955,5773.606348,8216.285956,1072.533697
147.917275,3997.112087,8956.491898,-612.876398
147.917596,2960.823768,8290.306550,-1302.362347
147.917917,3552.988522,7994.224174,-1762.019645
147.918237,3923.091493,7624.121203,-153.219100
147.918558,6365.771101,7476.080014,1072.533697
147.918878,7402.059420,7920.203579,306.438199
147.919199,6809.894666,8808.450710,-612.876398
147.919520,5107.421000,8734.430116,-766.095498
147.919840,5107.421000,7105.977043,-1149.143247
147.920161,6143.709319,5625.565159,-612.876398
147.920482,7402.059420,7105.977043,842.705048
147.920802,7698.141797,7920.203579,76.609550
147.921123,6439.791695,7698.141797,-1302.362347
147.921444,4663.297435,7328.038826,-1455.581446
147.921764,4515.256246,6735.874072,-459.657299
147.922085,5995.668130,7624.121203,1608.800546
147.922405,7031.956449,7846.182985,1838.629195
147.922726,6217.729913,8660.409521,0.000000
147.923047,5477.523971,8290.306550,-919.314598
147.923367,3627.009116,7179.997637,-306.438199
147.923688,2886.803174,6661.853478,1149.143247
147.924009,4737.318029,7105.977043,1762.019645
147.924329,5403.503377,7994.224174,229.828649
147.924650,4515.256246,8734.430116,-1072.533697
147.924971,4145.153275,8512.368333,-995.924147
147.925291,4441.235652,7105.977043,689.485948
147.925612,4367.215058,6587.832884,1838.629195
147.925932,5773.606348,6809.894666,1455.581446
147.926253,6883.915261,8068.244768,-383.047749
147.926574,5921.647536,9400.615463,-1378.971896
147.926894,5403.503377,8512.368333,-1455.581446
147.927215,5625.565159,7328.038826,-383.047749
147.927536,5625.565159,6735.874072,536.266849
147.927856,6587.832884,6809.894666,-229.828649
147.928177,6661.853478,7105.977043,-995.924147
147.928498,5403.503377,7328.038826,-1378.971896
147.928818,4663.297435,6809.894666,0.000000
147.929139,5625.565159,7772.162391,536.266849
147.929459,6365.771101,9104.533087,229.828649
147.929780,6513.812290,9770.718434,-766.095498
147.930101,5995.668130,9178.553681,-919.314598
147.930421,5181.441594,8068.244768,-919.314598
147.930742,3701.029710,7031.956449,306.438199
147.931063,2812.782580,6587.832884,229.828649
147.931383,4145.153275,7920.203579,-383.047749
147.931704,4515.256246,9696.697840,-536.266849
147.932024,4441.235652,9474.636058,-995.924147
147.932345,2960.823768,8290.306550,-995.924147
147.932666,3256.906145,7920.203579,229.828649
147.932986,4515.256246,9252.574275,1991.848295
147.933307,4737.318029,9548.656652,229.828649
147.933628,4293.194464,9104.533087,-2145.067394
147.933948,5551.544565,9474.636058,-1685.410096
147.934269,4811.338623,8956.491898,0.000000
147.934590,3775.050304,8512.368333,459.657299
147.934910,5403.503377,8290.306550,-1302.362347
147.935231,6143.709319,8142.265362,-1149.143247
147.935551,5699.585753,7772.162391,-536.266849
147.935872,5181.441594,7402.059420,0.000000
147.936193,4367.215058,6587.832884,0.000000
147.936513,4885.359217,7698.141797,383.047749
147.936834,6439.791695,8882.471304,229.828649
147.937155,7698.141797,8882.471304,-919.314598
147.937475,6809.894666,8512.368333,-995.924147
147.937796,6291.750507,8142.265362,-383.047749
147.938117,4589.276840,7846.182985,-306.438199
147.938437,3775.050304,7476.080014,-306.438199
147.938758,4737.318029,7179.997637,-612.876398
147.939078,5625.565159,7550.100608,-766.095498
147.939399,5107.421000,7698.141797,229.828649
147.939720,3701.029710,7402.059420,383.047749
147.940040,3552.988522,7624.121203,383.047749
147.940361,4663.297435,8956.491898,536.266849
147.940682,5477.523971,9474.636058,0.000000
147.941002,5403.503377,8512.368333,-919.314598
147.941323,5181.441594,8068.244768,-1225.752797
147.941644,4737.318029,7550.100608,383.047749
147.941964,4293.194464,7772.162391,919.314598
147.942285,5107.421000,7994.224174,0.000000
147.942605,5329.482782,8734.430116,-1149.143247
147.942926,5181.441594,8512.368333,0.000000
147.943247,4737.318029,7105.977043,689.485948
147.943567,4663.297435,6809.894666,612.876398
147.943888,5699.585753,7624.121203,842.705048
147.944209,5921.647536,8882.471304,-383.047749
147.944529,5625.565159,8364.327145,-1149.143247
147.944850,5551.544565,7550.100608,0.000000
147.945170,4885.359217,7031.956449,1149.143247
147.945491,5107.421000,6957.935855,1455.581446
147.945812,5255.462188,7624.121203,766.095498
147.946132,5847.626942,8068.244768,-1225.752797
147.946453,5847.626942,7476.080014,-1532.190996
147.946774,4885.359217,6291.750507,-536.266849
147.947094,3997.112087,5847.626942,383.047749
147.947415,4737.318029,8216.285956,1455.581446
147.947736,4441.235652,9992.780217,0.000000
147.948056,6143.709319,9844.739029,-1915.238745
147.948377,5995.668130,8512.368333,-1455.581446
147.948697,4589.276840,6957.935855,-1149.143247
147.949018,3775.050304,6883.915261,536.266849
147.949339,4367.215058,8216.285956,1072.533697
147.949659,3997.112087,8882.471304,-536.266849
147.949980,4737.318029,8512.368333,-1149.143247
147.950301,4737.318029,8364.327145,-1532.190996
147.950621,2812.782580,8512.368333,-383.047749
147.950942,3478.967927,8808.450710,1149.143247
147.951263,4293.194464,9030.512492,1302.362347
147.951583,5477.523971,9326.594869,-459.657299
147.951904,4959.379811,8882.471304,-842.705048
147.952224,3997.112087,9474.636058,-1608.800546
147.952545,3034.844362,9548.656652,-766.095498
147.952866,4515.256246,9400.615463,383.047749
147.953186,5255.462188,8660.409521,153.219100
147.953507,5699.585753,7624.121203,-1149.143247
147.953828,4145.153275,8142.265362,-612.876398
147.954148,2886.803174,8290.306550,0.000000
147.954469,2294.638420,7698.141797,459.657299
147.954790,4737.318029,8290.306550,919.314598
147.955110,6069.688724,7846.182985,0.000000
147.955431,6217.729913,8956.491898,-1149.143247
147.955751,5551.544565,9844.739029,-1225.752797
147.956072,3404.947333,9030.512492,-1149.143247
147.956393,4367.215058,7105.977043,-459.657299
147.956713,6439.791695,6735.874072,0.000000
147.957034,6143.709319,7624.121203,0.000000
147.957355,5107.421000,8512.368333,-1378.971896
147.957675,4663.297435,8586.388927,-2221.676944
147.957996,4367.215058,8142.265362,-1608.800546
147.958316,5255.462188,7846.182985,306.438199
147.958637,6883.915261,8068.244768,383.047749
147.958958,6513.812290,8142.265362,0.000000
147.959278,4959.379811,8956.491898,-383.047749
147.959599,3849.070898,7772.162391,229.828649
147.959920,4293.194464,7105.977043,995.924147
147.960240,4737.318029,6957.935855,612.876398
147.960561,5921.647536,8734.430116,-306.438199
147.960882,5921.647536,9474.636058,-229.828649
147.961202,4219.173869,7920.203579,0.000000
147.961523,3478.967927,6587.832884,76.609550
147.961843,4737.318029,7105.977043,842.705048
147.962164,5329.482782,7994.224174,842.705048
147.962485,5329.482782,9326.594869,-536.266849
147.962805,5995.668130,8808.450710,-1149.143247
147.963126,5551.544565,7994.224174,-689.485948
147.963447,4589.276840,6957.935855,383.047749
147.963767,4219.173869,6735.874072,842.705048
147.964088,5625.565159,7624.121203,76.609550
147.964409,5995.668130,8438.347739,-842.705048
147.964729,5107.421000,7254.018232,-1838.629195
147.965050,5033.400406,6883.915261,-1302.362347
147.965370,4737.318029,7328.038826,306.438199
147.965691,4737.318029,8364.327145,842.705048
147.966012,6439.791695,9030.512492,0.000000
147.966332,6217.729913,8586.388927,-995.924147
147.966653,4811.338623,8142.265362,-1149.143247
147.966974,4145.153275,7772.162391,-153.219100
147.967294,5033.400406,7328.038826,1072.533697
147.967615,4885.359217,8438.347739,459.657299
147.967936,4737.318029,8586.388927,153.219100
147.968256,4441.235652,8068.244768,-842.705048
147.968577,3552.988522,8734.430116,229.828649
147.968897,1702.473667,8438.347739,919.314598
147.969218,3478.967927,9104.533087,1838.629195
147.969539,4293.194464,9992.780217,0.000000
147.969859,3849.070898,9622.677246,-1149.143247
147.970180,3849.070898,8882.471304,306.438199
147.970501,2886.803174,7772.162391,995.924147
147.970821,2738.761985,8068.244768,1455.581446
147.971142,4219.173869,8956.491898,612.876398
147.971462,4959.379811,9400.615463,-2145.067394
147.971783,5255.462188,9326.594869,-2451.505594
147.972104,5625.565159,8290.306550,0.000000
147.972424,5403.503377,7624.121203,1149.143247
147.972745,5033.400406,7105.977043,1072.533697
147.973066,4885.359217,7624.121203,-459.657299
147.973386,5329.482782,8438.347739,-1991.848295
147.973707,6439.791695,8808.450710,-1608.800546
147.974028,6513.812290,7772.162391,-383.047749
147.974348,5699.585753,6587.832884,0.000000
147.974669,6217.729913,7179.997637,306.438199
147.974989,6143.709319,8364.327145,0.000000
147.975310,5255.462188,7550.100608,-612.876398
147.975631,5033.400406,6661.853478,-842.705048
147.975951,5255.462188,5847.626942,-153.219100
147.976272,4811.338623,6735.874072,383.047749
147.976593,5625.565159,8734.430116,306.438199
147.976913,5995.668130,9474.636058,-1149.143247
147.977234,5477.523971,8882.471304,-1915.238745
147.977555,5477.523971,7402.059420,-153.219100
147.977875,4071.132681,6957.935855,995.924147
147.978196,3923.091493,6735.874072,995.924147
147.978516,5181.441594,8512.368333,0.000000
147.978837,5625.565159,9548.656652,-1302.362347
147.979158,5403.503377,9178.553681,-1072.533697
147.979478,4959.379811,7179.997637,-612.876398
147.979799,4293.194464,7105.977043,536.266849
147.980120,4663.297435,8586.388927,1378.971896
147.980440,5255.462188,9474.636058,229.828649
147.980761,5921.647536,9030.512492,-1225.752797
147.981082,5847.626942,8364.327145,-919.314598
147.981402,5477.523971,7920.203579,0.000000
147.981723,4737.318029,7328.038826,1072.533697
147.982043,4959.379811,8068.244768,1072.533697
147.982364,5847.626942,8734.430116,-383.047749
147.982685,5847.626942,8216.285956,-995.924147
147.983005,5329.482782,7328.038826,-536.266849
147.983326,5403.503377,7105.977043,0.000000
147.983647,4885.359217,7994.224174,919.314598
147.983967,5847.626942,8808.450710,536.266849
147.984288,5921.647536,9326.594869,-153.219100
147.984608,5255.462188,9030.512492,-766.095498
147.984929,4145.153275,8512.368333,0.000000
147.985250,4293.194464,7994.224174,536.266849
147.985570,3849.070898,8068.244768,536.266849
147.985891,4367.215058,9030.512492,-536.266849
147.986212,4737.318029,8808.450710,-1762.019645
147.986532,3478.967927,8438.347739,-1149.143247
147.986853,2072.576638,7698.141797,383.047749
147.987174,3256.906145,7846.182985,2068.457845
147.987494,4293.194464,8808.450710,1072.533697
147.987815,4663.297435,8956.491898,-383.047749
147.988135,5551.544565,9474.636058,-306.438199
147.988456,5181.441594,8586.388927,459.657299
147.988777,3478.967927,6735.874072,689.485948
147.989097,4071.132681,5847.626942,919.314598
147.989418,6143.709319,7402.059420,0.000000
147.989739,5625.565159,9104.533087,-842.705048
147.990059,5181.441594,8956.491898,-689.485948
147.990380,6735.874072,6809.894666,-1225.752797
147.990701,5625.565159,5477.523971,0.000000
147.991021,5995.668130,6439.791695,1302.362347
147.991342,6883.915261,8290.306550,612.876398
147.991662,6217.729913,7994.224174,-1225.752797
147.991983,6587.832884,7624.121203,-995.924147
147.992304,6809.894666,7550.100608,-229.828649
147.992624,5551.544565,6439.791695,459.657299
147.992945,5329.482782,6809.894666,153.219100
147.993266,5773.606348,7179.997637,-383.047749
147.993586,6069.688724,7550.100608,-995.924147
147.993907,5477.523971,6957.935855,0.000000
147.994228,4589.276840,6069.688724,0.000000
147.994548,4219.173869,7772.162391,0.000000
147.994869,5551.544565,9622.677246,612.876398
147.995189,5847.626942,9696.697840,-383.047749
147.995510,5773.606348,8290.306550,-1072.533697
147.995831,5477.523971,7624.121203,76.609550
147.996151,3775.050304,8142.265362,689.485948
147.996472,3182.885551,8660.409521,459.657299
147.996793,5403.503377,8660.409521,0.000000
147.997113,6143.709319,8438.347739,-1072.533697
147.997434,5625.565159,8068.244768,-995.924147
147.997754,4219.173869,8068.244768,-229.828649
147.998075,4145.153275,8216.285956,306.438199
147.998396,4367.215058,8734.430116,919.314598
147.998716,5847.626942,8068.244768,536.266849
147.999037,6143.709319,7994.224174,-536.266849
147.999358,4737.318029,8290.306550,-536.266849
147.999678,3997.112087,8808.450710,-229.828649
147.999999,4071.132681,8660.409521,0.000000
148.000320,5625.565159,8882.471304,-766.095498
148.000640,6291.750507,8660.409521,-1608.800546
148.000961,5477.523971,7994.224174,-995.924147
148.001282,4293.194464,7846.182985,-229.828649
148.001602,3256.906145,7179.997637,459.657299
148.001923,4589.276840,7920.203579,536.266849
148.002244,5699.585753,8808.450710,-919.314598
148.002564,5477.523971,9326.594869,-1378.971896
148.002885,4811.338623,9474.636058,-842.705048
148.003206,4441.235652,8364.327145,383.047749
148.003526,4219.173869,6735.874072,919.314598
148.003847,4885.359217,7105.977043,842.705048
148.004168,5329.482782,7624.121203,76.609550
148.004489,4663.297435,8364.327145,-1225.752797
148.004809,4367.215058,7698.141797,-689.485948
148.005130,4885.359217,6587.832884,689.485948
148.005451,5699.585753,6957.935855,1991.848295
148.005771,5921.647536,8438.347739,1072.533697
148.006092,6365.771101,8882.471304,-1378.971896
148.006413,6069.688724,8438.347739,-1149.143247
148.006733,6661.853478,7772.162391,536.266849
148.007054,5625.565159,5699.585753,995.924147
148.007375,5921.647536,6143.709319,919.314598
148.007695,5847.626942,7624.121203,-766.095498
148.008016,5477.523971,8438.347739,-1991.848295
148.008337,5773.606348,7105.977043,-1072.533697
148.008657,5403.503377,5625.565159,-229.828649
148.008978,5403.503377,5847.626942,459.657299
148.009299,6661.853478,7550.100608,536.266849
148.009619,6809.894666,9104.533087,-1072.533697
148.009940,5477.523971,7994.224174,-2068.457845
148.010261,6291.750507,7550.100608,-689.485948
148.010581,5995.668130,7624.121203,689.485948
148.010902,4219.173869,7105.977043,536.266849
148.011223,5477.523971,7550.100608,-383.047749
148.011543,6143.709319,8512.368333,-995.924147
148.011864,4811.338623,8290.306550,-1915.238745
148.012185,4441.235652,7254.018232,-153.219100
148.012505,4663.297435,7105.977043,153.219100
148.012826,4959.379811,8734.430116,1149.143247
148.013147,4885.359217,10732.986159,612.876398
148.013467,3849.070898,9844.739029,-995.924147
148.013788,4145.153275,8882.471304,-1608.800546
148.014109,3627.009116,9178.553681,919.314598
148.014429,2960.823768,8882.471304,1455.581446
148.014750,4663.297435,8290.306550,153.219100
148.015071,4515.256246,7994.224174,-1149.143247
148.015391,3478.967927,8290.306550,-2068.457845
148.015712,3404.947333,8142.265362,-459.657299
148.016033,3775.050304,7105.977043,306.438199
148.016353,4441.235652,7920.203579,689.485948
148.016674,6661.853478,9696.697840,306.438199
148.016995,6513.812290,11177.109724,-1149.143247
148.017315,5625.565159,9474.636058,-2221.676944
148.017636,5255.462188,7772.162391,-842.705048
148.017957,5033.400406,7402.059420,459.657299
148.018277,4737.318029,7254.018232,153.219100
148.018598,5477.523971,8586.388927,-842.705048
148.018919,5773.606348,8882.471304,-1762.019645
148.019239,4959.379811,8512.368333,-842.705048
148.019560,4737.318029,6217.729913,229.828649
148.019881,4959.379811,5625.565159,689.485948
148.020201,5255.462188,7031.956449,689.485948
148.020522,5921.647536,8438.347739,0.000000
148.020843,5921.647536,9400.615463,-766.095498
148.021163,5625.565159,9030.512492,-383.047749
148.021484,4885.359217,7920.203579,229.828649
148.021805,4441.235652,7698.141797,1072.533697
148.022125,4959.379811,8364.327145,995.924147
148.022446,4515.256246,8734.430116,0.000000
148.022767,4293.194464,7402.059420,-1072.533697
148.023087,4219.173869,6883.915261,-995.924147
148.023408,3552.988522,7179.997637,459.657299
148.023729,4367.215058,8364.327145,766.095498
148.024049,5255.462188,9622.677246,0.000000
148.024370,5255.462188,9696.697840,-536.266849
148.024691,5329.482782,9178.553681,153.219100
148.025011,4219.173869,8512.368333,842.705048
148.025332,3775.050304,7846.182985,459.657299
148.025653,5181.441594,8660.409521,76.609550
148.025973,5033.400406,8290.306550,-536.266849
148.026294,5033.400406,6957.935855,-689.485948
148.026615,5699.585753,7031.956449,0.000000
148.026935,3330.926739,6587.832884,536.266849
148.027256,4071.132681,7105.977043,153.219100
148.027577,5995.668130,8364.327145,0.000000
148.027897,5551.544565,8364.327145,-1302.362347
148.028218,5773.606348,7846.182985,-1302.362347
148.028539,6439.791695,8142.265362,0.000000
148.028859,4441.235652,8068.244768,459.657299
148.029180,4293.194464,7920.203579,689.485948
148.029501,6217.729913,8290.306550,-536.266849
148.029822,5995.668130,8364.327145,-1685.410096
148.030142,4737.318029,7105.977043,-1302.362347
148.030463,5107.421000,6513.812290,-383.047749
148.030784,4885.359217,6143.709319,0.000000
148.031104,4441.235652,7179.997637,459.657299
148.031425,5625.565159,8734.430116,-766.095498
148.031746,6217.729913,9548.656652,-2145.067394
148.032066,4959.379811,9104.533087,-1225.752797
148.032387,5477.523971,7920.203579,0.000000
148.032708,4737.318029,7179.997637,153.219100
148.033028,4959.379811,7698.141797,0.000000
148.033349,5181.441594,8956.491898,-306.438199
148.033670,4811.338623,9178.553681,-995.924147
148.033990,4145.153275,8882.471304,-995.924147
148.034311,3775.050304,8808.450710,-459.657299
148.034632,3701.029710,8660.409521,0.000000
148.034952,4663.297435,9030.512492,536.266849
148.035273,5033.400406,9252.574275,689.485948
148.035594,4589.276840,9400.615463,-306.438199
148.035914,3701.029710,8290.306550,0.000000
148.036235,3108.864956,8364.327145,-383.047749
148.036556,4441.235652,9548.656652,76.609550
148.036876,5181.441594,9992.780217,0.000000
148.037197,5403.503377,8290.306550,-306.438199
148.037518,4811.338623,6809.894666,-306.438199
148.037838,3997.112087,6661.853478,153.219100
148.038159,3923.091493,8438.347739,76.609550
148.038480,4367.215058,9030.512492,0.000000
148.038800,5921.647536,8438.347739,-1302.362347
148.039121,7179.997637,8438.347739,-766.095498
148.039442,6291.750507,8216.285956,-306.438199
148.039762,4737.318029,7920.203579,-612.876398
148.040083,5033.400406,7772.162391,-842.705048
148.040404,5551.544565,7920.203579,-1378.971896
148.040724,5625.565159,7179.997637,-995.924147
148.041045,6069.688724,6809.894666,0.000000
148.041366,5625.565159,6735.874072,689.485948
148.041686,4367.215058,7920.203579,383.047749
148.042007,5107.421000,8364.327145,0.000000
148.042328,5329.482782,7624.121203,-1838.629195
148.042648,4959.379811,7328.038826,-1378.971896
148.042969,4737.318029,7624.121203,919.314598
148.043290,3997.112087,7846.182985,1455.581446
148.043610,2812.782580,8660.409521,612.876398
148.043931,4367.215058,9400.615463,-229.828649
148.044252,5329.482782,9622.677246,-1302.362347
148.044572,4071.132681,9400.615463,-689.485948
148.044893,3478.967927,8068.244768,842.705048
148.045214,3034.844362,7105.977043,1072.533697
148.045534,3923.091493,7476.080014,1762.019645
148.045855,4589.276840,8660.409521,919.314598
148.046176,4293.194464,8882.471304,-1149.143247
148.046496,4885.359217,8882.471304,-1378.971896
148.046817,4663.297435,8808.450710,459.657299
148.047138,4145.153275,7402.059420,1532.190996
148.047458,5551.544565,7698.141797,612.876398
148.047779,5773.606348,8438.347739,-612.876398
148.048100,5107.421000,8438.347739,-1455.581446
148.048420,6069.688724,8216.285956,-1149.143247
148.048741,5625.565159,7550.100608,-383.047749
148.049062,4737.318029,7179.997637,383.047749
148.049382,6069.688724,8364.327145,306.438199
148.049703,5921.647536,8956.491898,-995.924147
148.050024,5403.503377,8290.306550,-1072.533697
148.050344,5625.565159,7179.997637,306.438199
148.050665,4737.318029,7105.977043,229.828649
148.050986,4219.173869,7920.203579,229.828649
148.051306,5255.462188,9104.533087,306.438199
148.051627,5551.544565,8808.450710,-153.219100
148.051948,5033.400406,7550.100608,0.000000
148.052268,4367.215058,6439.791695,459.657299
148.052589,4071.132681,7328.038826,689.485948
148.052910,3775.050304,8808.450710,153.219100
148.053230,4737.318029,9326.594869,-76.609550
148.053551,6809.894666,8512.368333,-76.609550
148.053872,5847.626942,7994.224174,0.000000
148.054192,4293.194464,7105.977043,306.438199
148.054513,3849.070898,8142.265362,536.266849
148.054834,4219.173869,8142.265362,-76.609550
148.055154,5403.503377,7624.121203,-612.876398
148.055475,5403.503377,7254.018232,-766.095498
148.055796,4885.359217,6143.709319,-766.095498
148.056117,4663.297435,6587.832884,76.609550
148.056437,5181.441594,8142.265362,0.000000
148.056758,6365.771101,8586.388927,-1072.533697
148.057079,6957.935855,8512.368333,-1608.800546
148.057399,6661.853478,8068.244768,-1302.362347
148.057720,5477.523971,7476.080014,-536.266849
148.058041,4959.379811,7105.977043,459.657299
148.058361,5403.503377,7328.038826,-306.438199
148.058682,5255.462188,8216.285956,-1838.629195
148.059003,5181.441594,8808.450710,-2374.896044
148.059323,4515.256246,9178.553681,-1455.581446
148.059644,3997.112087,7994.224174,1302.362347
148.059965,4219.173869,8142.265362,1838.629195
148.060285,4441.235652,8142.265362,612.876398
148.060606,3627.009116,8660.409521,-1149.143247
148.060927,3552.988522,9770.718434,-1072.533697
148.061247,4219.173869,9622.677246,536.266849
148.061568,4145.153275,9030.512492,1149.143247
148.061889,4663.297435,8364.327145,1378.971896
148.062209,5329.482782,8660.409521,306.438199
148.062530,3997.112087,8734.430116,-459.657299
148.062851,3627.009116,8512.368333,0.000000
148.063171,4441.235652,7994.224174,459.657299
148.063492,4441.235652,7402.059420,919.314598
148.063813,4959.379811,7698.141797,536.266849
148.064133,6439.791695,8808.450710,-766.095498
148.064454,4811.338623,9474.636058,-1838.629195
148.064775,4959.379811,7698.141797,-995.924147
148.065095,5625.565159,7105.977043,0.000000
148.065416,5551.544565,6957.935855,-306.438199
148.065737,5921.647536,8142.265362,-383.047749
148.066057,6069.688724,9326.594869,-536.266849
148.066378,4737.318029,8586.388927,-2757.943793
148.066699,4811.338623,6957.935855,-766.095498
148.067019,5181.441594,6143.709319,459.657299
148.067340,5329.482782,6809.894666,1225.752797
148.067661,5551.544565,7698.141797,-459.657299
148.067981,5255.462188,8216.285956,-1455.581446
148.068302,5773.606348,8586.388927,-1225.752797
148.068623,5329.482782,7846.182985,229.828649
148.068943,5107.421000,6513.812290,1149.143247
148.069264,5699.585753,7105.977043,536.266849
148.069585,5921.647536,8734.430116,-153.219100
148.069905,4367.215058,9104.533087,-459.657299
148.070226,4441.235652,7328.038826,-919.314598
148.070547,5403.503377,6365.771101,-612.876398
148.070867,5255.462188,7179.997637,536.266849
148.071188,5477.523971,8586.388927,153.219100
148.071509,5699.585753,9548.656652,-383.047749
148.071829,4885.359217,9474.636058,-1532.190996
148.072150,4589.276840,7920.203579,-383.047749
148.072471,4441.235652,6809.894666,766.095498
148.072791,4737.318029,7105.977043,1378.971896
148.073112,4885.359217,8956.491898,842.705048
148.073433,4737.318029,9400.615463,-842.705048
148.073753,5033.400406,8660.409521,-1762.019645
148.074074,4959.379811,7550.100608,0.000000
148.074395,4959.379811,6735.874072,1302.362347
148.074715,5255.462188,7624.121203,1072.533697
148.075036,5847.626942,8734.430116,-919.314598
148.075357,5033.400406,9696.697840,-1838.629195
148.075677,5995.668130,7624.121203,-536.266849
148.075998,6069.688724,7328.038826,766.095498
148.076319,6439.791695,7772.162391,1685.410096
148.076639,5181.441594,8882.471304,0.000000
148.076960,5995.668130,9178.553681,-1991.848295
148.077281,5625.565159,7550.100608,-2068.457845
148.077601,5255.462188,6217.729913,0.000000
148.077922,5477.523971,6291.750507,1455.581446
148.078243,4885.359217,7994.224174,689.485948
148.078563,4737.318029,8364.327145,-383.047749
148.078884,5107.421000,9400.615463,-612.876398
148.079205,5329.482782,8882.471304,76.609550
148.079525,4515.256246,7105.977043,229.828649
148.079846,4737.318029,7105.977043,1302.362347
148.080167,4663.297435,8734.430116,612.876398
148.080487,4737.318029,9326.594869,-995.924147
148.080808,4219.173869,8216.285956,-1455.581446
148.081129,4441.235652,7254.018232,-612.876398
148.081450,4515.256246,7328.038826,1532.190996
148.081770,4071.132681,7920.203579,1915.238745
148.082091,4367.215058,8216.285956,-842.705048
148.082412,5107.421000,8660.409521,-2221.676944
148.082732,5551.544565,8586.388927,-842.705048
148.083053,4811.338623,7624.121203,1072.533697
148.083374,4145.153275,5847.626942,1685.410096
148.083694,5033.400406,6291.750507,919.314598
148.084015,5477.523971,8216.285956,-842.705048
148.084336,4885.359217,8660.409521,-1455.581446
148.084656,6291.750507,7698.141797,-1838.629195
148.084977,6439.791695,6439.791695,229.828649
148.085298,6217.729913,6217.729913,995.924147
148.085618,6587.832884,7105.977043,229.828649
148.085939,5625.565159,8734.430116,-1915.238745
148.086260,5033.400406,9474.636058,-2298.286494
148.086580,5551.544565,8512.368333,-612.876398
148.086901,6365.771101,6587.832884,459.657299
148.087222,5773.606348,6883.915261,459.657299
148.087542,4515.256246,8660.409521,0.000000
148.087863,3627.009116,9474.636058,-1225.752797
148.088184,3552.988522,8882.471304,-1302.362347
148.088504,4367.215058,7328.038826,0.000000
148.088825,4663.297435,6587.832884,536.266849
148.089146,5107.421000,8364.327145,0.000000
148.089466,4367.215058,10288.862594,-919.314598
148.089787,4071.132681,9844.739029,-1149.143247
148.090108,4663.297435,8808.450710,-306.438199
148.090428,4885.359217,7254.018232,1225.752797
148.090749,4959.379811,7402.059420,842.705048
148.091070,4663.297435,8290.306550,-612.876398
148.091390,4737.318029,9844.739029,-2451.505594
148.091711,5551.544565,8956.491898,-2374.896044
148.092032,6957.935855,7328.038826,0.000000
148.092352,6661.853478,6217.729913,1149.143247
148.092673,5773.606348,6883.915261,612.876398
148.092994,5329.482782,8734.430116,-842.705048
148.093314,5847.626942,9548.656652,-2451.505594
148.093635,6143.709319,8882.471304,-1991.848295
148.093956,6587.832884,7254.018232,0.000000
148.094276,6069.688724,6883.915261,1149.143247
148.094597,5403.503377,7772.162391,153.219100
148.094918,4663.297435,8882.471304,-1225.752797
148.095238,4737.318029,8734.430116,-2221.676944
148.095559,5477.523971,7328.038826,-1378.971896
148.095880,5403.503377,6587.832884,919.314598
148.096200,5921.647536,6513.812290,2068.457845
148.096521,5329.482782,7698.141797,612.876398
148.096842,4441.235652,9252.574275,-995.924147
148.097162,4663.297435,10510.924376,-1378.971896
148.097483,4515.256246,9400.615463,-536.266849
148.097804,4441.235652,7179.997637,919.314598
148.098125,5477.523971,6661.853478,1838.629195
148.098445,5033.400406,8142.265362,995.924147
148.098766,3404.947333,9178.553681,-612.876398
148.099087,3182.885551,9030.512492,-612.876398
148.099408,4293.194464,8438.347739,229.828649
148.099729,5033.400406,7846.182985,1378.971896
148.100050,4737.318029,7994.224174,1762.019645
148.100371,5107.421000,8364.327145,-536.266849
148.100691,4811.338623,9104.533087,-1608.800546
148.101012,4071.132681,7772.162391,0.000000
148.101333,4959.379811,6439.791695,995.924147
148.101654,5847.626942,6291.750507,1378.971896
148.101975,5255.462188,7994.224174,459.657299
148.102296,4737.318029,9400.615463,-1149.143247
148.102617,5033.400406,8438.347739,-1685.410096
148.102937,6217.729913,6735.874072,-153.219100
148.103258,5847.626942,5329.482782,1149.143247
148.103579,5699.585753,5995.668130,689.485948
148.103900,5181.441594,9030.512492,-1072.533697
148.104221,4885.359217,10214.842000,-2221.676944
148.104542,4589.276840,8956.491898,-1378.971896
148.104863,6735.874072,6439.791695,306.438199
148.105183,6143.709319,6365.771101,1762.019645
148.105504,5181.441594,7846.182985,1225.752797
148.105825,3478.967927,8956.491898,-306.438199
148.106146,3627.009116,8660.409521,-1685.410096
148.106467,4737.318029,7254.018232,-689.485948
148.106788,4737.318029,6069.688724,919.314598
148.107108,5255.462188,7105.977043,1302.362347
148.107429,4737.318029,8512.368333,0.000000
148.107750,4367.215058,9326.594869,-1608.800546
148.108071,5847.626942,9548.656652,-1608.800546
148.108392,5033.400406,7476.080014,-383.047749
148.108713,4885.359217,6735.874072,1378.971896
148.109034,5551.544565,8216.285956,1225.752797
148.109354,4737.318029,9918.759623,0.000000
148.109675,4515.256246,9770.718434,-1991.848295
148.109996,5107.421000,8068.244768,-2374.896044
148.110317,5551.544565,6735.874072,-919.314598
148.110638,5107.421000,7254.018232,1149.143247
148.110959,4737.318029,7994.224174,612.876398
148.111280,5551.544565,8882.471304,-1532.190996
148.111600,5329.482782,9622.677246,-1225.752797
148.111921,5329.482782,9326.594869,153.219100
148.112242,4959.379811,7920.203579,612.876398
148.112563,4737.318029,8068.244768,459.657299
148.112884,4441.235652,9474.636058,536.266849
148.113205,3552.988522,9474.636058,-1302.362347
148.113526,3849.070898,9030.512492,-1838.629195
148.113846,4737.318029,8586.388927,-612.876398
148.114167,3775.050304,8512.368333,459.657299
148.114488,3849.070898,8734.430116,306.438199
148.114809,3923.091493,9918.759623,229.828649
148.115130,3330.926739,10362.883188,-536.266849
148.115451,4145.153275,9548.656652,766.095498
148.115772,4293.194464,7772.162391,995.924147
148.116092,4145.153275,6883.915261,689.485948
148.116413,4811.338623,7846.182985,0.000000
148.116734,4737.318029,8290.306550,-689.485948
148.117055,4367.215058,7550.100608,-1685.410096
148.117376,5773.606348,7031.956449,-383.047749
148.117697,6735.874072,6587.832884,766.095498
148.118018,6661.853478,6439.791695,383.047749
148.118338,6587.832884,6957.935855,-229.828649
148.118659,7105.977043,8882.471304,-1378.971896
148.118980,6143.709319,8364.327145,-1608.800546
148.119301,6809.894666,6809.894666,-1072.533697
148.119622,7846.182985,5773.606348,0.000000
148.119943,5995.668130,6291.750507,-689.485948
148.120263,5181.441594,8290.306550,-1072.533697
148.120584,4885.359217,8882.471304,-1838.629195
148.120905,3923.091493,7328.038826,-1225.752797
148.121226,4737.318029,6883.915261,995.924147
148.121547,4811.338623,6217.729913,2451.505594
148.121868,3256.906145,7550.100608,383.047749
148.122189,3330.926739,9400.615463,-1072.533697
148.122509,3478.967927,9770.718434,-1378.971896
148.122830,4737.318029,8882.471304,-536.266849
148.123151,4811.338623,8068.244768,1455.581446
148.123472,3404.947333,7550.100608,1455.581446
148.123793,3701.029710,8808.450710,842.705048
148.124114,4367.215058,9474.636058,689.485948
148.124435,3997.112087,9770.718434,-229.828649
148.124755,4737.318029,8512.368333,-306.438199
148.125076,4885.359217,8438.347739,689.485948
148.125397,4589.276840,9178.553681,1072.533697
148.125718,4663.297435,8512.368333,919.314598
148.126039,5403.503377,8216.285956,-306.438199
148.126360,4959.379811,8142.265362,-1225.752797
148.126681,4737.318029,7994.224174,-612.876398
148.127001,5773.606348,7550.100608,919.314598
148.127322,5995.668130,7550.100608,383.047749
148.127643,5995.668130,8142.265362,229.828649
148.127964,6513.812290,8882.471304,-459.657299
148.128285,5033.400406,7994.224174,-1225.752797
148.128606,4737.318029,7105.977043,-536.266849
148.128927,5329.482782,6439.791695,766.095498
148.129247,5699.585753,7328.038826,-459.657299
148.129568,6143.709319,8882.471304,-1378.971896
148.129889,5329.482782,9474.636058,-1302.362347
148.130210,4589.276840,8808.450710,-689.485948
148.130531,5551.544565,8290.306550,1072.533697
148.130852,3775.050304,7402.059420,1149.143247
148.131173,3256.906145,7105.977043,-153.219100
148.131493,4515.256246,9104.533087,-306.438199
148.131814,3552.988522,9400.615463,-229.828649
148.132135,3404.947333,8216.285956,153.219100
148.132456,4367.215058,6883.915261,995.924147
148.132777,3849.070898,8068.244768,153.219100
148.133098,3701.029710,9326.594869,76.609550
148.133419,4367.215058,10214.842000,153.219100
148.133739,4737.318029,9400.615463,-536.266849
148.134060,4589.276840,7402.059420,536.266849
148.134381,4441.235652,6735.874072,1302.362347
148.134702,5181.441594,7994.224174,-229.828649
148.135023,4663.297435,9400.615463,-919.314598
148.135344,5403.503377,8438.347739,-1991.848295
148.135664,6439.791695,7031.956449,-1838.629195
148.135985,6217.729913,6661.853478,-229.828649
148.136306,5699.585753,7846.182985,536.266849
148.136627,6217.729913,9696.697840,0.000000
148.136948,6291.750507,9474.636058,-1302.362347
148.137269,6365.771101,8734.430116,-689.485948
148.137590,6365.771101,6957.935855,153.219100
148.137910,5329.482782,5255.462188,612.876398
148.138231,5255.462188,6143.709319,306.438199
148.138552,5107.421000,8438.347739,-536.266849
148.138873,5403.503377,9178.553681,-995.924147
148.139194,5181.441594,7698.141797,-689.485948
148.139515,5255.462188,6217.729913,383.047749
148.139836,6217.729913,7031.956449,1378.971896
148.140156,5551.544565,8660.409521,1072.533697
148.140477,4367.215058,8808.450710,-842.705048
148.140798,5477.523971,8438.347739,-1685.410096
148.141119,5625.565159,8586.388927,153.219100
148.141440,4515.256246,7772.162391,1378.971896
148.141761,4737.318029,7550.100608,1685.410096
148.142082,4441.235652,8142.265362,-536.266849
148.142402,3108.864956,9178.553681,-1991.848295
148.142723,4293.194464,8068.244768,-536.266849
148.143044,4663.297435,7031.956449,1149.143247
148.143365,4737.318029,6661.853478,1762.019645
148.143686,4811.338623,8290.306550,1225.752797
148.144007,4737.318029,10214.842000,-1532.190996
148.144328,4589.276840,9548.656652,-3064.381992
148.144648,5403.503377,8142.265362,-919.314598
148.144969,5921.647536,6587.832884,1378.971896
148.145290,5699.585753,6735.874072,1532.190996
148.145611,4737.318029,8290.306550,153.219100
148.145932,3627.009116,9474.636058,-3064.381992
148.146253,4441.235652,9104.533087,-2374.896044
148.146574,5699.585753,7846.182985,306.438199
148.146894,5625.565159,6217.729913,2145.067394
148.147215,5625.565159,6513.812290,1225.752797
148.147536,4737.318029,9326.594869,-306.438199
148.147857,3997.112087,10436.903782,-1532.190996
148.148178,4071.132681,8660.409521,-919.314598
148.148499,5477.523971,7105.977043,536.266849
148.148820,4737.318029,6365.771101,919.314598
148.149140,4515.256246,7920.203579,536.266849
148.149461,4293.194464,10288.862594,-612.876398
148.149782,3256.906145,9992.780217,-2068.457845
148.150103,4293.194464,8068.244768,-612.876398
148.150424,5255.462188,6365.771101,1532.190996
148.150745,5107.421000,7179.997637,2068.457845
148.151065,4367.215058,9474.636058,995.924147
148.151386,4515.256246,10362.883188,-612.876398
148.151707,5477.523971,9178.553681,-1838.629195
148.152028,5107.421000,7105.977043,76.609550
148.152349,5477.523971,5625.565159,1532.190996
148.152670,5329.482782,6587.832884,1225.752797
148.152991,5033.400406,8068.244768,-766.095498
148.153311,6365.771101,8660.409521,-1991.848295
148.153632,5847.626942,7698.141797,-1915.238745
148.153953,5847.626942,6365.771101,-459.657299
148.154274,6217.729913,6439.791695,1532.190996
148.154595,6217.729913,8216.285956,612.876398
148.154916,5033.400406,9844.739029,-919.314598
148.155237,5921.647536,9030.512492,-2068.457845
148.155557,6365.771101,7179.997637,-1762.019645
148.155878,6513.812290,6365.771101,76.609550
148.156199,5995.668130,6291.750507,1072.533697
148.156520,5477.523971,7105.977043,0.000000
148.156841,5107.421000,8586.388927,-1532.190996
148.157162,4737.318029,8142.265362,-919.314598
148.157483,4737.318029,6809.894666,76.609550
148.157803,5255.462188,6513.812290,766.095498
148.158124,5699.585753,8068.244768,1532.190996
148.158445,5995.668130,9474.636058,-153.219100
148.158766,5033.400406,9696.697840,-2221.676944
148.159087,4515.256246,7624.121203,-1685.410096
148.159408,4885.359217,7105.977043,229.828649
148.159729,5699.585753,7994.224174,2145.067394
148.160049,4959.379811,9104.533087,459.657299
148.160370,4811.338623,9918.759623,-1762.019645
148.160691,5033.400406,9918.759623,-2451.505594
148.161012,4293.194464,8882.471304,306.438199
148.161333,3775.050304,6735.874072,2528.115143
148.161654,3997.112087,6735.874072,1915.238745
148.161975,4367.215058,8438.347739,-153.219100
148.162295,3775.050304,9844.739029,-1608.800546
148.162616,4515.256246,10214.842000,-1532.190996
148.162937,6069.688724,9474.636058,459.657299
148.163258,4737.318029,7772.162391,1378.971896
148.163579,5181.441594,7476.080014,536.266849
148.163900,5181.441594,7772.162391,-612.876398
148.164220,4589.276840,9178.553681,-1915.238745
148.164541,4367.215058,8290.306550,-1378.971896
148.164862,5403.503377,6957.935855,229.828649
148.165183,5699.585753,7105.977043,1149.143247
148.165504,5329.482782,7994.224174,689.485948
148.165825,6143.709319,8808.450710,-766.095498
148.166146,5995.668130,9252.574275,-1608.800546
148.166466,5847.626942,8290.306550,-766.095498
148.166787,6365.771101,6291.750507,612.876398
148.167108,6439.791695,5403.503377,919.314598
148.167429,4885.359217,6143.709319,766.095498
148.167750,5255.462188,8808.450710,-612.876398
148.168071,4145.153275,9104.533087,-1685.410096
148.168392,4145.153275,7846.182985,-1608.800546
148.168712,6291.750507,6957.935855,0.000000
148.169033,5699.585753,7105.977043,612.876398
148.169354,4959.379811,8216.285956,153.219100
148.169675,4441.235652,9696.697840,-536.266849
148.169996,3849.070898,9326.594869,-1072.533697
148.170317,4441.235652,8586.388927,383.047749
148.170638,4293.194464,7994.224174,766.095498
148.170958,4589.276840,7698.141797,0.000000
148.171279,4293.194464,8956.491898,-459.657299
148.171600,3404.947333,9030.512492,-995.924147
148.171921,3775.050304,7920.203579,-766.095498
148.172242,4293.194464,6439.791695,306.438199
148.172563,4737.318029,7105.977043,306.438199
148.172884,4737.318029,9474.636058,459.657299
148.173204,4219.173869,10362.883188,0.000000
148.173525,4811.338623,9992.780217,76.609550
148.173846,6069.688724,7994.224174,459.657299
148.174167,5847.626942,6809.894666,1072.533697
148.174488,5107.421000,6735.874072,0.000000
148.174809,4737.318029,7402.059420,-1532.190996
148.175130,5477.523971,8216.285956,-2298.286494
148.175450,5329.482782,8142.265362,-1608.800546
148.175771,6143.709319,6957.935855,0.000000
148.176092,5773.606348,7254.018232,919.314598
148.176413,5995.668130,8512.368333,536.266849
148.176734,5255.462188,8660.409521,-536.266849
148.177055,4589.276840,8364.327145,-2451.505594
148.177376,5403.503377,7920.203579,-842.705048
148.177696,5699.585753,8216.285956,766.095498
148.178017,4589.276840,8290.306550,612.876398
148.178338,6069.688724,8808.450710,0.000000
148.178659,4737.318029,8660.409521,-1608.800546
148.178980,3034.844362,7846.182985,-1991.848295
148.179301,3997.112087,6735.874072,0.000000
148.179621,4959.379811,6883.915261,1455.581446
148.179942,4885.359217,7476.080014,1762.019645
148.180263,5921.647536,8438.347739,766.095498
148.180584,4589.276840,9030.512492,-2451.505594
148.180905,3923.091493,9178.553681,-2604.724693
148.181226,4589.276840,8882.471304,383.047749
148.181547,5181.441594,7846.182985,1455.581446
148.181867,6439.791695,7994.224174,689.485948
148.182188,5477.523971,8290.306550,-995.924147
148.182509,3923.091493,8586.388927,-2374.896044
148.182830,4515.256246,7772.162391,-1149.143247
148.183151,5107.421000,7476.080014,842.705048
148.183472,4811.338623,6143.709319,1685.410096
148.183793,6217.729913,6809.894666,459.657299
148.184113,5551.544565,9030.512492,-1225.752797
148.184434,4219.173869,9326.594869,-2298.286494
148.184755,5107.421000,8142.265362,-1302.362347
148.185076,5699.585753,7105.977043,0.000000
148.185397,5329.482782,7031.956449,153.219100
148.185718,5995.668130,8512.368333,306.438199
148.186039,4737.318029,9474.636058,-766.095498
148.186359,3701.029710,8956.491898,-1838.629195
148.186680,4663.297435,8068.244768,-536.266849
148.187001,5921.647536,7105.977043,842.705048
148.187322,5773.606348,7402.059420,612.876398
148.187643,5921.647536,8586.388927,-229.828649
148.187964,4737.318029,8956.491898,-1072.533697
148.188285,5033.400406,8290.306550,-612.876398
148.188605,4737.318029,7698.141797,1225.752797
148.188926,4811.338623,6587.832884,1532.190996
148.189247,5699.585753,7402.059420,995.924147
148.189568,5995.668130,9474.636058,383.047749
148.189889,3923.091493,8660.409521,-919.314598
148.190210,4219.173869,6143.709319,-689.485948
148.190531,5181.441594,5699.585753,0.000000
148.190851,5477.523971,7994.224174,536.266849
148.191172,4071.132681,9326.594869,76.609550
148.191493,5699.585753,9622.677246,-1302.362347
148.191814,5329.482782,8882.471304,-1455.581446
148.192135,4145.153275,7624.121203,-153.219100
148.192456,4367.215058,6735.874072,766.095498
148.192777,4515.256246,8068.244768,0.000000
148.193097,4145.153275,9474.636058,-459.657299
148.193418,3775.050304,9696.697840,-689.485948
148.193739,3034.844362,7994.224174,-1762.019645
148.194060,3330.926739,7550.100608,-383.047749
148.194381,2516.700203,7772.162391,1378.971896
148.194702,3478.967927,9548.656652,1225.752797
148.195022,4219.173869,10288.862594,-689.485948
148.195343,3404.947333,9474.636058,-1608.800546
148.195664,4071.132681,8808.450710,-459.657299
148.195985,4145.153275,9104.533087,1685.410096
148.196306,4145.153275,9474.636058,1225.752797
148.196627,4663.297435,9030.512492,0.000000
148.196948,4959.379811,8660.409521,-1149.143247
148.197268,4219.173869,8142.265362,-1072.533697
148.197589,3775.050304,6513.812290,1149.143247
148.197910,3775.050304,5551.544565,1455.581446
148.198231,5625.565159,7105.977043,612.876398
148.198552,6069.688724,9326.594869,-383.047749
148.198873,5255.462188,9474.636058,-1915.238745
148.199194,6439.791695,9178.553681,-1532.190996
148.199515,6365.771101,8142.265362,766.095498
148.199836,5921.647536,8068.244768,1378.971896
148.200156,6217.729913,7254.018232,229.828649
148.200477,5625.565159,7624.121203,-2068.457845
148.200798,4737.318029,8512.368333,-2911.162892
148.201119,4811.338623,7105.977043,-612.876398
148.201440,5255.462188,6735.874072,612.876398
148.201761,5699.585753,6587.832884,459.657299
148.202082,5773.606348,7476.080014,-536.266849
148.202403,5625.565159,7772.162391,-1685.410096
148.202723,5033.400406,7624.121203,-2145.067394
148.203044,5255.462188,7476.080014,459.657299
148.203365,5773.606348,6957.935855,1149.143247
148.203686,5847.626942,7402.059420,229.828649
148.204007,6217.729913,8660.409521,-689.485948
148.204328,5699.585753,9326.594869,-1072.533697
148.204649,4959.379811,7846.182985,-842.705048
148.204970,5551.544565,6439.791695,153.219100
148.205290,5699.585753,6809.894666,612.876398
148.205611,5699.585753,7402.059420,-153.219100
148.205932,5773.606348,8882.471304,-689.485948
148.206253,4959.379811,8438.347739,-1532.190996
148.206574,5255.462188,8290.306550,0.000000
148.206895,5255.462188,7994.224174,1455.581446
148.207216,4885.359217,7624.121203,689.485948
148.207537,6069.688724,8956.491898,-383.047749
148.207858,5625.565159,9770.718434,-689.485948
148.208178,4293.194464,9622.677246,-1455.581446
148.208499,3775.050304,7624.121203,-306.438199
148.208820,3997.112087,5847.626942,459.657299
148.209141,4737.318029,7105.977043,919.314598
148.209462,4959.379811,9178.553681,306.438199
148.209783,3997.112087,9622.677246,-919.314598
148.210104,4071.132681,9326.594869,-995.924147
148.210425,5995.668130,8512.368333,689.485948
148.210745,5551.544565,7179.997637,1149.143247
148.211066,5329.482782,6735.874072,536.266849
148.211387,5255.462188,8512.368333,-919.314598
148.211708,4293.194464,10066.800811,-1762.019645
148.212029,3182.885551,8586.388927,-1302.362347
148.212350,5329.482782,6587.832884,229.828649
148.212671,6883.915261,6957.935855,842.705048
148.212992,4737.318029,8438.347739,766.095498
148.213312,3775.050304,9178.553681,-612.876398
148.213633,5107.421000,8734.430116,-1455.581446
148.213954,5403.503377,7772.162391,76.609550
148.214275,5033.400406,6883.915261,1915.238745
148.214596,4737.318029,7624.121203,306.438199
148.214917,4071.132681,9178.553681,-1838.629195
148.215238,3182.885551,9844.739029,-612.876398
148.215559,3627.009116,8956.491898,1149.143247
148.215880,4737.318029,7328.038826,919.314598
148.216200,3478.967927,7254.018232,766.095498
148.216521,2220.617826,8734.430116,-306.438199
148.216842,2886.803174,10732.986159,-612.876398
148.217163,4367.215058,10732.986159,0.000000
148.217484,4367.215058,8142.265362,536.266849
148.217805,4737.318029,6809.894666,536.266849
148.218126,4663.297435,7698.141797,1072.533697
148.218447,3701.029710,9770.718434,383.047749
148.218767,3404.947333,8290.306550,-536.266849
148.219088,6069.688724,7328.038826,-842.705048
148.219409,5995.668130,6661.853478,0.000000
148.219730,4811.338623,6291.750507,383.047749
148.220051,5699.585753,7328.038826,153.219100
148.220372,6957.935855,8882.471304,-919.314598
148.220693,6069.688724,8586.388927,-1685.410096
148.221014,6661.853478,6661.853478,-995.924147
148.221334,6661.853478,6439.791695,0.000000
148.221655,5995.668130,6587.832884,383.047749
148.221976,6365.771101,8142.265362,76.609550
148.222297,6217.729913,8586.388927,-1915.238745
148.222618,5995.668130,7772.162391,-2374.896044
148.222939,5773.606348,7031.956449,-842.705048
148.223260,5625.565159,6513.812290,153.219100
148.223581,5329.482782,7105.977043,612.876398
148.223902,5403.503377,8660.409521,-306.438199
148.224222,5403.503377,9474.636058,-1685.410096
148.224543,4219.173869,8808.450710,-1608.800546
148.224864,4811.338623,8438.347739,306.438199
148.225185,5255.462188,8660.409521,1455.581446
148.225506,4737.318029,8882.471304,1302.362347
148.225827,4219.173869,9696.697840,-306.438199
148.226148,3478.967927,9696.697840,-1762.019645
148.226469,4145.153275,8216.285956,-612.876398
148.226789,4737.318029,7254.018232,1838.629195
148.227110,3997.112087,7328.038826,1915.238745
148.227431,4219.173869,8142.265362,153.219100
148.227752,4293.194464,9104.533087,-1685.410096
148.228073,5107.421000,8438.347739,-1762.019645
148.228394,6217.729913,7328.038826,229.828649
148.228715,7031.956449,6883.915261,1608.800546
148.229036,6439.791695,7328.038826,0.000000
148.229356,6069.688724,8364.327145,-1762.019645
148.229677,5403.503377,9326.594869,-2451.505594
148.229998,6439.791695,8734.430116,-1991.848295
148.230319,6439.791695,6735.874072,-306.438199
148.230640,5773.606348,5921.647536,612.876398
148.230961,5773.606348,6957.935855,-612.876398
148.231282,5995.668130,8882.471304,-1072.533697
148.231603,5181.441594,8660.409521,-1685.410096
148.231924,5181.441594,7698.141797,-229.828649
148.232244,5033.400406,6587.832884,919.314598
148.232565,5403.503377,7920.203579,1915.238745
148.232886,4515.256246,9252.574275,536.266849
148.233207,4071.132681,9474.636058,-1149.143247
148.233528,4515.256246,8512.368333,-1302.362347
148.233849,3775.050304,7476.080014,306.438199
148.234170,3404.947333,5995.668130,1455.581446
148.234491,4145.153275,7624.121203,1685.410096
148.234811,4293.194464,9770.718434,919.314598
148.235132,3552.988522,11325.150913,-1072.533697
148.235453,4293.194464,9844.739029,-153.219100
148.235774,4737.318029,7698.141797,842.705048
148.236095,4515.256246,6735.874072,2374.896044
148.236416,3997.112087,6883.915261,1991.848295
148.236737,4885.359217,8216.285956,-383.047749
148.237058,4737.318029,8734.430116,-1532.190996
148.237378,4293.194464,6809.894666,-1149.143247
148.237699,6143.709319,6365.771101,153.219100
148.238020,7179.997637,7328.038826,919.314598
148.238341,5699.585753,8216.285956,153.219100
148.238662,6069.688724,8364.327145,-1608.800546
148.238983,6291.750507,7698.141797,-2068.457845
148.239304,5995.668130,7179.997637,76.609550
148.239625,6291.750507,5921.647536,1608.800546
148.239946,6735.874072,6439.791695,0.000000
148.240266,6143.709319,8808.450710,-2374.896044
148.240587,4959.379811,9770.718434,-2451.505594
148.240908,4367.215058,8438.347739,-2068.457845
148.241229,5699.585753,6661.853478,383.047749
148.241550,5477.523971,6513.812290,2221.676944
148.241871,4589.276840,7105.977043,1149.143247
148.242192,4219.173869,8882.471304,-689.485948
148.242513,3256.906145,9474.636058,-1302.362347
148.242833,3923.091493,8660.409521,-383.047749
148.243154,5107.421000,7772.162391,1072.533697
148.243475,4589.276840,7994.224174,995.924147
148.243796,4367.215058,9030.512492,-306.438199
148.244117,3330.926739,9770.718434,-1072.533697
148.244438,3627.009116,9326.594869,-1225.752797
148.244759,4367.215058,7698.141797,612.876398
148.245080,4737.318029,6513.812290,1915.238745
148.245400,5181.441594,7772.162391,919.314598
148.245721,4737.318029,9548.656652,-995.924147
148.246042,4145.153275,9844.739029,-2145.067394
148.246363,5255.462188,8068.244768,-1302.362347
148.246684,6735.874072,6735.874072,459.657299
148.247005,5847.626942,6661.853478,842.705048
148.247326,5847.626942,7624.121203,-612.876398
148.247647,5551.544565,9474.636058,-1685.410096
148.247968,5477.523971,9918.759623,-1762.019645
148.248288,6291.750507,8586.388927,-995.924147
148.248609,7105.977043,7402.059420,76.609550
148.248930,5107.421000,6661.853478,-689.485948
148.249251,4219.173869,7328.038826,-612.876398
148.249572,4441.235652,8142.265362,-689.485948
148.249893,4959.379811,8364.327145,-919.314598
148.250214,5921.647536,8290.306550,-306.438199
148.250535,5847.626942,8216.285956,0.000000
148.250855,5403.503377,9326.594869,0.000000
148.251176,4885.359217,10140.821405,383.047749
148.251497,4515.256246,8956.491898,459.657299
148.251818,4219.173869,7328.038826,689.485948
148.252139,6143.709319,6587.832884,1685.410096
148.252460,4811.338623,6365.771101,1685.410096
148.252781,3701.029710,6809.894666,76.609550
148.253102,4959.379811,8734.430116,-766.095498
148.253422,5847.626942,10436.903782,-612.876398
148.253743,5625.565159,9474.636058,153.219100
148.254064,6513.812290,7328.038826,766.095498
148.254385,6957.935855,5773.606348,536.266849
148.254706,4515.256246,6735.874072,0.000000
148.255027,4219.173869,7772.162391,-153.219100
148.255348,4441.235652,7550.100608,-995.924147
148.255669,6291.750507,6809.894666,-612.876398
148.255990,7328.038826,6883.915261,919.314598
148.256310,6365.771101,7105.977043,76.609550
148.256631,4885.359217,8364.327145,-2068.457845
148.256952,4071.132681,9178.553681,-2221.676944
148.257273,4589.276840,7994.224174,-612.876398
148.257594,6661.853478,7105.977043,1378.971896
148.257915,6365.771101,6809.894666,2451.505594
148.258236,4367.215058,8068.244768,689.485948
148.258557,3108.864956,9474.636058,-1532.190996
148.258877,3775.050304,9178.553681,-2221.676944
148.259198,4589.276840,7328.038826,-383.047749
148.259519,5773.606348,5847.626942,1685.410096
148.259840,5033.400406,6439.791695,1608.800546
148.260161,3182.885551,8734.430116,0.000000
148.260482,2516.700203,10510.924376,-919.314598
148.260803,3775.050304,10436.903782,-689.485948
148.261124,5033.400406,8364.327145,536.266849
148.261444,5107.421000,7105.977043,1915.238745
148.261765,4737.318029,7624.121203,1149.143247
148.262086,4145.153275,8882.471304,76.609550
148.262407,3404.947333,9252.574275,-1838.629195
148.262728,4737.318029,7698.141797,-2068.457845
148.263049,5921.647536,6957.935855,-383.047749
148.263370,6069.688724,7105.977043,1302.362347
148.263691,5847.626942,8142.265362,1149.143247
148.264012,5329.482782,9400.615463,-689.485948
148.264332,4515.256246,8882.471304,-2528.115143
148.264653,5477.523971,7698.141797,-1762.019645
148.264974,5995.668130,6587.832884,-612.876398
148.265295,5921.647536,6735.874072,76.609550
148.265616,5551.544565,8364.327145,-306.438199
148.265937,5255.462188,9770.718434,-1915.238745
148.266258,4737.318029,9622.677246,-2451.505594
148.266579,5329.482782,8216.285956,-766.095498
148.266899,5551.544565,7846.182985,1378.971896
148.267220,4811.338623,7179.997637,1072.533697
148.267541,4293.194464,7698.141797,229.828649
148.267862,4219.173869,9474.636058,-1072.533697
148.268183,3997.112087,9474.636058,-1608.800546
148.268504,4663.297435,9104.533087,383.047749
148.268825,5403.503377,8290.306550,1072.533697
148.269146,5181.441594,8290.306550,536.266849
148.269466,4589.276840,9622.677246,-229.828649
148.269787,2590.720797,10140.821405,-842.705048
148.270108,2886.803174,8512.368333,-842.705048
148.270429,4663.297435,6957.935855,1072.533697
148.270750,5773.606348,7031.956449,2145.067394
148.271071,5477.523971,8512.368333,306.438199
148.271392,4885.359217,9844.739029,-1915.238745
148.271713,4441.235652,10066.800811,-2757.943793
148.272034,6735.874072,8586.388927,-459.657299
148.272354,7105.977043,5847.626942,1838.629195
148.272675,6957.935855,4145.153275,1302.362347
148.272996,7105.977043,7105.977043,-383.047749
148.273317,5995.668130,9474.636058,-1532.190996
148.273638,4293.194464,8216.285956,-2757.943793
148.273959,7179.997637,5329.482782,-995.924147
148.274280,8586.388927,5847.626942,842.705048
148.274601,7031.956449,7550.100608,1072.533697
148.274921,4441.235652,8364.327145,-1149.143247
148.275242,5329.482782,8734.430116,-2604.724693
148.275563,4219.173869,7994.224174,-1532.190996
148.275884,4737.318029,7031.956449,1762.019645
148.276205,4071.132681,6291.750507,2451.505594
148.276526,4071.132681,8290.306550,383.047749
148.276847,2590.720797,10436.903782,-842.705048
148.277168,2368.659014,9622.677246,-766.095498
148.277488,3552.988522,7624.121203,0.000000
148.277809,3627.009116,6365.771101,1072.533697
148.278130,3108.864956,6883.915261,1838.629195
148.278451,3997.112087,9030.512492,689.485948
148.278772,3256.906145,10955.047942,0.000000
148.279093,2960.823768,9696.697840,-383.047749
148.279414,4219.173869,6883.915261,383.047749
148.279735,5329.482782,6809.894666,1225.752797
148.280056,5033.400406,8216.285956,536.266849
148.280376,5181.441594,8660.409521,-1378.971896
148.280697,5107.421000,8586.388927,-3140.991542
148.281018,5773.606348,7920.203579,-1302.362347
148.281339,6069.688724,6661.853478,1378.971896
148.281660,6661.853478,6513.812290,2145.067394
148.281981,6439.791695,7624.121203,229.828649
148.282302,5181.441594,9326.594869,-2451.505594
148.282623,5107.421000,9104.533087,-2834.553343
148.282943,5995.668130,7920.203579,-766.095498
148.283264,6809.894666,6957.935855,842.705048
148.283585,6291.750507,7179.997637,1072.533697
148.283906,5551.544565,8142.265362,-919.314598
148.284227,3256.906145,9178.553681,-2374.896044
148.284548,3552.988522,8438.347739,-1302.362347
148.284869,4959.379811,7328.038826,1685.410096
148.285190,4959.379811,7179.997637,2374.896044
148.285511,4293.194464,8512.368333,689.485948
148.285831,4515.256246,10436.903782,-1225.752797
148.286152,3330.926739,10214.842000,-1915.238745
148.286473,3182.885551,9252.574275,-459.657299
148.286794,4293.194464,8364.327145,1072.533697
148.287115,4293.194464,7772.162391,1149.143247
148.287436,5403.503377,9474.636058,0.000000
148.287757,3849.070898,9992.780217,-536.266849
148.288078,3182.885551,9178.553681,-1378.971896
148.288398,4737.318029,7550.100608,1149.143247
148.288719,5551.544565,6439.791695,1685.410096
148.289040,6069.688724,7254.018232,919.314598
148.289361,5995.668130,8586.388927,-1072.533697
148.289682,5181.441594,9474.636058,-2528.115143
148.290003,5773.606348,8438.347739,-1608.800546
148.290324,6587.832884,6809.894666,919.314598
148.290645,7179.997637,6217.729913,689.485948
148.290965,6513.812290,6883.915261,-612.876398
148.291286,5477.523971,8734.430116,-1915.238745
148.291607,4811.338623,8882.471304,-1608.800546
148.291928,5329.482782,7476.080014,-612.876398
148.292249,6513.812290,5847.626942,842.705048
148.292570,6365.771101,5995.668130,536.266849
148.292891,5847.626942,7920.203579,-842.705048
148.293212,4589.276840,9104.533087,-1762.019645
148.293533,3997.112087,8438.347739,-1838.629195
148.293853,5329.482782,7328.038826,459.657299
148.294174,6143.709319,6513.812290,1915.238745
148.294495,5551.544565,6587.832884,1225.752797
148.294816,4737.318029,7920.203579,-536.266849
148.295137,3034.844362,7994.224174,-1915.238745
148.295458,3627.009116,8290.306550,-919.314598
148.295779,4885.359217,7698.141797,1378.971896
148.296100,5551.544565,7698.141797,1378.971896
148.296420,6365.771101,8216.285956,306.438199
148.296741,4811.338623,9918.759623,-1072.533697
148.297062,3701.029710,9474.636058,-1455.581446
148.297383,3997.112087,8512.368333,459.657299
148.297704,5255.462188,6661.853478,2068.457845
148.298025,5921.647536,6513.812290,1838.629195
148.298345,5773.606348,8290.306550,1072.533697
148.298666,4293.194464,9474.636058,-1838.629195
148.298987,3034.844362,9326.594869,-2834.553343
148.299308,4737.318029,7624.121203,-1072.533697
148.299629,6809.894666,6661.853478,1608.800546
148.299949,6809.894666,6735.874072,2528.115143
148.300270,5477.523971,7994.224174,-153.219100
148.300591,4441.235652,9622.677246,-1915.238745
148.300912,3997.112087,9918.759623,-1838.629195
148.301233,5551.544565,8660.409521,306.438199
148.301554,6661.853478,7105.977043,1149.143247
148.301874,6735.874072,7105.977043,-306.438199
148.302195,4515.256246,9474.636058,-1149.143247
148.302516,2294.638420,9696.697840,-1838.629195
148.302837,3108.864956,8660.409521,-689.485948
148.303158,4885.359217,7179.997637,1455.581446
148.303478,4589.276840,8068.244768,2068.457845
148.303799,4293.194464,9252.574275,919.314598
148.304120,2812.782580,10362.883188,-842.705048
148.304441,2294.638420,10288.862594,-1608.800546
148.304762,3627.009116,8734.430116,153.219100
148.305083,4737.318029,7105.977043,1302.362347
148.305403,4367.215058,6735.874072,229.828649
148.305724,4663.297435,8660.409521,0.000000
148.306045,3552.988522,10140.821405,-612.876398
148.306366,3404.947333,9178.553681,-612.876398
148.306687,4737.318029,7550.100608,229.828649
148.307007,6143.709319,6587.832884,1225.752797
148.307328,5995.668130,7179.997637,689.485948
148.307649,5329.482782,7698.141797,-689.485948
148.307970,5181.441594,8512.368333,-1762.019645
148.308291,5551.544565,7624.121203,-1455.581446
148.308612,6143.709319,6439.791695,0.000000
148.308932,8216.285956,7031.956449,-153.219100
148.309253,7846.182985,7698.141797,-842.705048
148.309574,6513.812290,7994.224174,-1608.800546
148.309895,4885.359217,7179.997637,-1149.143247
148.310216,5773.606348,5477.523971,76.609550
148.310536,6365.771101,4737.318029,1608.800546
148.310857,7105.977043,5995.668130,1302.362347
148.311178,5847.626942,8364.327145,-1302.362347
148.311499,4589.276840,9548.656652,-3447.429741
148.311820,4219.173869,8882.471304,-2451.505594
148.312141,5773.606348,7328.038826,153.219100
148.312461,6217.729913,6735.874072,2374.896044
148.312782,5329.482782,8068.244768,1915.238745
148.313103,3997.112087,9326.594869,-1149.143247
148.313424,2442.679609,9474.636058,-2451.505594
148.313745,3108.864956,7846.182985,-229.828649
148.314065,5329.482782,7105.977043,2374.896044
148.314386,5773.606348,7994.224174,2145.067394
148.314707,4811.338623,9474.636058,153.219100
148.315028,3478.967927,9770.718434,-1685.410096
148.315349,3923.091493,9548.656652,-1532.190996
148.315670,5551.544565,8142.265362,919.314598
148.315990,5477.523971,6439.791695,2451.505594
148.316311,5699.585753,6365.771101,1225.752797
148.316632,5921.647536,9030.512492,-766.095498
148.316953,4589.276840,10436.903782,-1378.971896
148.317274,5107.421000,8882.471304,-1455.581446
148.317594,7550.100608,7105.977043,-383.047749
148.317915,6439.791695,6439.791695,-306.438199
148.318236,6069.688724,6809.894666,153.219100
148.318557,6735.874072,8734.430116,-459.657299
148.318878,6069.688724,9030.512492,-2221.676944
148.319199,5699.585753,8660.409521,-1072.533697
148.319519,5995.668130,7994.224174,306.438199
148.319840,5403.503377,7920.203579,229.828649
148.320161,4441.235652,8216.285956,383.047749
148.320482,3849.070898,8660.409521,153.219100
148.320803,4071.132681,8586.388927,-1072.533697
148.321123,3034.844362,6957.935855,0.000000
148.321444,2738.761985,6069.688724,-459.657299
148.321765,4441.235652,7698.141797,153.219100
148.322086,4885.359217,10288.862594,536.266849
148.322407,3034.844362,11547.212695,-536.266849
148.322728,2294.638420,9992.780217,-842.705048
148.323048,3404.947333,8808.450710,995.924147
148.323369,3552.988522,7772.162391,2374.896044
148.323690,3182.885551,7105.977043,1915.238745
148.324011,4145.153275,7105.977043,-459.657299
148.324332,3404.947333,8882.471304,-1762.019645
148.324652,3849.070898,8290.306550,-995.924147
148.324973,5477.523971,7105.977043,1149.143247
148.325294,7476.080014,7105.977043,1302.362347
148.325615,7846.182985,8956.491898,995.924147
148.325936,6513.812290,8512.368333,-1072.533697
148.326256,5255.462188,6957.935855,-2604.724693
148.326577,7402.059420,6513.812290,-766.095498
148.326898,7624.121203,6069.688724,1378.971896
148.327219,7624.121203,5551.544565,1072.533697
148.327540,7846.182985,7105.977043,-1455.581446
148.327861,6069.688724,8290.306550,-3907.087040
148.328181,4885.359217,7698.141797,-1991.848295
148.328502,6069.688724,6217.729913,1915.238745
148.328823,6513.812290,5551.544565,2374.896044
148.329144,5995.668130,7105.977043,1532.190996
148.329465,4885.359217,8956.491898,-919.314598
148.329785,3849.070898,9178.553681,-2681.334243
148.330106,3923.091493,7920.203579,-842.705048
148.330427,4515.256246,7476.080014,1072.533697
148.330748,4959.379811,7550.100608,1225.752797
148.331069,4663.297435,8660.409521,-612.876398
148.331390,3330.926739,9622.677246,-1378.971896
148.331710,2368.659014,9326.594869,-919.314598
148.332031,3034.844362,8216.285956,1302.362347
148.332352,4367.215058,8142.265362,2834.553343
148.332673,4367.215058,8364.327145,1915.238745
148.332994,4589.276840,9770.718434,-612.876398
148.333314,3182.885551,10066.800811,-2451.505594
148.333635,3256.906145,8808.450710,-1608.800546
148.333956,5033.400406,7254.018232,766.095498
148.334277,5551.544565,7031.956449,1608.800546
148.334598,5107.421000,7994.224174,0.000000
148.334919,4959.379811,9548.656652,-1608.800546
148.335239,4885.359217,9992.780217,-2298.286494
148.335560,5255.462188,9252.574275,-1378.971896
148.335881,6661.853478,7698.141797,229.828649
148.336202,6957.935855,7476.080014,229.828649
148.336523,5847.626942,8068.244768,-766.095498
148.336843,4663.297435,8808.450710,-1455.581446
148.337164,4441.235652,8734.430116,-1532.190996
148.337485,4959.379811,7105.977043,153.219100
148.337806,6365.771101,6735.874072,1072.533697
148.338127,6587.832884,7994.224174,383.047749
148.338448,4959.379811,9326.594869,-842.705048
148.338768,3330.926739,9030.512492,-612.876398
148.339089,4441.235652,8512.368333,0.000000
148.339410,4145.153275,6883.915261,995.924147
148.339731,4959.379811,6587.832884,1225.752797
148.340052,6143.709319,7624.121203,0.000000
148.340372,3849.070898,9992.780217,-1302.362347
148.340693,2442.679609,9992.780217,-1532.190996
148.341014,3849.070898,9030.512492,383.047749
148.341335,5773.606348,7846.182985,995.924147
148.341656,5255.462188,7550.100608,1915.238745
148.341977,4811.338623,8586.388927,76.609550
148.342297,3923.091493,8660.409521,-2221.676944
148.342618,2886.803174,8290.306550,-306.438199
148.342939,4515.256246,7105.977043,1915.238745
148.343260,6217.729913,6587.832884,2298.286494
148.343581,5403.503377,7105.977043,689.485948
148.343901,4737.318029,9030.512492,-1915.238745
148.344222,4811.338623,9252.574275,-2528.115143
148.344543,5255.462188,9104.533087,-1378.971896
148.344864,6069.688724,7179.997637,459.657299
148.345185,6513.812290,6069.688724,383.047749
148.345506,6069.688724,7476.080014,-536.266849
148.345826,4737.318029,9622.677246,-689.485948
148.346147,4145.153275,8882.471304,-995.924147
148.346468,6587.832884,6735.874072,0.000000
148.346789,7402.059420,5255.462188,766.095498
148.347110,6291.750507,5625.565159,919.314598
148.347430,5773.606348,7105.977043,-383.047749
148.347751,5403.503377,8512.368333,-1532.190996
148.348072,5181.441594,8068.244768,-995.924147
148.348393,7031.956449,7550.100608,0.000000
148.348714,6365.771101,7105.977043,536.266849
148.349035,5329.482782,7624.121203,306.438199
148.349355,5551.544565,9030.512492,229.828649
148.349676,4071.132681,9178.553681,-459.657299
148.349997,3552.988522,7402.059420,-1302.362347
148.350318,4811.338623,5995.668130,-229.828649
148.350639,4737.318029,7105.977043,383.047749
148.350959,3775.050304,9030.512492,536.266849
148.351280,4441.235652,10955.047942,76.609550
148.351601,4219.173869,10436.903782,-1762.019645
148.351922,4071.132681,8586.388927,-766.095498
148.352243,4515.256246,6587.832884,1762.019645
148.352564,5107.421000,6883.915261,2068.457845
148.352884,3997.112087,8734.430116,229.828649
148.353205,2590.720797,9992.780217,-1838.629195
148.353526,3182.885551,9548.656652,-2987.772442
148.353847,4589.276840,8512.368333,-459.657299
148.354168,5033.400406,7920.203579,2068.457845
148.354488,5181.441594,8438.347739,1532.190996
148.354809,4737.318029,9918.759623,-1149.143247
148.355130,3849.070898,10510.924376,-2298.286494
148.355451,3701.029710,9474.636058,-1225.752797
148.355772,5181.441594,8734.430116,1455.581446
148.356093,5699.585753,8808.450710,2221.676944
148.356413,3478.967927,8586.388927,459.657299
148.356734,2960.823768,7920.203579,-1225.752797
148.357055,2738.761985,7994.224174,-1838.629195
148.357376,3775.050304,7328.038826,-383.047749
148.357697,5329.482782,6957.935855,1302.362347
148.358017,6365.771101,7920.203579,766.095498
148.358338,5255.462188,10140.821405,-1072.533697
148.358659,4737.318029,10436.903782,-1762.019645
148.358980,4515.256246,8734.430116,-612.876398
148.359301,5551.544565,7550.100608,1225.752797
148.359621,5625.565159,6883.915261,2834.553343
148.359942,6143.709319,7105.977043,766.095498
148.360263,4811.338623,6957.935855,-2221.676944
148.360584,3552.988522,6883.915261,-3217.601092
148.360905,4885.359217,7550.100608,-919.314598
148.361226,5921.647536,7105.977043,1685.410096
148.361546,6143.709319,5625.565159,2145.067394
148.361867,7328.038826,7254.018232,306.438199
148.362188,5329.482782,9252.574275,-1532.190996
148.362509,3701.029710,8586.388927,-1455.581446
148.362830,4663.297435,7105.977043,-536.266849
148.363150,7179.997637,6291.750507,459.657299
148.363471,7476.080014,6143.709319,306.438199
148.363792,6365.771101,7772.162391,-1532.190996
148.364113,4367.215058,9178.553681,-2911.162892
148.364434,3552.988522,9622.677246,-1838.629195
148.364755,3775.050304,7994.224174,919.314598
148.365075,5847.626942,6513.812290,2451.505594
148.365396,6513.812290,6809.894666,2298.286494
148.365717,4811.338623,8290.306550,306.438199
148.366038,2294.638420,9696.697840,-2451.505594
148.366359,2368.659014,8734.430116,-2528.115143
148.366679,4737.318029,8290.306550,383.047749
148.367000,5699.585753,7402.059420,1608.800546
148.367321,5551.544565,8734.430116,689.485948
148.367642,4589.276840,9844.739029,-1149.143247
148.367963,3404.947333,9844.739029,-2145.067394
148.368284,3849.070898,7994.224174,-766.095498
148.368604,5255.462188,6365.771101,1455.581446
148.368925,6069.688724,6587.832884,1225.752797
148.369246,6661.853478,9252.574275,76.609550
148.369567,5625.565159,11177.109724,-1838.629195
148.369888,4959.379811,10658.965565,-2298.286494
148.370208,5551.544565,8734.430116,-689.485948
148.370529,6365.771101,6587.832884,1149.143247
148.370850,6513.812290,6513.812290,1685.410096
148.371171,6217.729913,7920.203579,459.657299
148.371492,4219.173869,9474.636058,-1302.362347
148.371813,3330.926739,9178.553681,-1608.800546
148.372133,3552.988522,6809.894666,0.000000
148.372454,5773.606348,6809.894666,1532.190996
148.372775,5995.668130,7624.121203,1838.629195
148.373096,5255.462188,9548.656652,0.000000
148.373417,3478.967927,9622.677246,-2068.457845
148.373737,3552.988522,8068.244768,-1991.848295
148.374058,5181.441594,7105.977043,612.876398
148.374379,5625.565159,6809.894666,1532.190996
148.374700,5033.400406,7994.224174,-383.047749
148.375021,4737.318029,9104.533087,-1762.019645
148.375342,3034.844362,9030.512492,-1532.190996
148.375662,3478.967927,7254.018232,0.000000
148.375983,4959.379811,6069.688724,1762.019645
148.376304,5477.523971,7105.977043,229.828649
148.376625,4959.379811,8956.491898,-1302.362347
148.376946,3775.050304,10362.883188,-2068.457845
148.377266,3775.050304,9770.718434,-1455.581446
148.377587,4811.338623,7994.224174,842.705048
148.377908,4589.276840,7328.038826,1838.629195
148.378229,4515.256246,7550.100608,1149.143247
148.378550,4737.318029,9104.533087,-766.095498
148.378871,3478.967927,9178.553681,-1915.238745
148.379191,4071.132681,7846.182985,-383.047749
148.379512,5107.421000,6809.894666,995.924147
148.379833,5255.462188,6735.874072,842.705048
148.380154,5255.462188,8512.368333,0.000000
148.380475,4959.379811,9252.574275,-995.924147
148.380795,4145.153275,9622.677246,-1455.581446
148.381116,4737.318029,8216.285956,383.047749
148.381437,6513.812290,7846.182985,1838.629195
148.381758,6735.874072,7772.162391,995.924147
148.382079,5181.441594,8142.265362,-612.876398
148.382400,4589.276840,7846.182985,-1915.238745
148.382720,4441.235652,7994.224174,-919.314598
148.383041,4219.173869,6143.709319,1302.362347
148.383362,6069.688724,5477.523971,1838.629195
148.383683,7105.977043,7105.977043,459.657299
148.384004,6143.709319,8734.430116,-1378.971896
148.384324,4959.379811,9400.615463,-2221.676944
148.384645,5477.523971,7476.080014,-1225.752797
148.384966,7254.018232,5921.647536,229.828649
148.385287,7402.059420,7031.956449,1378.971896
148.385608,5699.585753,8068.244768,-306.438199
148.385929,4737.318029,9178.553681,-2911.162892
148.386249,4219.173869,8956.491898,-1532.190996
148.386570,4959.379811,7624.121203,383.047749
148.386891,5921.647536,5551.544565,2145.067394
148.387212,5329.482782,5773.606348,536.266849
148.387533,4145.153275,8364.327145,-1302.362347
148.387853,2886.803174,9474.636058,-1685.410096
148.388174,4145.153275,9400.615463,-766.095498
148.388495,5329.482782,8512.368333,383.047749
148.388816,4959.379811,8142.265362,1378.971896
148.389137,4811.338623,9104.533087,153.219100
148.389458,3552.988522,9400.615463,-1149.143247
148.389778,2516.700203,7920.203579,-1149.143247
148.390099,4737.318029,7031.956449,153.219100
148.390420,5625.565159,6735.874072,919.314598
148.390741,4589.276840,7772.162391,0.000000
148.391062,5033.400406,9696.697840,-1302.362347
148.391382,5921.647536,10214.842000,-1608.800546
148.391703,5255.462188,9474.636058,-919.314598
148.392024,6069.688724,7402.059420,1225.752797
148.392345,6143.709319,6439.791695,842.705048
148.392666,5995.668130,7031.956449,-612.876398
148.392986,5921.647536,8512.368333,-995.924147
148.393307,5403.503377,9844.739029,-1991.848295
148.393628,4219.173869,8512.368333,-2068.457845
148.393949,5033.400406,6957.935855,-229.828649
148.394270,6365.771101,7105.977043,1072.533697
148.394591,5699.585753,8290.306550,689.485948
148.394911,4811.338623,9622.677246,-612.876398
148.395232,3627.009116,9030.512492,-2298.286494
148.395553,4515.256246,8512.368333,-1225.752797
148.395874,5403.503377,7994.224174,2145.067394
148.396195,5551.544565,8660.409521,2604.724693
148.396515,5107.421000,9104.533087,536.266849
148.396836,3627.009116,9474.636058,-1608.800546
148.397157,2812.782580,8956.491898,-1225.752797
148.397478,3330.926739,7550.100608,689.485948
148.397799,4441.235652,6513.812290,2451.505594
148.398120,5329.482782,7105.977043,1915.238745
148.398440,4959.379811,9400.615463,229.828649
148.398761,2516.700203,10807.006753,-1608.800546
148.399082,2442.679609,8512.368333,-995.924147
148.399403,4811.338623,6809.894666,1532.190996
148.399724,6883.915261,6439.791695,2987.772442
148.400044,5921.647536,7328.038826,1455.581446
148.400365,5773.606348,8438.347739,-1915.238745
148.400686,4589.276840,9252.574275,-3370.820191
148.401006,3923.091493,7994.224174,-1685.410096
148.401327,6365.771101,4885.359217,919.314598
148.401648,7846.182985,4219.173869,2145.067394
148.401969,6883.915261,7179.997637,76.609550
148.402289,4219.173869,9104.533087,-2298.286494
148.402610,3552.988522,8512.368333,-2681.334243
148.402931,6587.832884,7402.059420,-689.485948
148.403251,7476.080014,6143.709319,2374.896044
148.403572,6513.812290,5773.606348,842.705048
148.403893,5551.544565,7846.182985,-2221.676944
148.404214,3775.050304,9992.780217,-2834.553343
148.404534,2516.700203,8660.409521,-306.438199
148.404855,6439.791695,6291.750507,2068.457845
148.405176,7105.977043,5847.626942,1685.410096
148.405496,5625.565159,7994.224174,153.219100
148.405817,4145.153275,9326.594869,-1072.533697
148.406138,4293.194464,8586.388927,-1532.190996
148.406458,5773.606348,7698.141797,76.609550
148.406779,6587.832884,7624.121203,2145.067394
148.407100,5699.585753,7476.080014,766.095498
148.407421,5995.668130,9104.533087,-1072.533697
148.407741,4885.359217,10436.903782,-229.828649
148.408062,3478.967927,9548.656652,-842.705048
148.408383,5255.462188,7031.956449,0.000000
148.408703,5625.565159,6143.709319,766.095498
148.409024,4737.318029,7476.080014,0.000000
148.409345,4885.359217,10066.800811,-689.485948
148.409666,4071.132681,10955.047942,-2451.505594
148.409986,3034.844362,9400.615463,-2221.676944
148.410307,5551.544565,7772.162391,842.705048
148.410628,5995.668130,8290.306550,1685.410096
148.410948,4145.153275,7920.203579,153.219100
148.411269,3849.070898,7624.121203,-1149.143247
148.411590,4663.297435,8364.327145,-2145.067394
148.411911,3552.988522,8734.430116,-995.924147
148.412231,4219.173869,7920.203579,459.657299
148.412552,6587.832884,7328.038826,-153.219100
148.412873,7031.956449,8660.409521,-306.438199
148.413193,5477.523971,9770.718434,229.828649
148.413514,4367.215058,8808.450710,-1072.533697
148.413835,4589.276840,7105.977043,-766.095498
148.414156,5847.626942,6883.915261,1608.800546
148.414476,5995.668130,7698.141797,2451.505594
148.414797,6069.688724,8734.430116,229.828649
148.415118,4367.215058,9474.636058,-2145.067394
148.415438,3701.029710,8808.450710,-2145.067394
148.415759,4441.235652,6661.853478,0.000000
148.416080,5477.523971,5699.585753,1608.800546
148.416401,6587.832884,6439.791695,1685.410096
148.416721,5329.482782,8586.388927,-229.828649
148.417042,4219.173869,9992.780217,-2145.067394
148.417363,3997.112087,9474.636058,-1072.533697
148.417683,5255.462188,7550.100608,689.485948
148.418004,6735.874072,6439.791695,1685.410096
148.418325,6143.709319,7105.977043,842.705048
148.418646,4589.276840,8068.244768,-1302.362347
148.418966,3108.864956,8290.306550,-1838.629195
148.419287,3849.070898,7105.977043,-612.876398
148.419608,5255.462188,6439.791695,1378.971896
148.419928,5329.482782,7031.956449,1608.800546
148.420249,5107.421000,8734.430116,0.000000
148.420570,4145.153275,9178.553681,-1378.971896
148.420890,4293.194464,8956.491898,-1378.971896
148.421211,5255.462188,8142.265362,0.000000
148.421532,5551.544565,6513.812290,536.266849
148.421853,5255.462188,7031.956449,0.000000
148.422173,5699.585753,8586.388927,-689.485948
148.422494,5107.421000,8956.491898,-1149.143247
148.422815,4959.379811,8808.450710,-536.266849
148.423135,5625.565159,7920.203579,1455.581446
148.423456,5699.585753,7031.956449,1225.752797
148.423777,6069.688724,7698.141797,536.266849
148.424098,4959.379811,8586.388927,-612.876398
148.424418,4293.194464,8290.306550,-1838.629195
148.424739,5033.400406,7624.121203,0.000000
148.425060,4663.297435,7328.038826,919.314598
148.425380,5181.441594,7994.224174,1455.581446
148.425701,5033.400406,9252.574275,-306.438199
148.426022,3849.070898,10288.862594,-1838.629195
148.426343,3256.906145,9696.697840,-1302.362347
148.426663,5181.441594,8068.244768,689.485948
148.426984,6587.832884,6069.688724,1225.752797
148.427305,6513.812290,5995.668130,689.485948
148.427625,4811.338623,7254.018232,-689.485948
148.427946,4071.132681,9992.780217,-2298.286494
148.428267,4219.173869,9474.636058,-919.314598
148.428588,6217.729913,7624.121203,919.314598
148.428908,8586.388927,6513.812290,1608.800546
148.429229,6513.812290,6513.812290,-306.438199
148.429550,4145.153275,8290.306550,-2221.676944
148.429870,3256.906145,8660.409521,-1838.629195
148.430191,5329.482782,7698.141797,-459.657299
148.430512,7550.100608,7105.977043,1302.362347
148.430833,6439.791695,7328.038826,306.438199
148.431153,5181.441594,7402.059420,-1532.190996
148.431474,5329.482782,8660.409521,-1225.752797
148.431795,5477.523971,7994.224174,383.047749
148.432115,7698.141797,6143.709319,1608.800546
148.432436,9474.636058,4293.194464,1838.629195
148.432757,8956.491898,5403.503377,-153.219100
148.433078,7772.162391,7402.059420,-153.219100
148.433398,7698.141797,7402.059420,-766.095498
148.433719,9474.636058,6143.709319,-689.485948
148.434040,11695.253884,4145.153275,842.705048
148.434360,10658.965565,4219.173869,612.876398
148.434681,9178.553681,4959.379811,-1225.752797
148.435002,8734.430116,6809.894666,-2374.896044
148.435322,8438.347739,7105.977043,-1608.800546
148.435643,9548.656652,6143.709319,536.266849
148.435964,10732.986159,5033.400406,1225.752797
148.436285,9918.759623,5773.606348,536.266849
148.436605,7179.997637,6809.894666,0.000000
148.436926,5995.668130,6735.874072,-306.438199
148.437247,5921.647536,5921.647536,0.000000
148.437567,7328.038826,4145.153275,229.828649
148.437888,9326.594869,4589.276840,1532.190996
148.438209,8438.347739,5477.523971,919.314598
148.438530,6957.935855,6883.915261,0.000000
148.438850,6661.853478,6809.894666,-612.876398
148.439171,7772.162391,5847.626942,-1072.533697
148.439492,9622.677246,5107.421000,536.266849
148.439812,10066.800811,5329.482782,1762.019645
148.440133,10510.924376,4885.359217,919.314598
148.440454,9400.615463,4589.276840,-612.876398
148.440775,9696.697840,3775.050304,-1225.752797
148.441095,11399.171507,4219.173869,-1225.752797
148.441416,12213.398043,4663.297435,0.000000
148.441737,11843.295072,5477.523971,536.266849
148.442057,10955.047942,6143.709319,229.828649
148.442378,9770.718434,5181.441594,-383.047749
148.442699,9770.718434,4145.153275,-689.485948
148.443020,11325.150913,4367.215058,-306.438199
148.443340,10881.027347,6217.729913,-842.705048
148.443661,8734.430116,7254.018232,-536.266849
148.443982,7772.162391,7402.059420,0.000000
148.444302,6883.915261,6957.935855,1302.362347
148.444623,6883.915261,6069.688724,1762.019645
148.444944,7254.018232,5847.626942,919.314598
148.445265,7328.038826,6143.709319,-689.485948
148.445585,6513.812290,6735.874072,-766.095498
148.445906,6587.832884,6957.935855,689.485948
148.446227,7328.038826,6439.791695,2298.286494
148.446547,8216.285956,5921.647536,2145.067394
148.446868,7846.182985,5033.400406,689.485948
148.447189,8364.327145,4219.173869,-1915.238745
148.447510,9326.594869,4145.153275,-2145.067394
148.447830,10955.047942,4145.153275,-536.266849
148.448151,11917.315666,5329.482782,459.657299
148.448472,12657.521608,6735.874072,-229.828649
148.448792,11991.336260,6513.812290,-1991.848295
148.449113,10955.047942,4811.338623,-1991.848295
148.449434,10732.986159,2664.741391,-919.314598
148.449754,10510.924376,2146.597232,0.000000
148.450075,10140.821405,2368.659014,-306.438199
148.450396,10510.924376,4663.297435,-1302.362347
148.450717,10066.800811,6883.915261,-1608.800546
148.451037,9104.533087,7772.162391,-1302.362347
148.451358,8734.430116,7328.038826,-153.219100
148.451679,7920.203579,6587.832884,383.047749
148.451999,6957.935855,6439.791695,612.876398
148.452320,6513.812290,6365.771101,229.828649
148.452641,6661.853478,5995.668130,306.438199
148.452962,6217.729913,5847.626942,-306.438199
148.453282,6587.832884,6587.832884,76.609550
148.453603,7624.121203,7772.162391,383.047749
148.453924,7698.141797,8586.388927,229.828649
148.454244,8586.388927,7772.162391,153.219100
148.454565,9474.636058,5921.647536,1302.362347
148.454886,9326.594869,4589.276840,1915.238745
148.455207,8512.368333,4441.235652,1915.238745
148.455527,8364.327145,4293.194464,229.828649
148.455848,9622.677246,4589.276840,-842.705048
148.456169,11325.150913,4811.338623,-842.705048
148.456489,11769.274478,5477.523971,-689.485948
148.456810,11769.274478,6365.771101,-1378.971896
148.457131,11251.130318,6069.688724,-1072.533697
148.457452,10732.986159,5551.544565,153.219100
148.457772,10288.862594,5033.400406,1225.752797
148.458093,9992.780217,5107.421000,306.438199
148.458414,8882.471304,5255.462188,-689.485948
148.458734,8438.347739,5773.606348,-1225.752797
148.459055,8216.285956,5329.482782,-919.314598
148.459376,8586.388927,4293.194464,-536.266849
148.459697,8660.409521,3849.070898,153.219100
148.460017,7772.162391,4145.153275,612.876398
148.460338,7328.038826,5403.503377,766.095498
148.460659,7624.121203,6217.729913,459.657299
148.460979,9178.553681,5625.565159,0.000000
148.461300,9696.697840,4885.359217,-459.657299
148.461621,9992.780217,5699.585753,-306.438199
148.461942,9400.615463,7105.977043,-689.485948
148.462262,8882.471304,7624.121203,-766.095498
148.462583,9474.636058,7254.018232,-766.095498
148.462904,9844.739029,5551.544565,0.000000
148.463224,9474.636058,4071.132681,995.924147
148.463545,9178.553681,2960.823768,1378.971896
148.463866,8808.450710,2294.638420,919.314598
148.464186,9326.594869,1924.535449,229.828649
148.464507,10584.944971,1924.535449,0.000000
148.464828,11473.192101,3182.885551,-229.828649
148.465149,11843.295072,4959.379811,-689.485948
148.465469,11621.233289,6513.812290,-1072.533697
148.465790,12065.356855,7031.956449,-2145.067394
148.466111,12287.418637,7031.956449,-2298.286494
148.466431,11769.274478,6365.771101,-1608.800546
148.466752,10584.944971,6439.791695,-1302.362347
148.467073,9844.739029,6291.750507,-536.266849
148.467394,9326.594869,6439.791695,536.266849
148.467714,8586.388927,6217.729913,1762.019645
148.468035,8438.347739,5847.626942,1991.848295
148.468356,7105.977043,5551.544565,1685.410096
148.468676,6439.791695,4367.215058,1915.238745
148.468997,6513.812290,3552.988522,1302.362347
148.469318,7105.977043,3701.029710,689.485948
148.469639,7994.224174,5403.503377,76.609550
148.469959,8586.388927,7476.080014,-229.828649
148.470280,9844.739029,9030.512492,-842.705048
148.470601,10584.944971,8364.327145,0.000000
148.470921,10732.986159,8068.244768,919.314598
148.471242,10362.883188,7031.956449,842.705048
148.471563,9474.636058,5477.523971,612.876398
148.471884,9474.636058,4441.235652,-306.438199
148.472204,9696.697840,2738.761985,-536.266849
148.472525,10584.944971,1924.535449,-306.438199
148.472846,10881.027347,2590.720797,-612.876398
148.473166,10510.924376,4589.276840,-689.485948
148.473487,10436.903782,6143.709319,229.828649
148.473808,10214.842000,6883.915261,536.266849
148.474129,9696.697840,6291.750507,1455.581446
148.474449,8290.306550,5773.606348,1532.190996
148.474770,7031.956449,6513.812290,1455.581446
148.475091,5551.544565,6809.894666,0.000000
148.475411,4959.379811,7105.977043,-1302.362347
148.475732,5033.400406,6513.812290,-1225.752797
148.476053,5329.482782,6661.853478,-536.266849
148.476373,4737.318029,7994.224174,459.657299
148.476694,4515.256246,9918.759623,1685.410096
148.477015,4219.173869,10584.944971,2298.286494
148.477336,5477.523971,10288.862594,2987.772442
148.477656,6365.771101,9178.553681,4290.134789
148.477977,5847.626942,8586.388927,4366.744339
148.478298,5181.441594,7920.203579,3830.477490
148.478618,5181.441594,7994.224174,3524.039291
148.478939,5403.503377,8364.327145,3370.820191
148.479260,6661.853478,8808.450710,3983.696590
148.479581,7550.100608,9252.574275,4213.525239
148.479901,7179.997637,9178.553681,4290.134789
148.480222,6809.894666,8438.347739,5132.839837
148.480543,6957.935855,7772.162391,5515.887586
148.480863,7550.100608,7476.080014,4979.620737
148.481184,7698.141797,7846.182985,4903.011187
148.481505,7105.977043,8068.244768,4213.525239
148.481826,7254.018232,8142.265362,4673.182538
148.482146,7550.100608,8438.347739,6052.154434
148.482467,7476.080014,8882.471304,6971.469032
148.482788,7105.977043,7994.224174,6894.859482
148.483108,6957.935855,7105.977043,6128.763984
148.483429,6291.750507,6217.729913,5975.544884
148.483750,6069.688724,5625.565159,6511.811733
148.484071,6069.688724,5181.441594,6818.249932
148.484391,6439.791695,5847.626942,6665.030833
148.484712,6513.812290,7550.100608,7201.297681
148.485033,5477.523971,8438.347739,6435.202183
148.485353,5107.421000,7772.162391,6588.421283
148.485674,4737.318029,7254.018232,7277.907231
148.485995,4515.256246,6439.791695,7584.345430
148.486316,3478.967927,6143.709319,7890.783629
148.486636,3330.926739,5847.626942,7507.735880
148.486957,2886.803174,6291.750507,6741.640382
148.487278,2590.720797,5921.647536,6435.202183
148.487598,2516.700203,6069.688724,6435.202183
148.487919,2590.720797,6217.729913,6358.592633
148.488240,2886.803174,6587.832884,7048.078582
148.488561,3404.947333,6735.874072,7354.516781
148.488881,3627.009116,6735.874072,6894.859482
148.489202,3923.091493,6661.853478,6665.030833
148.489523,3775.050304,7105.977043,5822.325785
148.489843,4219.173869,6957.935855,5132.839837
148.490164,4515.256246,6439.791695,4213.525239
148.490485,4367.215058,5699.585753,4443.353888
148.490805,4367.215058,5181.441594,4903.011187
148.491126,4589.276840,5181.441594,4290.134789
148.491447,3552.988522,5551.544565,3140.991542
148.491768,3997.112087,6291.750507,2068.457845
148.492088,5181.441594,7179.997637,2068.457845
148.492409,5995.668130,8068.244768,2451.505594
148.492730,6069.688724,9178.553681,2757.943793
148.493050,6883.915261,9770.718434,2604.724693
148.493371,6957.935855,10807.006753,3524.039291
148.493692,6587.832884,11177.109724,4749.792088
148.494013,6661.853478,11769.274478,5209.449386
148.494333,6365.771101,11029.068536,6052.154434
148.494654,4885.359217,9400.615463,6741.640382
148.494975,3552.988522,6809.894666,6358.592633
148.495295,2886.803174,3849.070898,5209.449386
148.495616,2812.782580,1776.494261,3524.039291
148.495937,3108.864956,2664.741391,2374.896044
148.496258,4737.318029,5403.503377,536.266849
148.496578,7328.038826,9844.739029,-842.705048
148.496899,9104.533087,14211.954086,-1225.752797
148.497220,10214.842000,17468.860231,-383.047749
148.497540,10584.944971,17616.901420,459.657299
148.497861,9992.780217,15840.407159,1991.848295
148.498182,7994.224174,12657.521608,3983.696590
148.498503,6217.729913,9326.594869,5975.544884
148.498823,6143.709319,7624.121203,6511.811733
148.499144,3034.844362,7179.997637,5439.278036
148.499465,1480.411884,7476.080014,4903.011187
148.499785,1628.453072,6513.812290,4136.915689
148.500106,3404.947333,5107.421000,3830.477490
148.500427,3478.967927,4367.215058,4366.744339
148.500748,5255.462188,6661.853478,4903.011187
148.501068,5921.647536,10066.800811,4213.525239
148.501389,5921.647536,13767.830521,3983.696590
148.501710,6365.771101,14952.160028,2451.505594
148.502031,8660.409521,15248.242405,2221.676944
148.502351,8438.347739,13471.748144,3600.648841
148.502672,5625.565159,9178.553681,5132.839837
148.502993,4589.276840,6513.812290,6665.030833
148.503313,3034.844362,5181.441594,7201.297681
148.503634,1480.411884,5403.503377,5592.497135
148.503955,2368.659014,5477.523971,4136.915689
148.504276,4811.338623,5995.668130,4903.011187
148.504596,4441.235652,5551.544565,6818.249932
148.504917,5033.400406,5551.544565,8427.050478
148.505238,5921.647536,6957.935855,8273.831378
148.505559,5477.523971,9992.780217,7277.907231
148.505879,3552.988522,10658.965565,6665.030833
148.506200,4441.235652,10214.842000,4519.963438
148.506521,5551.544565,8586.388927,3907.087040
148.506841,4293.194464,6587.832884,6511.811733
148.507162,5329.482782,6661.853478,9269.755526
148.507483,2738.761985,7994.224174,9346.365076
148.507804,814.226536,8660.409521,6588.421283
148.508124,1332.370696,7328.038826,5209.449386
148.508445,2812.782580,4515.256246,5822.325785
148.508766,1850.514855,1554.432478,7584.345430
148.509086,4811.338623,2368.659014,8273.831378
148.509407,6291.750507,6291.750507,7507.735880
148.509728,4071.132681,10214.842000,5745.716235
148.510049,2516.700203,10140.821405,3983.696590
148.510369,5107.421000,8364.327145,4443.353888
148.510690,4811.338623,6513.812290,6665.030833
148.511011,2220.617826,3701.029710,9422.974625
148.511332,4515.256246,4737.318029,9039.926876
148.511652,4959.379811,8808.450710,7431.126331
148.511973,2220.617826,12065.356855,4826.401637
148.512294,3627.009116,11103.089130,2987.772442
148.512614,6143.709319,8956.491898,2681.334243
148.512935,4071.132681,6661.853478,4903.011187
148.513256,3108.864956,3923.091493,6665.030833
148.513577,5625.565159,3034.844362,6588.421283
148.513897,5107.421000,5329.482782,5669.106685
148.514218,3034.844362,7402.059420,4596.572988
148.514539,4293.194464,8216.285956,2451.505594
148.514860,6143.709319,10362.883188,2298.286494
148.515180,4959.379811,11917.315666,4443.353888
148.515501,6883.915261,11399.171507,5592.497135
148.515822,7476.080014,9474.636058,3447.429741
148.516142,5033.400406,7402.059420,1225.752797
148.516463,3108.864956,5181.441594,306.438199
148.516784,4811.338623,5995.668130,612.876398
148.517105,5625.565159,9400.615463,2145.067394
148.517425,4737.318029,11843.295072,3600.648841
148.517746,5995.668130,11177.109724,3753.867940
148.518067,7105.977043,9918.759623,2834.553343
148.518388,4071.132681,7920.203579,1532.190996
148.518708,2960.823768,6365.771101,612.876398
148.519029,4367.215058,6809.894666,1072.533697
148.519350,5033.400406,8660.409521,1225.752797
148.519670,4589.276840,10066.800811,1455.581446
148.519991,5551.544565,10881.027347,536.266849
148.520312,5699.585753,11843.295072,612.876398
148.520633,5107.421000,11769.274478,2298.286494
148.520953,4811.338623,10436.903782,2374.896044
148.521274,5181.441594,8438.347739,995.924147
148.521595,4737.318029,7624.121203,842.705048
148.521916,4219.173869,8364.327145,1225.752797
148.522236,5255.462188,9474.636058,919.314598
148.522557,5329.482782,10362.883188,-229.828649
148.522878,4663.297435,10362.883188,0.000000
148.523198,4219.173869,8142.265362,1149.143247
148.523519,4515.256246,6513.812290,2528.115143
148.523840,4589.276840,6957.935855,2451.505594
148.524161,3775.050304,7920.203579,-153.219100
148.524481,4663.297435,8734.430116,-2451.505594
148.524802,6291.750507,9030.512492,-1685.410096
148.525123,6365.771101,8808.450710,1838.629195
148.525444,6365.771101,7846.182985,3140.991542
148.525764,5551.544565,8512.368333,689.485948
148.526085,3404.947333,9178.553681,-1915.238745
148.526406,2886.803174,8216.285956,-1762.019645
148.526726,5255.462188,7328.038826,-229.828649
148.527047,6735.874072,7328.038826,2068.457845
148.527368,5847.626942,8512.368333,2757.943793
148.527689,3256.906145,9104.533087,536.266849
148.528009,2886.803174,8956.491898,-1532.190996
148.528330,3997.112087,7550.100608,229.828649
148.528651,4071.132681,6069.688724,1302.362347
148.528971,4737.318029,5255.462188,1685.410096
148.529292,4737.318029,7254.018232,1991.848295
148.529613,4441.235652,9992.780217,1072.533697
148.529934,3256.906145,10362.883188,-229.828649
148.530254,3256.906145,8586.388927,-459.657299
148.530575,4145.153275,7698.141797,1608.800546
148.530896,4737.318029,6661.853478,4443.353888
148.531217,5329.482782,7105.977043,3140.991542
148.531537,4367.215058,7550.100608,0.000000
148.531858,2812.782580,7105.977043,-2451.505594
148.532179,4145.153275,7105.977043,-383.047749
148.532499,6069.688724,7772.162391,2987.772442
148.532820,6217.729913,8734.430116,2834.553343
148.533141,6661.853478,9844.739029,0.000000
148.533462,5477.523971,8882.471304,-2068.457845
148.533782,3997.112087,7772.162391,-689.485948
148.534103,5551.544565,7105.977043,2987.772442
148.534424,6217.729913,6957.935855,2604.724693
148.534745,5847.626942,7772.162391,-306.438199
148.535065,5329.482782,9326.594869,-2298.286494
148.535386,4293.194464,10214.842000,-1455.581446
148.535707,4515.256246,8660.409521,612.876398
148.536027,5403.503377,6735.874072,2068.457845
148.536348,4811.338623,5921.647536,229.828649
148.536669,3775.050304,6661.853478,-1608.800546
148.536990,3775.050304,8660.409521,-995.924147
148.537310,3849.070898,9844.739029,0.000000
148.537631,4515.256246,9622.677246,229.828649
148.537952,5551.544565,9104.533087,1072.533697
148.538273,5033.400406,9178.553681,919.314598
148.538593,5329.482782,9770.718434,1225.752797
148.538914,4145.153275,9252.574275,689.485948
148.539235,2146.597232,7624.121203,-1225.752797
148.539555,2738.761985,6365.771101,-536.266849
148.539876,4441.235652,6957.935855,0.000000
148.540197,5033.400406,7179.997637,-459.657299
148.540518,4811.338623,7624.121203,-1608.800546
148.540838,3849.070898,7550.100608,-3447.429741
148.541159,3923.091493,7179.997637,-3370.820191
148.541480,4959.379811,6365.771101,-536.266849
148.541801,7031.956449,7254.018232,-153.219100
148.542121,8808.450710,10140.821405,-1991.848295
148.542442,6809.894666,11621.233289,-3600.648841
148.542763,5995.668130,10807.006753,-4290.134789
148.543083,6587.832884,8808.450710,-2374.896044
148.543404,6217.729913,6809.894666,612.876398
148.543725,6143.709319,6365.771101,995.924147
148.544046,6513.812290,7550.100608,-1225.752797
148.544366,4441.235652,8438.347739,-2451.505594
148.544687,3108.864956,7179.997637,-2145.067394
148.545008,5625.565159,5403.503377,229.828649
148.545328,7476.080014,6587.832884,1302.362347
148.545649,6291.750507,8512.368333,612.876398
148.545970,4367.215058,9400.615463,-2145.067394
148.546291,4737.318029,9474.636058,-4366.744339
148.546611,5329.482782,8734.430116,-2451.505594
148.546932,6439.791695,8512.368333,306.438199
148.547253,7031.956449,8734.430116,995.924147
148.547574,5847.626942,10288.862594,-1762.019645
148.547894,4219.173869,9992.780217,-2298.286494
148.548215,3478.967927,8142.265362,-2221.676944
148.548536,3552.988522,6439.791695,-229.828649
148.548856,3997.112087,5255.462188,1378.971896
148.549177,4737.318029,6735.874072,-153.219100
148.549498,6143.709319,9400.615463,-2987.772442
148.549819,4441.235652,9696.697840,-3524.039291
148.550139,4663.297435,8438.347739,-1915.238745
148.550460,6661.853478,8882.471304,153.219100
148.550781,5773.606348,9326.594869,842.705048
148.551102,4959.379811,9326.594869,-1072.533697
148.551422,6069.688724,9252.574275,-2068.457845
148.551743,5329.482782,9252.574275,-995.924147
148.552064,4367.215058,8290.306550,1378.971896
148.552384,4959.379811,6809.894666,1149.143247
148.552705,5033.400406,5847.626942,-459.657299
148.553026,5625.565159,6883.915261,-229.828649
148.553347,5477.523971,7772.162391,-153.219100
148.553667,4589.276840,7105.977043,-919.314598
148.553988,5255.462188,6809.894666,-459.657299
148.554309,6365.771101,6809.894666,995.924147
148.554630,6143.709319,6883.915261,306.438199
148.554950,5995.668130,7920.203579,-459.657299
148.555271,5477.523971,9770.718434,-919.314598
