#time,accel_x,accel_y,accel_z
584.971579,4885.359217,8364.327145,-229.828649
584.971900,4885.359217,7920.203579,-229.828649
584.972221,4885.359217,8068.244768,0.000000
584.972541,5107.421000,8142.265362,459.657299
584.972862,4959.379811,8290.306550,-153.219100
584.973183,4811.338623,8142.265362,-306.438199
584.973503,4885.359217,8142.265362,-306.438199
584.973824,5107.421000,8142.265362,-306.438199
584.974145,5107.421000,8142.265362,-229.828649
584.974465,4959.379811,8290.306550,0.000000
584.974786,4811.338623,7994.224174,153.219100
584.975107,5033.400406,8068.244768,0.000000
584.975427,4959.379811,7994.224174,-153.219100
584.975748,4959.379811,7920.203579,0.000000
584.976069,5107.421000,8142.265362,-229.828649
584.976389,4959.379811,8216.285956,0.000000
584.976710,4959.379811,8142.265362,0.000000
584.977031,4737.318029,8142.265362,0.000000
584.977351,5181.441594,7994.224174,-306.438199
584.977672,5033.400406,7994.224174,-459.657299
584.977993,4959.379811,8216.285956,-306.438199
584.978313,4959.379811,8216.285956,-306.438199
584.978634,4885.359217,7550.100608,-229.828649
584.978955,4885.359217,8216.285956,-76.609550
584.979275,4885.359217,8142.265362,0.000000
584.979596,4959.379811,7920.203579,153.219100
584.979917,4885.359217,7846.182985,0.000000
584.980237,5181.441594,7846.182985,0.000000
584.980558,4737.318029,7698.141797,0.000000
584.980879,4441.235652,7402.059420,-612.876398
584.981199,4293.194464,7476.080014,-153.219100
584.981520,4589.276840,8512.368333,-383.047749
584.981841,4589.276840,9770.718434,-612.876398
584.982161,4515.256246,9918.759623,-1225.752797
584.982482,4737.318029,9696.697840,-1149.143247
584.982803,4219.173869,9326.594869,-459.657299
584.983123,3108.864956,8882.471304,689.485948
584.983444,2442.679609,8734.430116,919.314598
584.983765,2664.741391,8808.450710,536.266849
584.984085,2294.638420,9030.512492,0.000000
584.984406,2516.700203,8438.347739,-536.266849
584.984727,3108.864956,8660.409521,0.000000
584.985047,3182.885551,9548.656652,229.828649
584.985368,2886.803174,9326.594869,459.657299
584.985689,2220.617826,8956.491898,306.438199
584.986009,2294.638420,8808.450710,0.000000
584.986330,2294.638420,9696.697840,-229.828649
584.986651,1924.535449,11103.089130,-1072.533697
584.986971,1924.535449,11843.295072,-1378.971896
584.987292,1480.411884,11695.253884,-1149.143247
584.987613,888.247130,11325.150913,-995.924147
584.987933,148.041188,11325.150913,-995.924147
584.988254,-370.102971,11769.274478,-1532.190996
584.988575,-1110.308913,12583.501014,-383.047749
584.988895,-1184.329507,12657.521608,689.485948
584.989216,-1258.350101,12065.356855,1225.752797
584.989537,-666.185348,11695.253884,1915.238745
584.989857,-1332.370696,11621.233289,1685.410096
584.990178,-2072.576638,12065.356855,1302.362347
584.990499,-2442.679609,11103.089130,0.000000
584.990819,-1702.473667,9918.759623,-689.485948
584.991140,-370.102971,9622.677246,0.000000
584.991461,-222.061783,9918.759623,1532.190996
584.991781,296.082377,11177.109724,1302.362347
584.992102,74.020594,11473.192101,-153.219100
584.992423,1110.308913,11103.089130,-1532.190996
584.992743,1924.535449,10584.944971,-1608.800546
584.993064,2220.617826,10066.800811,-459.657299
584.993385,2590.720797,10658.965565,0.000000
584.993705,2738.761985,10436.903782,-1072.533697
584.994026,1628.453072,9548.656652,-1991.848295
584.994347,1258.350101,9844.739029,-1991.848295
584.994667,1924.535449,9918.759623,-995.924147
584.994988,1628.453072,10140.821405,-229.828649
584.995309,1554.432478,10214.842000,-229.828649
584.995629,1406.391290,10732.986159,229.828649
584.995950,296.082377,11177.109724,153.219100
584.996271,-222.061783,10881.027347,689.485948
584.996591,-592.164754,10362.883188,766.095498
584.996912,-592.164754,9992.780217,612.876398
584.997233,-296.082377,10288.862594,1532.190996
584.997553,-370.102971,10436.903782,459.657299
584.997874,-518.144159,10584.944971,689.485948
584.998195,0.000000,11621.233289,1072.533697
584.998515,444.123565,11843.295072,919.314598
584.998836,666.185348,11843.295072,306.438199
584.999157,814.226536,11473.192101,-229.828649
584.999477,962.267725,10955.047942,-842.705048
584.999798,1258.350101,10066.800811,0.000000
585.000119,1258.350101,9622.677246,383.047749
585.000439,1480.411884,8808.450710,383.047749
585.000760,1924.535449,8290.306550,689.485948
585.001081,2368.659014,9326.594869,153.219100
585.001401,2072.576638,9696.697840,-306.438199
585.001722,2590.720797,10214.842000,-383.047749
585.002043,3478.967927,10140.821405,-766.095498
585.002363,3256.906145,10140.821405,-1455.581446
585.002684,3330.926739,9474.636058,-1608.800546
585.003005,2886.803174,9770.718434,-1685.410096
585.003325,2220.617826,11103.089130,-1378.971896
585.003646,1850.514855,11547.212695,-689.485948
585.003967,1258.350101,11547.212695,-1149.143247
585.004287,814.226536,10881.027347,-1532.190996
585.004608,444.123565,10214.842000,-1302.362347
585.004929,-1036.288319,9474.636058,-1072.533697
585.005249,-1702.473667,8734.430116,0.000000
585.005570,-1480.411884,8734.430116,1072.533697
585.005891,-296.082377,10732.986159,1762.019645
585.006211,370.102971,12213.398043,1378.971896
585.006532,518.144159,12879.583391,1225.752797
585.006853,518.144159,13249.686362,76.609550
585.007173,962.267725,11917.315666,229.828649
585.007494,666.185348,9696.697840,-153.219100
585.007815,740.205942,8512.368333,-229.828649
585.008135,592.164754,9770.718434,-383.047749
585.008456,148.041188,11029.068536,-1149.143247
585.008777,-888.247130,11473.192101,-2451.505594
585.009097,0.000000,11399.171507,-2604.724693
585.009418,888.247130,11843.295072,-842.705048
585.009739,1406.391290,13323.706956,306.438199
585.010059,740.205942,13323.706956,153.219100
585.010380,0.000000,12361.439231,-536.266849
585.010701,0.000000,12435.459826,-842.705048
585.011021,444.123565,11991.336260,0.000000
585.011342,74.020594,10288.862594,-306.438199
585.011663,444.123565,8660.409521,-229.828649
585.011983,1258.350101,10436.903782,536.266849
585.012304,222.061783,11547.212695,919.314598
585.012625,-74.020594,11399.171507,612.876398
585.012945,370.102971,9844.739029,689.485948
585.013266,666.185348,9252.574275,76.609550
585.013587,370.102971,9104.533087,1072.533697
585.013907,1332.370696,9622.677246,153.219100
585.014228,740.205942,11029.068536,-1455.581446
585.014549,-148.041188,12065.356855,-1838.629195
585.014869,296.082377,12361.439231,-1608.800546
585.015190,222.061783,12065.356855,-2298.286494
585.015511,0.000000,12805.562797,-766.095498
585.015831,1184.329507,13323.706956,689.485948
585.016152,814.226536,12805.562797,536.266849
585.016473,-962.267725,11177.109724,229.828649
585.016793,-1184.329507,9104.533087,995.924147
585.017114,-888.247130,7031.956449,766.095498
585.017435,-1036.288319,7105.977043,1685.410096
585.017755,-1258.350101,7402.059420,1378.971896
585.018076,222.061783,8734.430116,-306.438199
585.018397,1480.411884,11103.089130,-536.266849
585.018717,1332.370696,13101.645173,-383.047749
585.019038,1998.556043,12953.603985,-842.705048
585.019359,2146.597232,11769.274478,-1072.533697
585.019679,962.267725,9918.759623,-1072.533697
585.020000,1036.288319,8734.430116,-612.876398
585.020321,1702.473667,8660.409521,383.047749
585.020641,1998.556043,10140.821405,383.047749
585.020962,1924.535449,11695.253884,-689.485948
585.021283,1850.514855,11843.295072,-2221.676944
585.021603,1258.350101,11103.089130,-2987.772442
585.021924,962.267725,9844.739029,-383.047749
585.022245,518.144159,9030.512492,689.485948
585.022565,-296.082377,8660.409521,76.609550
585.022886,-444.123565,10362.883188,306.438199
585.023207,0.000000,13619.789333,689.485948
585.023527,-1184.329507,15396.283594,0.000000
585.023848,-1184.329507,15174.221811,383.047749
585.024169,-740.205942,13693.809927,612.876398
585.024489,-1332.370696,11917.315666,536.266849
585.024810,-666.185348,10584.944971,612.876398
585.025131,-592.164754,9400.615463,-153.219100
585.025451,-888.247130,8882.471304,-689.485948
585.025772,370.102971,9474.636058,229.828649
585.026093,1554.432478,10436.903782,1455.581446
585.026413,2220.617826,10658.965565,2681.334243
585.026734,2812.782580,10955.047942,1225.752797
585.027055,3256.906145,10362.883188,-383.047749
585.027375,3330.926739,10584.944971,-1915.238745
585.027696,3256.906145,9770.718434,-2145.067394
585.028017,2294.638420,8956.491898,-2068.457845
585.028337,2368.659014,8068.244768,-1991.848295
585.028658,2590.720797,8956.491898,-383.047749
585.028979,2368.659014,11917.315666,-612.876398
585.029299,1184.329507,13249.686362,-1608.800546
585.029620,1184.329507,12805.562797,-1072.533697
585.029941,666.185348,11917.315666,-842.705048
585.030261,-296.082377,9622.677246,306.438199
585.030582,-2294.638420,7994.224174,1072.533697
585.030903,-1776.494261,9104.533087,612.876398
585.031223,-2294.638420,11991.336260,76.609550
585.031544,-1998.556043,14211.954086,-1378.971896
585.031865,-592.164754,13323.706956,-1302.362347
585.032185,-518.144159,12435.459826,536.266849
585.032506,-592.164754,12435.459826,3447.429741
585.032827,-1184.329507,11991.336260,3677.258390
585.033148,-2442.679609,10732.986159,306.438199
585.033468,0.000000,10288.862594,-842.705048
585.033789,296.082377,8956.491898,536.266849
585.034110,814.226536,7031.956449,2068.457845
585.034430,1924.535449,6513.812290,2068.457845
585.034751,2960.823768,8512.368333,1762.019645
585.035072,2368.659014,10584.944971,0.000000
585.035392,3478.967927,10955.047942,-1378.971896
585.035713,4737.318029,9696.697840,-2757.943793
585.036034,4219.173869,9992.780217,-1991.848295
585.036354,5329.482782,10510.924376,-612.876398
585.036675,4071.132681,9992.780217,-1149.143247
585.036996,1258.350101,8512.368333,-2528.115143
585.037316,1628.453072,9030.512492,-2604.724693
585.037637,2368.659014,11103.089130,-1608.800546
585.037958,148.041188,12213.398043,-1991.848295
585.038278,-370.102971,11991.336260,-1149.143247
585.038599,0.000000,9918.759623,-306.438199
585.038920,0.000000,9474.636058,1532.190996
585.039240,-666.185348,11177.109724,3217.601092
585.039561,-2812.782580,12435.459826,2298.286494
585.039882,-3478.967927,12805.562797,-1149.143247
585.040202,-2516.700203,12731.542202,0.000000
585.040523,-2294.638420,10955.047942,1378.971896
585.040844,-1554.432478,9622.677246,1838.629195
585.041164,-666.185348,11843.295072,3140.991542
585.041485,-2294.638420,14359.995275,1072.533697
585.041806,-2368.659014,12583.501014,-689.485948
585.042126,740.205942,11251.130318,-612.876398
585.042447,2368.659014,10140.821405,0.000000
585.042768,2368.659014,9548.656652,1838.629195
585.043088,1776.494261,8512.368333,919.314598
585.043409,2442.679609,8290.306550,-1685.410096
585.043730,3627.009116,9178.553681,-1225.752797
585.044050,4071.132681,10584.944971,-1072.533697
585.044371,4737.318029,10140.821405,-1991.848295
585.044692,3256.906145,9844.739029,-2681.334243
585.045012,4145.153275,10584.944971,-2068.457845
585.045333,3923.091493,9252.574275,-612.876398
585.045654,2664.741391,9474.636058,-1378.971896
585.045974,1184.329507,10066.800811,-2221.676944
585.046295,-148.041188,11029.068536,-1915.238745
585.046616,-592.164754,12879.583391,-1302.362347
585.046936,-222.061783,12139.377449,-919.314598
585.047257,-1332.370696,11325.150913,-76.609550
585.047578,-666.185348,11991.336260,1991.848295
585.047898,-2442.679609,12435.459826,2145.067394
585.048219,-3256.906145,12731.542202,842.705048
585.048540,-2590.720797,12435.459826,536.266849
585.048860,-2516.700203,12361.439231,1838.629195
585.049181,-3404.947333,13027.624579,3217.601092
585.049502,-1776.494261,12509.480420,3600.648841
585.049822,-2220.617826,9992.780217,1225.752797
585.050143,-1628.453072,8956.491898,919.314598
585.050464,-148.041188,9622.677246,1378.971896
585.050784,74.020594,10066.800811,0.000000
585.051105,888.247130,10732.986159,-842.705048
585.051426,4219.173869,11029.068536,0.000000
585.051746,4219.173869,10288.862594,1225.752797
585.052067,4959.379811,8956.491898,459.657299
585.052388,5181.441594,8882.471304,-1838.629195
585.052708,4071.132681,8660.409521,-3983.696590
585.053029,4293.194464,7031.956449,-2911.162892
585.053350,5699.585753,6439.791695,-1149.143247
585.053670,5477.523971,7624.121203,-1225.752797
585.053991,5255.462188,10658.965565,-2068.457845
585.054312,1480.411884,10584.944971,-3217.601092
585.054632,2072.576638,10881.027347,-2451.505594
585.054953,2442.679609,9992.780217,306.438199
585.055274,0.000000,9918.759623,995.924147
585.055594,-740.205942,9844.739029,0.000000
585.055915,-1776.494261,10214.842000,2221.676944
585.056236,-3182.885551,10510.924376,2528.115143
585.056556,-2220.617826,11473.192101,2451.505594
585.056877,-1258.350101,11695.253884,766.095498
585.057198,-3182.885551,11769.274478,-842.705048
585.057518,-3108.864956,12509.480420,1378.971896
585.057839,-2368.659014,13101.645173,2757.943793
585.058160,-592.164754,12287.418637,842.705048
585.058480,-666.185348,9844.739029,-919.314598
585.058801,888.247130,10288.862594,-766.095498
585.059122,-518.144159,10214.842000,536.266849
585.059442,222.061783,9844.739029,0.000000
585.059763,3256.906145,9622.677246,-383.047749
585.060084,3552.988522,8512.368333,-995.924147
585.060404,4293.194464,7772.162391,-919.314598
585.060725,4737.318029,9326.594869,-1685.410096
585.061046,3182.885551,8586.388927,-4213.525239
585.061366,5255.462188,8956.491898,-4366.744339
585.061687,6513.812290,8364.327145,-2451.505594
585.062008,5255.462188,9622.677246,-1991.848295
585.062328,4589.276840,10807.006753,-1838.629195
585.062649,3256.906145,11029.068536,-3830.477490
585.062970,1332.370696,13841.851115,-3907.087040
585.063290,296.082377,14211.954086,-536.266849
585.063611,0.000000,12953.603985,-306.438199
585.063932,-740.205942,9696.697840,-1455.581446
585.064252,-2886.803174,9400.615463,229.828649
585.064573,-4885.359217,12435.459826,2681.334243
585.064894,-4737.318029,15470.304188,2068.457845
585.065214,-5699.585753,14434.015869,459.657299
585.065535,-2590.720797,11695.253884,842.705048
585.065856,592.164754,11103.089130,3753.867940
585.066176,-2442.679609,10955.047942,4596.572988
585.066497,-2886.803174,11325.150913,2451.505594
585.066818,-666.185348,11695.253884,459.657299
585.067138,-148.041188,9400.615463,-1149.143247
585.067459,2812.782580,8660.409521,0.000000
585.067780,7179.997637,9992.780217,0.000000
585.068100,4811.338623,11029.068536,-3907.087040
585.068421,3478.967927,10732.986159,-3983.696590
585.068742,5847.626942,9104.533087,-2604.724693
585.069062,6069.688724,7698.141797,-536.266849
585.069383,6365.771101,6513.812290,536.266849
585.069704,7920.203579,9474.636058,-842.705048
585.070024,2664.741391,11917.315666,-3600.648841
585.070345,370.102971,10436.903782,-4443.353888
585.070666,3478.967927,8660.409521,-1762.019645
585.070986,3923.091493,7254.018232,766.095498
585.071307,2960.823768,8808.450710,2298.286494
585.071628,740.205942,9844.739029,76.609550
585.071948,-2738.761985,10362.883188,-3064.381992
585.072269,-1258.350101,10584.944971,0.000000
585.072590,1406.391290,9548.656652,5745.716235
585.072910,1184.329507,7920.203579,5132.839837
585.073231,518.144159,7476.080014,2604.724693
585.073552,592.164754,8808.450710,612.876398
585.073872,518.144159,8216.285956,76.609550
585.074193,2368.659014,5625.565159,1608.800546
585.074514,6735.874072,4589.276840,1838.629195
585.074834,7994.224174,4737.318029,459.657299
585.075155,6513.812290,7105.977043,76.609550
585.075476,7105.977043,9326.594869,0.000000
585.075796,7105.977043,9252.574275,-1302.362347
585.076117,7624.121203,7105.977043,-1685.410096
585.076438,11473.192101,8142.265362,-1149.143247
585.076758,10214.842000,7994.224174,-2451.505594
585.077079,6365.771101,6661.853478,-4443.353888
585.077400,6513.812290,7698.141797,-4519.963438
585.077720,5773.606348,8068.244768,-2221.676944
585.078041,4219.173869,8290.306550,842.705048
585.078362,3404.947333,7402.059420,1838.629195
585.078682,3997.112087,9992.780217,1455.581446
585.079003,3108.864956,10955.047942,1225.752797
585.079324,-370.102971,8882.471304,1455.581446
585.079644,2368.659014,4367.215058,383.047749
585.079965,3701.029710,3552.988522,1225.752797
585.080286,4293.194464,6587.832884,1915.238745
585.080606,5033.400406,9104.533087,229.828649
585.080927,4071.132681,10510.924376,-1302.362347
585.081248,3404.947333,10584.944971,-995.924147
585.081568,4589.276840,10955.047942,1072.533697
585.081889,4737.318029,9474.636058,689.485948
585.082210,6587.832884,10955.047942,-1455.581446
585.082530,6143.709319,11473.192101,-1685.410096
585.082851,1924.535449,10510.924376,-2374.896044
585.083172,2812.782580,9696.697840,-1685.410096
585.083492,3034.844362,8438.347739,766.095498
585.083813,3478.967927,9252.574275,1455.581446
585.084134,3701.029710,9696.697840,2604.724693
585.084454,2664.741391,9252.574275,1072.533697
585.084775,2294.638420,6587.832884,-1608.800546
585.085096,4441.235652,4737.318029,383.047749
585.085416,7105.977043,6587.832884,2451.505594
585.085737,7179.997637,8882.471304,2374.896044
585.086058,7624.121203,8438.347739,-383.047749
585.086378,6439.791695,4737.318029,-4826.401637
585.086699,6291.750507,3108.864956,-3907.087040
585.087020,8438.347739,7031.956449,229.828649
585.087340,7994.224174,9104.533087,-842.705048
585.087661,7105.977043,9178.553681,-4443.353888
585.087982,12361.439231,7920.203579,-4290.134789
585.088302,7254.018232,7254.018232,-1762.019645
585.088623,3997.112087,5181.441594,-229.828649
585.088944,6143.709319,6513.812290,459.657299
585.089264,7254.018232,8068.244768,-536.266849
585.089585,7550.100608,9326.594869,0.000000
585.089906,7402.059420,8438.347739,1302.362347
585.090226,3923.091493,6365.771101,-612.876398
585.090547,2220.617826,6735.874072,306.438199
585.090868,1628.453072,7179.997637,3064.381992
585.091188,3849.070898,6365.771101,1608.800546
585.091509,5107.421000,6439.791695,0.000000
585.091830,4663.297435,6143.709319,-919.314598
585.092150,3404.947333,8216.285956,0.000000
585.092471,3404.947333,11917.315666,2221.676944
585.092792,5329.482782,14434.015869,1532.190996
585.093112,4367.215058,9622.677246,-1608.800546
585.093433,7328.038826,5329.482782,-2068.457845
585.093754,7994.224174,7994.224174,76.609550
585.094074,3256.906145,10066.800811,1302.362347
585.094395,1480.411884,10510.924376,-1532.190996
585.094716,4441.235652,9992.780217,-3140.991542
585.095036,4737.318029,7105.977043,-766.095498
585.095357,4959.379811,7254.018232,2911.162892
585.095678,4589.276840,8660.409521,2987.772442
585.095998,1036.288319,9992.780217,0.000000
585.096319,2368.659014,9326.594869,-1225.752797
585.096640,5329.482782,6291.750507,0.000000
585.096960,6143.709319,5107.421000,842.705048
585.097281,4663.297435,7476.080014,2987.772442
585.097602,4441.235652,13027.624579,1225.752797
585.097922,1406.391290,13767.830521,-2145.067394
585.098243,3478.967927,10436.903782,-4290.134789
585.098564,6069.688724,5551.544565,-2834.553343
585.098884,6143.709319,4293.194464,-766.095498
585.099205,3330.926739,7772.162391,1149.143247
585.099526,2368.659014,12065.356855,766.095498
585.099846,3256.906145,10140.821405,-766.095498
585.100167,4885.359217,7698.141797,-536.266849
585.100488,4663.297435,6439.791695,2374.896044
585.100808,1924.535449,6217.729913,1149.143247
585.101129,3478.967927,9770.718434,1378.971896
585.101450,4737.318029,9474.636058,766.095498
585.101770,4885.359217,4959.379811,-1378.971896
585.102091,9474.636058,3478.967927,689.485948
585.102412,8882.471304,7031.956449,2298.286494
585.102732,4441.235652,10436.903782,2145.067394
585.103053,5033.400406,9548.656652,0.000000
585.103374,7254.018232,6587.832884,-2757.943793
585.103694,8586.388927,2442.679609,-2757.943793
585.104015,9696.697840,3256.906145,842.705048
585.104336,6513.812290,5403.503377,0.000000
585.104656,3034.844362,9030.512492,-4136.915689
585.104977,5033.400406,10510.924376,-4519.963438
585.105298,7402.059420,8216.285956,-2911.162892
585.105618,8882.471304,6809.894666,919.314598
585.105939,7105.977043,8068.244768,3064.381992
585.106260,3256.906145,9474.636058,612.876398
585.106580,3552.988522,12509.480420,-766.095498
585.106901,7402.059420,8586.388927,0.000000
585.107222,7550.100608,4145.153275,842.705048
585.107542,7624.121203,3775.050304,1225.752797
585.107863,6661.853478,9326.594869,612.876398
585.108184,2960.823768,11103.089130,-1532.190996
585.108504,1998.556043,6513.812290,-1608.800546
585.108825,7550.100608,3182.885551,842.705048
585.109146,7772.162391,4811.338623,3753.867940
585.109466,5773.606348,9030.512492,3217.601092
585.109787,2146.597232,12657.521608,-1685.410096
585.110108,1406.391290,13841.851115,-4673.182538
585.110428,4737.318029,7698.141797,-2604.724693
585.110749,8142.265362,5773.606348,-153.219100
585.111070,8586.388927,9326.594869,306.438199
585.111390,3552.988522,13027.624579,-536.266849
585.111711,-444.123565,13471.748144,-919.314598
585.112032,3775.050304,10288.862594,153.219100
585.112352,5033.400406,4811.338623,2374.896044
585.112673,5255.462188,3552.988522,2451.505594
585.112994,5033.400406,7920.203579,766.095498
585.113314,222.061783,10584.944971,-2451.505594
585.113635,-518.144159,7179.997637,-3753.867940
585.113956,5255.462188,3775.050304,0.000000
585.114276,5995.668130,4441.235652,3830.477490
585.114597,4219.173869,9474.636058,3524.039291
585.114918,1110.308913,13175.665768,-842.705048
585.115238,1110.308913,13471.748144,-7507.735880
585.115559,6069.688724,11325.150913,-4443.353888
585.115880,8734.430116,8734.430116,2757.943793
585.116200,8660.409521,9622.677246,3217.601092
585.116521,4071.132681,10584.944971,536.266849
585.116842,1480.411884,7328.038826,-2451.505594
585.117162,2516.700203,4737.318029,-1378.971896
585.117483,6365.771101,1332.370696,3370.820191
585.117804,6439.791695,1628.453072,5056.230287
585.118124,7402.059420,5403.503377,2374.896044
585.118445,5847.626942,8956.491898,-1762.019645
585.118766,4145.153275,8512.368333,-2834.553343
585.119086,4145.153275,4811.338623,-1302.362347
585.119407,8956.491898,4145.153275,919.314598
585.119728,8216.285956,7179.997637,689.485948
585.120049,4737.318029,10066.800811,-2451.505594
585.120369,5699.585753,12657.521608,-4596.572988
585.120690,7550.100608,13545.768739,-3830.477490
585.121011,6735.874072,12805.562797,-1378.971896
585.121331,5625.565159,10732.986159,-306.438199
585.121652,2664.741391,8438.347739,-1915.238745
585.121973,2220.617826,7846.182985,536.266849
585.122293,3034.844362,6513.812290,4136.915689
585.122614,3775.050304,4737.318029,4136.915689
585.122935,2738.761985,5033.400406,3753.867940
585.123255,2664.741391,7328.038826,3753.867940
585.123576,2442.679609,7846.182985,2681.334243
585.123897,4959.379811,6291.750507,2221.676944
585.124217,7994.224174,4737.318029,1838.629195
585.124538,8438.347739,5107.421000,-153.219100
585.124859,7031.956449,5181.441594,-1149.143247
585.125179,8586.388927,8956.491898,-3140.991542
585.125500,7994.224174,9252.574275,-3140.991542
585.125821,9696.697840,9400.615463,-3140.991542
585.126141,12287.418637,8882.471304,-2451.505594
585.126462,7254.018232,9178.553681,-2834.553343
585.126783,6735.874072,10362.883188,-1915.238745
585.127103,7550.100608,10066.800811,-1455.581446
585.127424,4441.235652,6587.832884,-1455.581446
585.127745,3849.070898,3849.070898,0.000000
585.128065,2664.741391,4663.297435,2068.457845
585.128386,1184.329507,7328.038826,1455.581446
585.128707,1258.350101,8882.471304,1838.629195
585.129027,1406.391290,7328.038826,1608.800546
585.129348,3256.906145,5329.482782,1685.410096
585.129669,2590.720797,5625.565159,3370.820191
585.129989,2368.659014,7550.100608,2757.943793
585.130311,3034.844362,11473.192101,-1838.629195
585.130631,3627.009116,12583.501014,-4060.306139
585.130952,4811.338623,10955.047942,-4136.915689
585.131272,8364.327145,9548.656652,-1762.019645
585.131593,7476.080014,8364.327145,536.266849
585.131913,4515.256246,10214.842000,0.000000
585.132233,3478.967927,10955.047942,-1915.238745
585.132554,1924.535449,8586.388927,-1302.362347
585.132874,4293.194464,5625.565159,0.000000
585.133195,6587.832884,3849.070898,2528.115143
585.133515,5403.503377,7624.121203,3140.991542
585.133836,3478.967927,10288.862594,1532.190996
585.134156,1628.453072,9326.594869,459.657299
585.134476,4959.379811,6661.853478,1149.143247
585.134797,6957.935855,5181.441594,3447.429741
585.135117,4885.359217,7402.059420,2604.724693
585.135438,4293.194464,11769.274478,-2221.676944
585.135758,4219.173869,13915.871710,-4826.401637
585.136079,4663.297435,12583.501014,-5515.887586
585.136399,7254.018232,7772.162391,-2451.505594
585.136719,4737.318029,4885.359217,842.705048
585.137040,2812.782580,8438.347739,306.438199
585.137360,962.267725,11325.150913,-612.876398
585.137681,1924.535449,9770.718434,-153.219100
585.138001,6513.812290,6217.729913,1149.143247
585.138322,8660.409521,5477.523971,3524.039291
585.138642,4811.338623,5921.647536,2374.896044
585.138962,3182.885551,7698.141797,306.438199
585.139283,4145.153275,7624.121203,-153.219100
585.139603,7994.224174,8216.285956,1608.800546
585.139924,9104.533087,4959.379811,2911.162892
585.140244,8364.327145,3034.844362,0.000000
585.140565,7624.121203,5551.544565,-1762.019645
585.140885,5181.441594,6661.853478,-842.705048
585.141205,5625.565159,5699.585753,-2145.067394
585.141526,10584.944971,7105.977043,-1991.848295
585.141846,7476.080014,7402.059420,-1532.190996
585.142167,5625.565159,8660.409521,-919.314598
585.142487,6957.935855,9104.533087,-1378.971896
585.142808,2738.761985,7031.956449,-3140.991542
585.143128,3182.885551,7031.956449,-1838.629195
585.143448,6439.791695,7994.224174,612.876398
585.143769,5181.441594,10436.903782,919.314598
585.144089,3849.070898,11029.068536,2374.896044
585.144410,4515.256246,11399.171507,1225.752797
585.144730,2368.659014,9474.636058,459.657299
585.145051,1628.453072,7179.997637,2221.676944
585.145371,1998.556043,5699.585753,4136.915689
585.145691,2886.803174,3552.988522,995.924147
585.146012,2664.741391,2368.659014,-459.657299
585.146332,3997.112087,7105.977043,-1149.143247
585.146653,4811.338623,12731.542202,-2145.067394
585.146973,4885.359217,14434.015869,-2374.896044
585.147294,6735.874072,12879.583391,-383.047749
585.147614,7254.018232,11547.212695,689.485948
585.147934,4885.359217,8660.409521,306.438199
585.148255,2368.659014,9030.512492,-1302.362347
585.148575,3108.864956,9474.636058,-2911.162892
585.148896,4737.318029,10584.944971,-1915.238745
585.149216,7179.997637,11695.253884,1072.533697
585.149537,5477.523971,9548.656652,1302.362347
585.149857,2516.700203,7031.956449,1838.629195
585.150178,-370.102971,3330.926739,1762.019645
585.150498,2368.659014,3627.009116,1532.190996
585.150818,5329.482782,2960.823768,1532.190996
585.151139,6439.791695,5699.585753,-995.924147
585.151459,6883.915261,8808.450710,-2451.505594
585.151780,5255.462188,11843.295072,-3447.429741
585.152100,5995.668130,10658.965565,-2221.676944
585.152421,7772.162391,7254.018232,-842.705048
585.152741,7698.141797,6439.791695,-689.485948
585.153061,6365.771101,10362.883188,-383.047749
585.153382,5107.421000,12435.459826,-2451.505594
585.153702,5255.462188,11399.171507,-2451.505594
585.154023,6143.709319,9104.533087,-306.438199
585.154343,4293.194464,5033.400406,459.657299
585.154664,3849.070898,3552.988522,383.047749
585.154984,2368.659014,3034.844362,76.609550
585.155304,814.226536,6069.688724,1302.362347
585.155625,2812.782580,7772.162391,2528.115143
585.155945,2442.679609,7772.162391,2145.067394
585.156266,4219.173869,8364.327145,2068.457845
585.156586,3849.070898,9548.656652,612.876398
585.156907,814.226536,9104.533087,-1608.800546
585.157227,2812.782580,7994.224174,-2681.334243
585.157547,6365.771101,9252.574275,-1685.410096
585.157868,6143.709319,10362.883188,-2068.457845
585.158188,6513.812290,9622.677246,-1991.848295
585.158509,6587.832884,9326.594869,-1455.581446
585.158829,4515.256246,10140.821405,-1608.800546
585.159150,6069.688724,8956.491898,-536.266849
585.159470,5181.441594,4811.338623,-766.095498
585.159790,7772.162391,3701.029710,-1532.190996
585.160111,8586.388927,6217.729913,1149.143247
585.160431,6069.688724,6143.709319,1915.238745
585.160752,4589.276840,6365.771101,-306.438199
585.161072,5921.647536,6069.688724,842.705048
585.161393,5477.523971,7254.018232,1302.362347
585.161713,7550.100608,7846.182985,1532.190996
585.162033,8512.368333,8216.285956,-842.705048
585.162354,6365.771101,8956.491898,-4213.525239
585.162674,7105.977043,10214.842000,-2681.334243
585.162995,5773.606348,8512.368333,-1608.800546
585.163315,3849.070898,8364.327145,-1302.362347
585.163636,4811.338623,9030.512492,306.438199
585.163956,4293.194464,10732.986159,-153.219100
585.164276,1554.432478,11325.150913,-1991.848295
585.164597,3034.844362,9104.533087,-1072.533697
585.164917,3478.967927,7328.038826,536.266849
585.165238,1702.473667,7328.038826,2221.676944
585.165558,1036.288319,7920.203579,2374.896044
585.165879,740.205942,8364.327145,1608.800546
585.166199,3849.070898,9104.533087,842.705048
585.166519,4663.297435,8586.388927,612.876398
585.166840,4145.153275,9104.533087,229.828649
585.167160,5181.441594,9844.739029,-1685.410096
585.167481,5329.482782,11695.253884,-766.095498
585.167801,4367.215058,9918.759623,-1225.752797
585.168122,5551.544565,7698.141797,-1532.190996
585.168442,4219.173869,6661.853478,-1762.019645
585.168762,2812.782580,7105.977043,-2911.162892
585.169083,4367.215058,9696.697840,-1915.238745
585.169403,6883.915261,8586.388927,459.657299
585.169724,6143.709319,8586.388927,0.000000
585.170044,5329.482782,5551.544565,1225.752797
585.170365,5773.606348,6365.771101,689.485948
585.170685,5033.400406,7328.038826,1532.190996
585.171005,4959.379811,7772.162391,1532.190996
585.171326,9548.656652,7031.956449,0.000000
585.171646,9326.594869,5699.585753,-1302.362347
585.171967,5847.626942,5255.462188,-1225.752797
585.172287,5699.585753,5995.668130,229.828649
585.172608,5551.544565,4811.338623,-1072.533697
585.172928,5699.585753,5995.668130,-2528.115143
585.173248,5699.585753,7105.977043,-2911.162892
585.173569,5477.523971,8068.244768,-3064.381992
585.173889,4885.359217,11843.295072,-995.924147
585.174210,3404.947333,13175.665768,1302.362347
585.174530,4959.379811,11177.109724,1455.581446
585.174851,4885.359217,7105.977043,689.485948
585.175171,296.082377,4219.173869,76.609550
585.175491,2072.576638,7624.121203,1149.143247
585.175812,4737.318029,12731.542202,2528.115143
585.176132,1628.453072,12287.418637,536.266849
585.176453,4515.256246,8734.430116,383.047749
585.176773,6291.750507,3256.906145,1532.190996
585.177094,2664.741391,3182.885551,2528.115143
585.177414,740.205942,4885.359217,2374.896044
585.177734,3923.091493,6439.791695,-383.047749
585.178055,6661.853478,8142.265362,-3677.258390
585.178375,7994.224174,8734.430116,-3830.477490
585.178696,9326.594869,9030.512492,-2834.553343
585.179016,8660.409521,9474.636058,-2451.505594
585.179337,5255.462188,11621.233289,-1149.143247
585.179657,3923.091493,11029.068536,306.438199
585.179977,7254.018232,8660.409521,-536.266849
585.180298,9918.759623,8216.285956,-459.657299
585.180618,8364.327145,10214.842000,1072.533697
585.180939,4663.297435,11177.109724,1685.410096
585.181259,2664.741391,8808.450710,383.047749
585.181580,3108.864956,4663.297435,842.705048
585.181900,4293.194464,962.267725,2374.896044
585.182220,4515.256246,1480.411884,3064.381992
585.182541,1850.514855,3701.029710,612.876398
585.182861,-222.061783,6069.688724,-2528.115143
585.183182,3775.050304,10288.862594,-3294.210641
585.183502,6365.771101,11843.295072,-1685.410096
585.183823,6439.791695,13989.892304,0.000000
585.184143,7179.997637,14804.118840,919.314598
585.184463,3997.112087,13471.748144,-1072.533697
585.184784,2072.576638,10584.944971,-2068.457845
585.185104,5551.544565,8734.430116,1149.143247
585.185425,7476.080014,7328.038826,995.924147
585.185745,4071.132681,5921.647536,995.924147
585.186066,4367.215058,7031.956449,383.047749
585.186386,4885.359217,6143.709319,-842.705048
585.186707,2072.576638,2294.638420,-612.876398
585.187027,6809.894666,222.061783,1838.629195
585.187347,9474.636058,3256.906145,2834.553343
585.187668,7254.018232,5847.626942,1991.848295
585.187988,5181.441594,8142.265362,-306.438199
585.188309,5921.647536,9992.780217,-3753.867940
585.188629,6439.791695,10288.862594,-4826.401637
585.188950,7994.224174,11991.336260,-2604.724693
585.189270,9548.656652,11473.192101,-1838.629195
585.189590,9918.759623,12213.398043,-1149.143247
585.189911,5921.647536,12657.521608,689.485948
585.190231,296.082377,8882.471304,-229.828649
585.190552,1184.329507,5255.462188,0.000000
585.190872,3182.885551,3404.947333,2757.943793
585.191193,1480.411884,3034.844362,2145.067394
585.191513,1554.432478,3775.050304,0.000000
585.191833,3775.050304,6291.750507,0.000000
585.192154,1924.535449,10510.924376,1838.629195
585.192474,1406.391290,11547.212695,1991.848295
585.192795,4441.235652,11843.295072,689.485948
585.193115,5847.626942,10658.965565,-1685.410096
585.193436,3775.050304,9918.759623,-1225.752797
585.193756,5477.523971,8512.368333,1072.533697
585.194076,6587.832884,7772.162391,995.924147
585.194397,6217.729913,9992.780217,689.485948
585.194717,7846.182985,10732.986159,536.266849
585.195038,9104.533087,9918.759623,-2374.896044
585.195358,8364.327145,5921.647536,-2681.334243
585.195679,5699.585753,3997.112087,-383.047749
585.195999,8142.265362,148.041188,3294.210641
585.196319,9178.553681,444.123565,2911.162892
585.196640,7476.080014,2442.679609,766.095498
585.196960,5477.523971,7920.203579,-2145.067394
585.197281,5773.606348,11695.253884,-3600.648841
585.197601,7698.141797,12509.480420,-1991.848295
585.197922,9548.656652,11843.295072,919.314598
585.198242,7550.100608,10510.924376,1072.533697
585.198562,4885.359217,7550.100608,-536.266849
585.198883,1776.494261,5921.647536,-76.609550
585.199203,1184.329507,6809.894666,229.828649
585.199524,1850.514855,6809.894666,1225.752797
585.199844,3849.070898,8734.430116,-76.609550
585.200165,4293.194464,10955.047942,-1838.629195
585.200485,3775.050304,13397.727550,919.314598
585.200805,1776.494261,9400.615463,2681.334243
585.201126,1850.514855,5107.421000,2145.067394
585.201446,1998.556043,4737.318029,3370.820191
585.201767,1776.494261,5551.544565,2451.505594
585.202087,3182.885551,8586.388927,306.438199
585.202408,5403.503377,10732.986159,-842.705048
585.202728,7254.018232,11547.212695,0.000000
585.203048,7179.997637,10140.821405,-612.876398
585.203369,5403.503377,6735.874072,-2298.286494
585.203689,5107.421000,5847.626942,-1915.238745
585.204010,6957.935855,4145.153275,0.000000
585.204330,6513.812290,4737.318029,306.438199
585.204651,8290.306550,6143.709319,-1149.143247
585.204971,7031.956449,8068.244768,-2757.943793
585.205291,6735.874072,10732.986159,-2221.676944
585.205612,5995.668130,9474.636058,-919.314598
585.205932,5181.441594,7920.203579,-1378.971896
585.206253,5033.400406,7105.977043,-766.095498
585.206573,3182.885551,7772.162391,-229.828649
585.206894,2368.659014,9400.615463,229.828649
585.207214,5699.585753,11547.212695,229.828649
585.207534,4737.318029,9474.636058,383.047749
585.207855,3108.864956,7846.182985,0.000000
585.208175,3182.885551,7402.059420,1608.800546
585.208496,0.000000,7328.038826,1455.581446
585.208816,888.247130,6735.874072,919.314598
585.209137,4367.215058,5921.647536,1532.190996
585.209457,6439.791695,7105.977043,536.266849
585.209777,4589.276840,10214.842000,-995.924147
585.210098,3404.947333,12287.418637,-3140.991542
585.210418,4367.215058,12583.501014,-3677.258390
585.210739,7402.059420,12361.439231,-1608.800546
585.211059,8438.347739,8364.327145,2145.067394
585.211380,7772.162391,6957.935855,2145.067394
585.211700,6439.791695,7105.977043,1225.752797
585.212020,3849.070898,9104.533087,1149.143247
585.212341,3997.112087,7254.018232,1685.410096
585.212661,6513.812290,3108.864956,1225.752797
585.212982,7698.141797,1998.556043,0.000000
585.213302,7254.018232,3034.844362,-1608.800546
585.213623,7624.121203,6143.709319,-766.095498
585.213943,8290.306550,7772.162391,-459.657299
585.214263,7624.121203,8512.368333,-1838.629195
585.214584,8364.327145,8290.306550,-2068.457845
585.214904,7476.080014,9178.553681,-2987.772442
585.215225,5477.523971,9770.718434,-1608.800546
585.215545,5403.503377,11251.130318,-919.314598
585.215866,7031.956449,10362.883188,-919.314598
585.216186,6217.729913,9104.533087,-536.266849
585.216506,4515.256246,9030.512492,0.000000
585.216827,2294.638420,7772.162391,383.047749
585.217147,296.082377,5181.441594,1991.848295
585.217468,2442.679609,3775.050304,3064.381992
585.217788,3330.926739,4293.194464,3447.429741
585.218109,4663.297435,5551.544565,2681.334243
585.218429,4811.338623,8216.285956,1072.533697
585.218749,2220.617826,9474.636058,-306.438199
585.219070,3923.091493,11843.295072,-919.314598
585.219390,4441.235652,10881.027347,0.000000
585.219711,5699.585753,9696.697840,-612.876398
585.220031,7105.977043,9474.636058,-1225.752797
585.220352,4293.194464,9696.697840,-1455.581446
585.220672,3108.864956,8142.265362,-2298.286494
585.220992,3404.947333,7994.224174,-1685.410096
585.221313,4737.318029,7031.956449,-229.828649
585.221633,6291.750507,7846.182985,919.314598
585.221954,5847.626942,9474.636058,842.705048
585.222274,3849.070898,8068.244768,-1378.971896
585.222595,4145.153275,6069.688724,459.657299
585.222915,2368.659014,5551.544565,2298.286494
585.223236,3627.009116,6217.729913,842.705048
585.223556,4219.173869,8882.471304,-612.876398
585.223876,4737.318029,11917.315666,-2374.896044
585.224197,4589.276840,14359.995275,-3140.991542
585.224517,4367.215058,12657.521608,-536.266849
585.224838,5033.400406,9770.718434,1378.971896
585.225158,5625.565159,7402.059420,1608.800546
585.225479,2442.679609,4589.276840,1685.410096
585.225799,4219.173869,4885.359217,1532.190996
585.226119,4737.318029,5995.668130,842.705048
585.226440,4737.318029,7698.141797,0.000000
585.226760,8142.265362,9104.533087,536.266849
585.227081,7994.224174,8734.430116,229.828649
585.227401,7179.997637,9104.533087,-1302.362347
585.227722,6735.874072,6439.791695,0.000000
585.228042,5181.441594,4293.194464,766.095498
585.228362,7105.977043,6439.791695,-459.657299
585.228683,6291.750507,8882.471304,229.828649
585.229003,5773.606348,10658.965565,-995.924147
585.229324,8142.265362,11325.150913,-1302.362347
585.229644,4589.276840,7772.162391,-919.314598
585.229964,2812.782580,5181.441594,-1685.410096
585.230285,3775.050304,6143.709319,76.609550
585.230605,2886.803174,9770.718434,0.000000
585.230925,1480.411884,8808.450710,383.047749
585.231246,3775.050304,6513.812290,1915.238745
585.231566,6883.915261,7624.121203,1532.190996
585.231886,2072.576638,10658.965565,612.876398
585.232207,74.020594,11103.089130,-1149.143247
585.232527,3701.029710,10214.842000,-2221.676944
585.232848,6661.853478,9030.512492,229.828649
585.233168,6069.688724,5921.647536,3140.991542
585.233488,5847.626942,5773.606348,1225.752797
585.233809,3701.029710,6513.812290,-3524.039291
585.234129,1332.370696,9178.553681,-3217.601092
585.234449,3775.050304,8438.347739,-1225.752797
585.234770,9548.656652,5255.462188,612.876398
585.235090,9474.636058,6883.915261,2068.457845
585.235410,5181.441594,9844.739029,76.609550
585.235731,3108.864956,11991.336260,-3217.601092
585.236051,4737.318029,10436.903782,-3983.696590
585.236371,6809.894666,7328.038826,-1149.143247
585.236692,7994.224174,4145.153275,2681.334243
585.237012,6143.709319,5847.626942,766.095498
585.237333,3330.926739,10881.027347,-1225.752797
585.237653,962.267725,11843.295072,-2221.676944
585.237973,3923.091493,8290.306550,-1685.410096
585.238294,6587.832884,4737.318029,689.485948
585.238614,4589.276840,4885.359217,2298.286494
585.238934,3997.112087,9992.780217,1762.019645
585.239255,3256.906145,12435.459826,-1072.533697
585.239575,2590.720797,10807.006753,-4519.963438
585.239895,6143.709319,7920.203579,-1838.629195
585.240216,7772.162391,5699.585753,1455.581446
585.240536,5255.462188,7179.997637,2374.896044
585.240856,3849.070898,10510.924376,1685.410096
585.241177,3627.009116,13323.706956,-1378.971896
585.241497,3478.967927,12213.398043,-2528.115143
585.241817,5921.647536,7328.038826,-1072.533697
585.242138,8660.409521,4145.153275,612.876398
585.242458,4811.338623,5847.626942,1302.362347
585.242779,2146.597232,6883.915261,229.828649
585.243099,1480.411884,5255.462188,-1149.143247
585.243419,5107.421000,4663.297435,-1149.143247
585.243740,7105.977043,7550.100608,1072.533697
585.244060,6883.915261,10881.027347,842.705048
585.244380,5181.441594,10214.842000,-2681.334243
585.244701,4663.297435,11251.130318,-3064.381992
585.245021,3923.091493,10362.883188,-842.705048
585.245341,5625.565159,7031.956449,919.314598
585.245662,6513.812290,5181.441594,383.047749
585.245982,3923.091493,6883.915261,-2987.772442
585.246302,2516.700203,10658.965565,-3753.867940
585.246623,1480.411884,10140.821405,-3064.381992
585.246943,4145.153275,8734.430116,-995.924147
585.247263,5329.482782,5847.626942,3294.210641
585.247584,5625.565159,6809.894666,3983.696590
585.247904,3627.009116,8586.388927,766.095498
585.248225,1184.329507,8290.306550,-1072.533697
585.248545,3108.864956,7328.038826,-612.876398
585.248865,7402.059420,6883.915261,2298.286494
585.249186,9548.656652,8660.409521,1762.019645
585.249506,9474.636058,12139.377449,-383.047749
585.249826,6143.709319,11843.295072,-4213.525239
585.250147,4293.194464,9474.636058,-4290.134789
585.250467,6957.935855,5107.421000,1378.971896
585.250787,6143.709319,2368.659014,4826.401637
585.251108,5773.606348,2664.741391,3447.429741
585.251428,4811.338623,6439.791695,-919.314598
585.251748,5107.421000,9326.594869,-4136.915689
585.252069,3701.029710,9326.594869,-2451.505594
585.252389,8438.347739,7772.162391,1225.752797
585.252709,9104.533087,8882.471304,995.924147
585.253030,6587.832884,9992.780217,0.000000
585.253350,2516.700203,8808.450710,-306.438199
585.253671,4663.297435,6365.771101,-995.924147
585.253991,6291.750507,5181.441594,153.219100
585.254311,5773.606348,7624.121203,2528.115143
585.254632,5329.482782,11177.109724,-76.609550
585.254952,2664.741391,13471.748144,-3677.258390
585.255272,148.041188,11547.212695,-3447.429741
585.255593,2072.576638,7328.038826,-1149.143247
585.255913,4663.297435,6143.709319,2987.772442
585.256233,3108.864956,6735.874072,3294.210641
585.256554,1554.432478,7698.141797,1072.533697
585.256874,2368.659014,9326.594869,229.828649
585.257194,4737.318029,9992.780217,1149.143247
585.257515,5403.503377,11103.089130,1608.800546
585.257835,5033.400406,10362.883188,612.876398
585.258155,6365.771101,10510.924376,-1225.752797
585.258476,4885.359217,6587.832884,-1915.238745
585.258796,3849.070898,4293.194464,-1225.752797
585.259117,5033.400406,2442.679609,76.609550
585.259437,4885.359217,4071.132681,-1225.752797
585.259757,4959.379811,8512.368333,-3600.648841
585.260078,6735.874072,10584.944971,-3064.381992
585.260398,9400.615463,10955.047942,-1532.190996
585.260718,8734.430116,11843.295072,689.485948
585.261039,5477.523971,9918.759623,2451.505594
585.261359,4441.235652,7105.977043,76.609550
585.261679,6365.771101,4737.318029,-689.485948
585.262000,5847.626942,6143.709319,-689.485948
585.262320,6143.709319,7624.121203,0.000000
585.262640,6809.894666,9178.553681,-842.705048
585.262961,6735.874072,10288.862594,153.219100
585.263281,3182.885551,9844.739029,1762.019645
585.263601,4145.153275,5477.523971,2604.724693
585.263922,3923.091493,1258.350101,1455.581446
585.264242,4737.318029,3478.967927,306.438199
585.264563,3849.070898,7254.018232,383.047749
585.264883,3775.050304,9474.636058,-2528.115143
585.265203,6661.853478,10362.883188,-4060.306139
585.265524,8438.347739,12435.459826,-459.657299
585.265844,5107.421000,9844.739029,842.705048
585.266164,5921.647536,8660.409521,229.828649
585.266485,4145.153275,8882.471304,1455.581446
585.266805,2664.741391,9326.594869,0.000000
585.267125,5107.421000,8956.491898,1302.362347
585.267446,7179.997637,8956.491898,842.705048
585.267766,4959.379811,9178.553681,-306.438199
585.268086,2960.823768,7031.956449,0.000000
585.268407,2072.576638,3849.070898,-306.438199
585.268727,4885.359217,4515.256246,229.828649
585.269047,5477.523971,5181.441594,2145.067394
585.269368,5107.421000,7476.080014,-536.266849
585.269688,4293.194464,8142.265362,-3447.429741
585.270009,3701.029710,10362.883188,-2911.162892
585.270329,6513.812290,13101.645173,-383.047749
585.270649,7328.038826,12805.562797,-689.485948
585.270970,6883.915261,11843.295072,-2221.676944
585.271290,4441.235652,10436.903782,-1915.238745
585.271610,4145.153275,8660.409521,766.095498
585.271931,4145.153275,6587.832884,2528.115143
585.272251,4663.297435,4737.318029,2911.162892
585.272571,4219.173869,5995.668130,1991.848295
585.272892,4737.318029,8808.450710,2221.676944
585.273212,1480.411884,6513.812290,2451.505594
585.273532,4663.297435,2590.720797,2298.286494
585.273853,7920.203579,2960.823768,1685.410096
585.274173,5625.565159,5625.565159,-995.924147
585.274493,4071.132681,6809.894666,-3064.381992
585.274814,7328.038826,7920.203579,-2757.943793
585.275134,8216.285956,10214.842000,-2298.286494
585.275455,7994.224174,11325.150913,-1149.143247
585.275775,9326.594869,12953.603985,-3140.991542
585.276095,8216.285956,13619.789333,-4596.572988
585.276416,5847.626942,12361.439231,-1915.238745
585.276736,4071.132681,6143.709319,1838.629195
585.277056,5625.565159,1554.432478,3447.429741
585.277377,2516.700203,2442.679609,3217.601092
585.277697,1554.432478,5403.503377,1378.971896
585.278017,1924.535449,6957.935855,-1225.752797
585.278338,4885.359217,5847.626942,-1149.143247
585.278658,6439.791695,6809.894666,2374.896044
585.278978,6735.874072,7994.224174,3217.601092
585.279299,5329.482782,9992.780217,306.438199
585.279619,5699.585753,11473.192101,-1225.752797
585.279940,4145.153275,9474.636058,-2451.505594
585.280260,6513.812290,6661.853478,-1915.238745
585.280580,8956.491898,6661.853478,-229.828649
585.280901,7772.162391,11991.336260,0.000000
585.281221,5403.503377,14211.954086,-2145.067394
585.281541,4145.153275,11177.109724,-3830.477490
585.281862,6587.832884,6365.771101,-2068.457845
585.282182,4885.359217,3478.967927,2068.457845
585.282502,3182.885551,4219.173869,4136.915689
585.282823,1776.494261,5403.503377,1915.238745
585.283143,3552.988522,7031.956449,766.095498
585.283463,4737.318029,7624.121203,766.095498
585.283784,5255.462188,9252.574275,842.705048
585.284104,3404.947333,11769.274478,0.000000
585.284424,2960.823768,13249.686362,-1608.800546
585.284745,3552.988522,11695.253884,-1608.800546
585.285065,6143.709319,6365.771101,-995.924147
585.285386,8142.265362,4293.194464,689.485948
585.285706,5181.441594,5255.462188,536.266849
585.286026,2812.782580,8512.368333,-229.828649
585.286347,5995.668130,10584.944971,-536.266849
585.286667,9178.553681,8734.430116,-766.095498
585.286987,9696.697840,6661.853478,-229.828649
585.287308,8660.409521,5551.544565,459.657299
585.287628,5033.400406,6957.935855,-536.266849
585.287948,1184.329507,7105.977043,229.828649
585.288269,2664.741391,6661.853478,1455.581446
585.288589,8660.409521,7328.038826,1915.238745
585.288909,6069.688724,8512.368333,612.876398
585.289230,2072.576638,9474.636058,-1838.629195
585.289550,1628.453072,9400.615463,-1378.971896
585.289870,3701.029710,8660.409521,306.438199
585.290191,5181.441594,7550.100608,1455.581446
585.290511,3775.050304,4959.379811,459.657299
585.290832,6069.688724,6513.812290,-2145.067394
585.291152,4663.297435,8364.327145,-1455.581446
585.291472,2738.761985,8142.265362,-612.876398
585.291793,7031.956449,7105.977043,-842.705048
585.292113,8364.327145,7179.997637,-153.219100
585.292433,7920.203579,10288.862594,1149.143247
585.292754,7254.018232,11251.130318,383.047749
585.293074,6883.915261,9104.533087,-2145.067394
585.293394,7772.162391,8068.244768,-2068.457845
585.293715,6957.935855,7254.018232,612.876398
585.294035,6513.812290,5551.544565,2451.505594
585.294355,7624.121203,6661.853478,2987.772442
585.294676,4811.338623,5329.482782,2834.553343
585.294996,2442.679609,4811.338623,229.828649
585.295316,3849.070898,5773.606348,-842.705048
585.295637,2664.741391,10066.800811,-2145.067394
585.295957,1036.288319,10510.924376,-2068.457845
585.296278,5255.462188,9844.739029,-612.876398
585.296598,8882.471304,9992.780217,-153.219100
585.296918,3034.844362,12435.459826,-842.705048
585.297239,-518.144159,11769.274478,-2298.286494
585.297559,0.000000,9622.677246,-2374.896044
585.297879,5995.668130,11325.150913,2221.676944
585.298200,5033.400406,9400.615463,5745.716235
585.298520,3775.050304,8512.368333,2681.334243
585.298840,2664.741391,7624.121203,-3370.820191
585.299161,-370.102971,9326.594869,-2681.334243
585.299481,0.000000,4959.379811,229.828649
585.299801,7550.100608,1110.308913,2451.505594
585.300122,11103.089130,3627.009116,3370.820191
585.300442,7402.059420,9548.656652,766.095498
585.300762,3330.926739,12139.377449,-3830.477490
585.301083,6439.791695,10881.027347,-5209.449386
585.301403,8956.491898,10510.924376,-1685.410096
585.301724,10510.924376,6809.894666,2374.896044
585.302044,9104.533087,3330.926739,0.000000
585.302364,6291.750507,5551.544565,-1915.238745
585.302685,3775.050304,9252.574275,-1915.238745
585.303005,4737.318029,8142.265362,-153.219100
585.303325,7698.141797,5847.626942,306.438199
585.303646,9326.594869,7476.080014,1225.752797
585.303966,6069.688724,9030.512492,2451.505594
585.304286,2072.576638,7031.956449,2068.457845
585.304607,1924.535449,4589.276840,1455.581446
585.304927,2368.659014,2442.679609,1149.143247
585.305247,5403.503377,4737.318029,1225.752797
585.305568,6735.874072,8956.491898,-842.705048
585.305888,4737.318029,13101.645173,-3447.429741
585.306208,3404.947333,14878.139434,-2987.772442
585.306529,4071.132681,12139.377449,-995.924147
585.306849,3256.906145,7254.018232,1225.752797
585.307170,6439.791695,4071.132681,1608.800546
585.307490,7105.977043,5477.523971,1149.143247
585.307810,2886.803174,6883.915261,-766.095498
585.308131,3034.844362,6143.709319,-1532.190996
585.308451,5477.523971,4959.379811,383.047749
585.308771,8734.430116,7031.956449,995.924147
585.309092,8512.368333,9030.512492,1225.752797
585.309412,6883.915261,10436.903782,-2221.676944
585.309732,3775.050304,8364.327145,-4290.134789
585.310053,3849.070898,8216.285956,-1378.971896
585.310373,5181.441594,8290.306550,1685.410096
585.310693,4885.359217,10807.006753,766.095498
585.311014,2442.679609,11843.295072,-229.828649
585.311334,2590.720797,12065.356855,-2298.286494
585.311654,2442.679609,11473.192101,-536.266849
585.311975,518.144159,7772.162391,1149.143247
585.312295,1924.535449,6513.812290,1225.752797
585.312616,3775.050304,7698.141797,1149.143247
585.312936,2442.679609,10658.965565,1455.581446
585.313256,1406.391290,10436.903782,2068.457845
585.313577,4145.153275,7550.100608,459.657299
585.313897,4737.318029,7402.059420,0.000000
585.314217,3627.009116,7624.121203,612.876398
585.314538,5921.647536,9696.697840,-689.485948
585.314858,6809.894666,11029.068536,-1378.971896
585.315178,4959.379811,9474.636058,-2528.115143
585.315499,6217.729913,9474.636058,-689.485948
585.315819,5477.523971,9622.677246,-306.438199
585.316139,4515.256246,8068.244768,-1685.410096
585.316460,6513.812290,8216.285956,-1302.362347
585.316780,7550.100608,7994.224174,-1302.362347
585.317100,7772.162391,8882.471304,536.266849
585.317421,4737.318029,7031.956449,2987.772442
585.317741,3034.844362,4589.276840,1685.410096
585.318062,5181.441594,4071.132681,383.047749
585.318382,5033.400406,6883.915261,919.314598
585.318702,2590.720797,6513.812290,229.828649
585.319023,5699.585753,4737.318029,-842.705048
585.319343,8290.306550,5255.462188,-919.314598
585.319663,6439.791695,6957.935855,-306.438199
585.319984,5625.565159,8142.265362,-1608.800546
585.320304,7698.141797,10807.006753,-3677.258390
585.320624,5477.523971,11029.068536,-3983.696590
585.320945,4885.359217,8068.244768,-766.095498
585.321265,6957.935855,6809.894666,2068.457845
585.321585,4515.256246,8364.327145,0.000000
585.321906,3775.050304,10288.862594,-459.657299
585.322226,4885.359217,10362.883188,-1302.362347
585.322546,3849.070898,8364.327145,-1608.800546
585.322867,3627.009116,4737.318029,1072.533697
585.323187,6735.874072,4737.318029,4596.572988
585.323508,6809.894666,6587.832884,4290.134789
585.323828,4737.318029,7179.997637,1838.629195
585.324148,5255.462188,5921.647536,229.828649
585.324469,7698.141797,4071.132681,-919.314598
585.324789,9400.615463,3997.112087,0.000000
585.325109,11029.068536,6957.935855,0.000000
585.325430,10584.944971,7994.224174,-4519.963438
585.325750,11325.150913,8512.368333,-6281.983084
585.326070,10881.027347,6661.853478,-2987.772442
585.326391,10436.903782,5995.668130,383.047749
585.326711,11029.068536,7179.997637,1532.190996
585.327031,8216.285956,10140.821405,0.000000
585.327352,7328.038826,8808.450710,-2681.334243
585.327672,7550.100608,4589.276840,-1838.629195
585.327993,7031.956449,2516.700203,1149.143247
585.328313,8660.409521,3627.009116,3983.696590
585.328633,6217.729913,4071.132681,3370.820191
585.328954,3108.864956,4441.235652,766.095498
585.329274,5625.565159,4737.318029,306.438199
585.329594,7105.977043,4737.318029,1838.629195
585.329915,8438.347739,5329.482782,1608.800546
585.330235,10140.821405,5329.482782,-842.705048
585.330555,9548.656652,6291.750507,-4749.792088
585.330876,9030.512492,7179.997637,-6052.154434
585.331196,10214.842000,5329.482782,-3753.867940
585.331516,10288.862594,4737.318029,-2911.162892
585.331837,11621.233289,7476.080014,-2221.676944
585.332157,10362.883188,11103.089130,-1302.362347
585.332478,7105.977043,9992.780217,-3294.210641
585.332798,8364.327145,7846.182985,-3217.601092
585.333119,7105.977043,5625.565159,2298.286494
585.333439,3552.988522,4663.297435,3907.087040
585.333760,5847.626942,4959.379811,4443.353888
585.334080,4737.318029,5625.565159,1762.019645
585.334401,5107.421000,5773.606348,-1532.190996
585.334721,6143.709319,4959.379811,1072.533697
585.335042,8216.285956,5255.462188,2834.553343
585.335362,9178.553681,5329.482782,2451.505594
585.335683,9622.677246,6069.688724,2145.067394
585.336003,10955.047942,7105.977043,-2757.943793
585.336324,11251.130318,4811.338623,-4519.963438
585.336644,13101.645173,3923.091493,-3370.820191
585.336965,15396.283594,4737.318029,-2145.067394
585.337286,14730.098246,6069.688724,-1762.019645
585.337606,15100.201217,7550.100608,-2528.115143
585.337927,13249.686362,7846.182985,-3064.381992
585.338247,11843.295072,4885.359217,-1378.971896
585.338568,11029.068536,3701.029710,1532.190996
585.338888,10066.800811,3182.885551,2528.115143
585.339209,8808.450710,4145.153275,2451.505594
585.339529,6735.874072,4811.338623,2528.115143
585.339850,5033.400406,4441.235652,995.924147
585.340170,7624.121203,3997.112087,1149.143247
585.340491,5329.482782,3108.864956,612.876398
585.340811,5477.523971,4441.235652,-383.047749
585.341132,7624.121203,8734.430116,-919.314598
585.341452,7179.997637,10214.842000,0.000000
585.341773,7328.038826,9030.512492,536.266849
585.342093,12509.480420,7550.100608,919.314598
585.342414,10807.006753,7698.141797,-229.828649
585.342734,7031.956449,6365.771101,-2221.676944
585.343055,7846.182985,4293.194464,-1915.238745
585.343375,10288.862594,3256.906145,1149.143247
585.343696,10881.027347,1184.329507,4136.915689
585.344016,9622.677246,444.123565,4366.744339
585.344337,8956.491898,2294.638420,153.219100
585.344657,7254.018232,4441.235652,-2451.505594
585.344978,8216.285956,5033.400406,-153.219100
585.345298,12435.459826,4737.318029,1378.971896
585.345619,13841.851115,3849.070898,2068.457845
585.345939,9992.780217,2812.782580,-229.828649
585.346260,8512.368333,4071.132681,-4060.306139
585.346581,7328.038826,5921.647536,-5132.839837
585.346901,9326.594869,8216.285956,-3753.867940
585.347222,12509.480420,8364.327145,-1378.971896
585.347542,11695.253884,7624.121203,-536.266849
585.347863,9104.533087,9178.553681,153.219100
585.348183,6957.935855,9178.553681,919.314598
585.348504,4071.132681,5921.647536,306.438199
585.348824,5329.482782,3256.906145,1225.752797
585.349145,5995.668130,3330.926739,2987.772442
585.349465,5329.482782,4959.379811,1685.410096
585.349786,5477.523971,6217.729913,2451.505594
585.350106,6957.935855,7105.977043,2221.676944
585.350427,7920.203579,7105.977043,1685.410096
585.350747,9326.594869,6291.750507,1762.019645
585.351068,9252.574275,5107.421000,536.266849
585.351388,8660.409521,4441.235652,-1838.629195
585.351709,11621.233289,4737.318029,-766.095498
585.352029,13249.686362,5181.441594,-459.657299
585.352350,14063.912898,4959.379811,-2451.505594
585.352670,15026.180623,5625.565159,-3753.867940
585.352991,13915.871710,7105.977043,-3677.258390
585.353311,13101.645173,7105.977043,-1915.238745
585.353632,12435.459826,4737.318029,689.485948
585.353952,11917.315666,2368.659014,919.314598
585.354273,11621.233289,1184.329507,-153.219100
585.354593,9178.553681,3627.009116,153.219100
585.354914,7772.162391,4811.338623,306.438199
585.355234,6809.894666,5477.523971,536.266849
585.355555,8660.409521,7031.956449,1455.581446
585.355875,7328.038826,6957.935855,689.485948
585.356196,6217.729913,5995.668130,-459.657299
585.356517,7920.203579,6069.688724,0.000000
585.356837,8438.347739,7254.018232,689.485948
585.357158,6587.832884,6291.750507,306.438199
585.357478,7994.224174,6439.791695,0.000000
585.357799,8586.388927,5699.585753,-1455.581446
585.358119,7772.162391,5255.462188,-459.657299
585.358440,9474.636058,4589.276840,1302.362347
585.358760,10658.965565,3701.029710,383.047749
585.359081,10436.903782,2812.782580,76.609550
585.359401,11547.212695,3404.947333,842.705048
585.359722,11843.295072,4145.153275,689.485948
585.360042,11843.295072,4293.194464,-612.876398
585.360363,12509.480420,3775.050304,0.000000
585.360683,12731.542202,3478.967927,-842.705048
585.361004,13323.706956,3997.112087,-1149.143247
585.361324,12953.603985,5255.462188,-919.314598
585.361645,11399.171507,5625.565159,-2068.457845
585.361965,11325.150913,5921.647536,-1762.019645
585.362286,10288.862594,4811.338623,-995.924147
585.362606,9400.615463,3478.967927,-383.047749
585.362927,9252.574275,3330.926739,0.000000
585.363247,7994.224174,4811.338623,0.000000
585.363568,7105.977043,6291.750507,153.219100
585.363888,6439.791695,6217.729913,383.047749
585.364209,6365.771101,6439.791695,-229.828649
585.364529,7254.018232,7698.141797,0.000000
585.364850,5995.668130,9030.512492,1302.362347
585.365170,5107.421000,8956.491898,1532.190996
585.365491,5477.523971,8142.265362,1072.533697
585.365812,5995.668130,6587.832884,306.438199
585.366132,6513.812290,6883.915261,76.609550
585.366453,6883.915261,6809.894666,995.924147
585.366773,7179.997637,6069.688724,2068.457845
585.367094,8660.409521,5995.668130,1608.800546
585.367414,9178.553681,5033.400406,995.924147
585.367735,10140.821405,4959.379811,0.000000
585.368055,10510.924376,4737.318029,229.828649
585.368376,11251.130318,3701.029710,-306.438199
585.368696,13323.706956,2146.597232,-842.705048
585.369017,14656.077652,2072.576638,-1302.362347
585.369337,14137.933492,4219.173869,-2068.457845
585.369658,13397.727550,6069.688724,-1608.800546
585.369978,12731.542202,5255.462188,-1378.971896
585.370299,13767.830521,4737.318029,-1532.190996
585.370619,13471.748144,4071.132681,-689.485948
585.370940,11843.295072,4145.153275,-1149.143247
585.371260,9474.636058,5033.400406,-1608.800546
585.371581,8068.244768,5107.421000,-383.047749
585.371901,8068.244768,3849.070898,153.219100
585.372222,9400.615463,2812.782580,995.924147
585.372542,8882.471304,4145.153275,919.314598
585.372863,6809.894666,7476.080014,-76.609550
585.373183,4885.359217,8882.471304,-536.266849
585.373504,5625.565159,7105.977043,76.609550
585.373824,7328.038826,5033.400406,1532.190996
585.374145,8142.265362,4737.318029,2451.505594
585.374465,7105.977043,6439.791695,1225.752797
585.374786,5921.647536,8364.327145,-1532.190996
585.375106,6735.874072,8142.265362,-1225.752797
585.375427,8512.368333,6217.729913,1072.533697
585.375748,10955.047942,4145.153275,2298.286494
585.376068,11177.109724,4663.297435,2451.505594
585.376389,10288.862594,5033.400406,0.000000
585.376709,9918.759623,4145.153275,-2068.457845
585.377030,11251.130318,2072.576638,-1762.019645
585.377350,13471.748144,2590.720797,536.266849
585.377671,13915.871710,2886.803174,1225.752797
585.377991,13323.706956,3256.906145,-1302.362347
585.378312,13619.789333,4811.338623,-3983.696590
585.378632,12213.398043,5847.626942,-3677.258390
585.378953,12065.356855,5995.668130,-1991.848295
585.379273,11917.315666,5921.647536,-766.095498
585.379594,10658.965565,6143.709319,-383.047749
585.379914,8956.491898,6957.935855,-766.095498
585.380235,7328.038826,6661.853478,-459.657299
585.380555,5995.668130,5551.544565,-1149.143247
585.380876,6069.688724,5699.585753,0.000000
585.381196,5995.668130,7328.038826,1762.019645
585.381517,5551.544565,7920.203579,2298.286494
585.381837,4959.379811,7624.121203,2528.115143
585.382158,4737.318029,7105.977043,2451.505594
585.382478,4663.297435,6439.791695,1685.410096
585.382799,4811.338623,5921.647536,689.485948
585.383119,7105.977043,6143.709319,0.000000
585.383440,9474.636058,6957.935855,383.047749
585.383760,9918.759623,7105.977043,229.828649
585.384081,9918.759623,6587.832884,0.000000
585.384401,10362.883188,4737.318029,-919.314598
585.384722,11473.192101,3923.091493,-459.657299
585.385043,12805.562797,2960.823768,0.000000
585.385363,13471.748144,2294.638420,-842.705048
585.385684,13841.851115,2368.659014,-1838.629195
585.386004,13767.830521,2960.823768,-1685.410096
585.386325,13249.686362,3478.967927,-766.095498
585.386645,12953.603985,4293.194464,-1149.143247
585.386966,12213.398043,4145.153275,-2145.067394
585.387286,10658.965565,4589.276840,-1838.629195
585.387607,9622.677246,5107.421000,0.000000
585.387927,8512.368333,5329.482782,383.047749
585.388248,7698.141797,6217.729913,0.000000
585.388568,7105.977043,6069.688724,-1302.362347
585.388889,6735.874072,6365.771101,-1455.581446
585.389209,6735.874072,7698.141797,76.609550
585.389530,6439.791695,8512.368333,1378.971896
585.389850,4959.379811,8438.347739,1608.800546
585.390171,5773.606348,6883.915261,1762.019645
585.390491,6143.709319,5995.668130,2145.067394
585.390812,5699.585753,5403.503377,1915.238745
585.391132,6439.791695,4737.318029,1225.752797
585.391453,7624.121203,5255.462188,459.657299
585.391773,8512.368333,5181.441594,-306.438199
585.392094,9770.718434,5551.544565,-306.438199
585.392414,11769.274478,6143.709319,-766.095498
585.392735,12213.398043,5921.647536,0.000000
585.393055,12065.356855,5181.441594,1455.581446
585.393376,11547.212695,4367.215058,306.438199
585.393696,11473.192101,3775.050304,-612.876398
585.394017,11473.192101,4441.235652,-1762.019645
585.394337,11695.253884,5625.565159,-2145.067394
585.394658,11769.274478,6069.688724,-2911.162892
585.394979,10881.027347,5477.523971,-2298.286494
585.395299,9622.677246,5033.400406,-1225.752797
585.395620,8882.471304,4959.379811,536.266849
585.395940,8068.244768,5329.482782,1532.190996
585.396261,7624.121203,5847.626942,1455.581446
585.396581,7328.038826,5551.544565,229.828649
585.396902,7254.018232,5403.503377,-842.705048
585.397222,7031.956449,6365.771101,-459.657299
585.397543,6809.894666,7328.038826,76.609550
585.397863,7476.080014,8290.306550,842.705048
585.398184,7105.977043,8068.244768,459.657299
585.398504,7105.977043,7105.977043,0.000000
585.398825,7179.997637,5773.606348,536.266849
585.399145,7105.977043,5551.544565,689.485948
585.399466,7846.182985,4811.338623,1685.410096
585.399786,8882.471304,3775.050304,1762.019645
585.400107,9992.780217,3256.906145,536.266849
585.400427,9992.780217,3923.091493,-536.266849
585.400748,9696.697840,4219.173869,-1838.629195
585.401068,10510.924376,5625.565159,-1685.410096
585.401389,11769.274478,6143.709319,-1532.190996
585.401709,12731.542202,6291.750507,-1149.143247
585.402030,12731.542202,5995.668130,-1302.362347
585.402350,11473.192101,6365.771101,-1149.143247
585.402671,10066.800811,5847.626942,-383.047749
585.402991,9696.697840,4811.338623,229.828649
585.403312,10066.800811,4441.235652,0.000000
585.403632,9770.718434,4367.215058,-536.266849
585.403953,9326.594869,4811.338623,-459.657299
585.404274,8142.265362,4959.379811,0.000000
585.404594,7920.203579,4959.379811,-536.266849
585.404915,7698.141797,5625.565159,0.000000
585.405235,8216.285956,6513.812290,-383.047749
585.405556,9104.533087,7698.141797,0.000000
585.405876,8808.450710,7846.182985,459.657299
585.406197,8216.285956,7846.182985,1378.971896
585.406517,7920.203579,7105.977043,1302.362347
585.406838,7994.224174,6069.688724,1532.190996
585.407158,7698.141797,5551.544565,1302.362347
585.407479,7772.162391,4959.379811,842.705048
585.407799,8142.265362,4515.256246,842.705048
585.408120,8882.471304,3997.112087,612.876398
585.408440,9178.553681,4589.276840,229.828649
585.408761,9622.677246,6069.688724,-459.657299
585.409081,9622.677246,6883.915261,-229.828649
585.409402,9548.656652,7254.018232,-229.828649
585.409722,8734.430116,7031.956449,0.000000
585.410043,7994.224174,6217.729913,-153.219100
585.410363,7105.977043,6365.771101,0.000000
585.410684,6365.771101,6439.791695,-459.657299
585.411004,6069.688724,6291.750507,-1302.362347
585.411325,6291.750507,5847.626942,-1149.143247
585.411645,5773.606348,6291.750507,-612.876398
585.411966,5329.482782,7476.080014,-229.828649
585.412286,5329.482782,9104.533087,766.095498
585.412607,5699.585753,9844.739029,1991.848295
585.412927,5921.647536,10066.800811,2757.943793
585.413248,5847.626942,9474.636058,2834.553343
585.413568,4959.379811,9030.512492,2604.724693
585.413889,4219.173869,8142.265362,2834.553343
585.414210,3849.070898,8660.409521,3600.648841
585.414530,4589.276840,8956.491898,3830.477490
585.414851,5773.606348,9622.677246,3830.477490
585.415171,5847.626942,9770.718434,4060.306139
585.415492,5329.482782,9548.656652,4290.134789
585.415812,5625.565159,8586.388927,4749.792088
585.416133,5995.668130,8142.265362,4903.011187
585.416453,6587.832884,8364.327145,5132.839837
585.416774,7402.059420,8734.430116,4979.620737
585.417094,7624.121203,9696.697840,5209.449386
585.417415,7105.977043,9770.718434,5286.058936
585.417735,7402.059420,9326.594869,6128.763984
585.418056,7031.956449,8586.388927,6741.640382
585.418376,6957.935855,7476.080014,6511.811733
585.418697,6735.874072,6587.832884,6588.421283
585.419017,5995.668130,5773.606348,6281.983084
585.419338,6291.750507,5625.565159,6128.763984
585.419658,6291.750507,5625.565159,6511.811733
585.419979,6365.771101,6439.791695,6665.030833
585.420299,6735.874072,8660.409521,6358.592633
585.420620,6143.709319,9326.594869,6665.030833
585.420940,6069.688724,8512.368333,7124.688131
585.421261,5181.441594,7772.162391,7890.783629
585.421581,4663.297435,7105.977043,8427.050478
585.421902,3627.009116,6587.832884,8120.612279
585.422222,2960.823768,6365.771101,7890.783629
585.422543,2220.617826,5995.668130,7201.297681
585.422863,1776.494261,5921.647536,7354.516781
585.423184,2294.638420,5699.585753,7890.783629
585.423505,2516.700203,6439.791695,7660.954980
585.423825,2664.741391,6883.915261,7967.393179
585.424146,2738.761985,7550.100608,7584.345430
585.424466,2664.741391,7624.121203,7967.393179
585.424787,3627.009116,7846.182985,7890.783629
585.425107,3775.050304,7476.080014,7431.126331
585.425428,3701.029710,7105.977043,6588.421283
585.425748,3552.988522,5995.668130,5975.544884
585.426069,3552.988522,4959.379811,5439.278036
585.426389,3849.070898,4071.132681,4903.011187
585.426710,3552.988522,4071.132681,4673.182538
585.427030,3775.050304,4071.132681,3907.087040
585.427351,4737.318029,5329.482782,3447.429741
585.427671,6143.709319,7031.956449,2834.553343
585.427992,6365.771101,8364.327145,2911.162892
585.428312,7105.977043,9770.718434,2834.553343
585.428633,7476.080014,10881.027347,2757.943793
585.428953,7328.038826,10510.924376,3370.820191
585.429274,6365.771101,9178.553681,4673.182538
585.429594,6365.771101,8586.388927,6281.983084
585.429915,4737.318029,8808.450710,6358.592633
585.430235,3849.070898,8808.450710,6205.373534
585.430556,3330.926739,7846.182985,5439.278036
585.430876,2220.617826,5255.462188,3830.477490
585.431197,1406.391290,2220.617826,2451.505594
585.431517,2442.679609,370.102971,1685.410096
585.431838,4737.318029,3330.926739,1149.143247
585.432158,6365.771101,8882.471304,-383.047749
585.432479,7772.162391,14730.098246,-2681.334243
585.432800,10214.842000,17690.922014,-3370.820191
585.433120,10510.924376,18209.066173,-842.705048
585.433441,10214.842000,17320.819043,3677.258390
585.433761,8734.430116,13767.830521,4903.011187
585.434082,6439.791695,9622.677246,4290.134789
585.434402,6143.709319,6957.935855,4903.011187
585.434723,3108.864956,5403.503377,5439.278036
585.435043,1702.473667,5625.565159,4136.915689
585.435364,1480.411884,5403.503377,3294.210641
585.435684,4071.132681,5699.585753,2374.896044
585.436005,4663.297435,6069.688724,2221.676944
585.436325,7105.977043,8734.430116,3217.601092
585.436646,8586.388927,11325.150913,2681.334243
585.436966,7994.224174,14878.139434,1838.629195
585.437287,7402.059420,16506.592507,1378.971896
585.437607,9326.594869,16654.633695,1455.581446
585.437928,9548.656652,14952.160028,1991.848295
585.438249,6661.853478,10510.924376,3907.087040
585.438569,4367.215058,5033.400406,5056.230287
585.438890,4959.379811,3404.947333,7584.345430
585.439210,1406.391290,4589.276840,6818.249932
585.439531,2516.700203,6957.935855,4673.182538
585.439851,4885.359217,9474.636058,3217.601092
585.440172,6291.750507,9178.553681,5515.887586
585.440492,5403.503377,7920.203579,8503.660028
585.440813,6809.894666,7402.059420,10342.289223
585.441133,6365.771101,9696.697840,9499.584175
585.441454,2442.679609,10510.924376,7277.907231
585.441774,1998.556043,8586.388927,4749.792088
585.442095,5107.421000,6809.894666,3600.648841
585.442415,5477.523971,4293.194464,5515.887586
585.442736,5699.585753,6513.812290,9422.974625
585.443056,3923.091493,9030.512492,8886.707777
585.443377,1332.370696,10362.883188,4673.182538
585.443698,1850.514855,8142.265362,4213.525239
585.444018,4811.338623,4293.194464,7201.297681
585.444339,4293.194464,1110.308913,8580.269578
585.444659,5921.647536,2442.679609,8350.440928
585.444980,6291.750507,7624.121203,7431.126331
585.445300,4515.256246,10362.883188,6205.373534
585.445621,3404.947333,8290.306550,5975.544884
585.445941,4663.297435,5329.482782,6358.592633
585.446262,2960.823768,3627.009116,8120.612279
585.446582,222.061783,2590.720797,10035.851024
585.446903,4145.153275,5625.565159,11031.775171
585.447223,3182.885551,8512.368333,9422.974625
585.447544,1628.453072,10955.047942,6665.030833
585.447864,4219.173869,10732.986159,4903.011187
585.448185,5921.647536,9326.594869,3753.867940
585.448505,1554.432478,4367.215058,5132.839837
585.448826,3404.947333,1332.370696,7201.297681
585.449146,7328.038826,2368.659014,7890.783629
585.449467,5181.441594,5107.421000,8273.831378
585.449788,2442.679609,6513.812290,5975.544884
585.450108,5921.647536,8068.244768,2987.772442
585.450429,6883.915261,10140.821405,3753.867940
585.450749,4589.276840,9844.739029,7124.688131
585.451070,7550.100608,9548.656652,7048.078582
585.451390,8808.450710,9844.739029,4443.353888
585.451711,5625.565159,9252.574275,3064.381992
585.452031,4219.173869,6809.894666,2221.676944
585.452352,6069.688724,5477.523971,2298.286494
585.452672,5033.400406,7328.038826,5822.325785
585.452993,3627.009116,9548.656652,7048.078582
585.453313,4885.359217,10436.903782,4979.620737
585.453634,5699.585753,10362.883188,3524.039291
585.453954,4885.359217,10066.800811,3064.381992
585.454275,5255.462188,10658.965565,3524.039291
585.454595,5329.482782,10584.944971,3907.087040
585.454916,3701.029710,10584.944971,4213.525239
585.455237,5107.421000,11843.295072,5056.230287
585.455557,6513.812290,11695.253884,5515.887586
585.455878,5921.647536,10881.027347,4519.963438
585.456198,5255.462188,9104.533087,3677.258390
585.456519,5699.585753,7698.141797,4903.011187
585.456839,6143.709319,6661.853478,5132.839837
585.457160,6587.832884,5847.626942,4826.401637
585.457480,6735.874072,6291.750507,2834.553343
585.457801,6661.853478,7772.162391,919.314598
585.458121,7846.182985,10436.903782,1455.581446
585.458442,9104.533087,10732.986159,3140.991542
585.458762,9252.574275,9992.780217,3294.210641
585.459083,8734.430116,9178.553681,3447.429741
585.459403,6365.771101,9326.594869,1991.848295
585.459724,4663.297435,9178.553681,2145.067394
585.460044,4589.276840,8512.368333,3294.210641
585.460365,4663.297435,7254.018232,3907.087040
585.460686,4737.318029,6143.709319,4290.134789
585.461006,4145.153275,7624.121203,4749.792088
585.461327,1332.370696,9178.553681,4903.011187
585.461647,148.041188,7846.182985,5439.278036
585.461968,2368.659014,6513.812290,5898.935335
585.462288,4811.338623,8068.244768,5439.278036
585.462609,3997.112087,9918.759623,4826.401637
585.462929,2960.823768,11917.315666,3830.477490
585.463250,3627.009116,12805.562797,3983.696590
585.463570,3775.050304,11399.171507,6358.592633
585.463891,4219.173869,7328.038826,7354.516781
585.464211,4515.256246,5477.523971,6665.030833
585.464532,3923.091493,7179.997637,6358.592633
585.464852,1258.350101,7698.141797,5975.544884
585.465173,2368.659014,6069.688724,4443.353888
585.465493,6587.832884,4145.153275,4519.963438
585.465814,7105.977043,4367.215058,6894.859482
585.466135,7328.038826,6809.894666,7124.688131
585.466455,6365.771101,8364.327145,5669.106685
585.466776,5033.400406,8512.368333,3753.867940
585.467096,7476.080014,7254.018232,5362.668486
585.467417,8734.430116,5921.647536,6741.640382
585.467737,7105.977043,6069.688724,5362.668486
585.468058,6143.709319,9400.615463,4519.963438
585.468378,5033.400406,10436.903782,3830.477490
585.468699,4515.256246,7550.100608,3524.039291
585.469019,4367.215058,6439.791695,5439.278036
585.469340,3404.947333,6661.853478,6741.640382
585.469660,1850.514855,5625.565159,7048.078582
585.469981,2146.597232,5477.523971,6128.763984
585.470301,2368.659014,6069.688724,4596.572988
585.470622,1998.556043,7105.977043,4903.011187
585.470942,5403.503377,9770.718434,5286.058936
585.471263,5625.565159,12583.501014,5286.058936
585.471583,4441.235652,11695.253884,5745.716235
585.471904,4145.153275,9770.718434,6128.763984
585.472225,5107.421000,8660.409521,6588.421283
585.472545,1628.453072,7402.059420,7660.954980
585.472866,2664.741391,8438.347739,7277.907231
585.473186,4145.153275,9252.574275,4979.620737
585.473507,3775.050304,8660.409521,3294.210641
585.473827,3627.009116,6809.894666,4903.011187
585.474148,5477.523971,6217.729913,5362.668486
585.474468,4663.297435,6661.853478,5056.230287
585.474789,4515.256246,7920.203579,5286.058936
585.475109,7254.018232,8512.368333,3830.477490
585.475430,9770.718434,9178.553681,3140.991542
585.475750,6957.935855,9474.636058,4519.963438
585.476071,7772.162391,9770.718434,6205.373534
585.476391,8364.327145,8660.409521,4979.620737
585.476712,7105.977043,6735.874072,4443.353888
585.477032,5699.585753,4663.297435,2681.334243
585.477353,6883.915261,5403.503377,1915.238745
585.477674,2886.803174,4737.318029,1762.019645
585.477994,4959.379811,6883.915261,2528.115143
585.478315,7402.059420,11325.150913,2757.943793
585.478635,6513.812290,13619.789333,2681.334243
585.478956,3108.864956,11843.295072,2987.772442
585.479276,4811.338623,8956.491898,4826.401637
585.479597,4071.132681,8068.244768,6971.469032
585.479917,1554.432478,6439.791695,7354.516781
585.480238,2590.720797,7105.977043,2834.553343
585.480558,3997.112087,9770.718434,0.000000
585.480879,2442.679609,11177.109724,2834.553343
585.481199,4293.194464,9104.533087,4903.011187
585.481520,6661.853478,6883.915261,5745.716235
585.481840,4885.359217,5847.626942,5669.106685
585.482161,3701.029710,4811.338623,4290.134789
585.482481,5847.626942,5847.626942,1915.238745
585.482802,6587.832884,6957.935855,2221.676944
585.483123,8956.491898,9104.533087,3753.867940
585.483443,10362.883188,9548.656652,2681.334243
585.483764,8734.430116,9474.636058,766.095498
585.484084,6217.729913,9918.759623,2068.457845
585.484405,5477.523971,7624.121203,3600.648841
585.484725,5847.626942,5699.585753,3983.696590
585.485046,4663.297435,5847.626942,4290.134789
585.485366,4663.297435,8586.388927,2681.334243
585.485687,3478.967927,10584.944971,1302.362347
585.486007,3034.844362,9992.780217,2298.286494
585.486328,3478.967927,9474.636058,3983.696590
585.486648,3775.050304,9770.718434,5132.839837
585.486969,3849.070898,10288.862594,5286.058936
585.487289,2590.720797,11399.171507,5056.230287
585.487610,2516.700203,10436.903782,5745.716235
585.487930,2590.720797,9326.594869,6281.983084
585.488251,2960.823768,9252.574275,5286.058936
585.488571,3404.947333,9178.553681,4596.572988
585.488892,4293.194464,8956.491898,4903.011187
585.489213,5329.482782,7550.100608,5056.230287
585.489533,6217.729913,6513.812290,6128.763984
585.489854,5773.606348,7031.956449,6665.030833
585.490174,6587.832884,7624.121203,6665.030833
585.490495,7179.997637,9252.574275,5362.668486
585.490815,7254.018232,8660.409521,4979.620737
585.491136,7698.141797,7254.018232,4826.401637
585.491456,7105.977043,5403.503377,4519.963438
585.491777,4959.379811,4959.379811,4443.353888
585.492097,5625.565159,7328.038826,4903.011187
585.492418,5551.544565,8956.491898,3830.477490
585.492738,4811.338623,8512.368333,1915.238745
585.493059,3775.050304,6661.853478,1455.581446
585.493379,3404.947333,4737.318029,3830.477490
585.493700,3552.988522,4293.194464,6358.592633
585.494020,3552.988522,5403.503377,5898.935335
585.494341,3478.967927,8290.306550,2298.286494
585.494662,3404.947333,9104.533087,306.438199
585.494982,3256.906145,8438.347739,2451.505594
585.495303,5403.503377,8142.265362,5515.887586
585.495623,7031.956449,7920.203579,6052.154434
585.495944,4737.318029,6957.935855,3370.820191
585.496264,2664.741391,4737.318029,2068.457845
585.496585,2516.700203,3849.070898,3217.601092
585.496905,4071.132681,5847.626942,4903.011187
585.497226,4959.379811,6809.894666,5056.230287
585.497546,6587.832884,8438.347739,3217.601092
585.497867,6957.935855,11103.089130,919.314598
585.498187,5625.565159,9622.677246,689.485948
585.498508,2738.761985,4663.297435,1225.752797
585.498828,3849.070898,1776.494261,3370.820191
585.499149,5921.647536,4367.215058,3447.429741
585.499469,4737.318029,7624.121203,-1225.752797
585.499790,5255.462188,11547.212695,-5056.230287
585.500111,6957.935855,11991.336260,-2374.896044
585.500431,7402.059420,10066.800811,3140.991542
585.500752,7994.224174,8882.471304,4443.353888
585.501072,6217.729913,9548.656652,459.657299
585.501393,2146.597232,9178.553681,-2528.115143
585.501713,1628.453072,7920.203579,-766.095498
585.502034,5847.626942,7550.100608,2374.896044
585.502354,7031.956449,9104.533087,2528.115143
585.502675,4737.318029,12213.398043,306.438199
585.502995,4293.194464,14063.912898,-1225.752797
585.503316,1850.514855,11325.150913,-1991.848295
585.503636,3627.009116,7846.182985,1225.752797
585.503957,4811.338623,7254.018232,3447.429741
585.504277,4367.215058,8142.265362,2374.896044
585.504598,4071.132681,10140.821405,1685.410096
585.504918,4589.276840,10955.047942,0.000000
585.505239,3108.864956,8512.368333,-1915.238745
585.505560,6365.771101,6883.915261,-689.485948
585.505880,7846.182985,8882.471304,995.924147
585.506201,5181.441594,9548.656652,-229.828649
585.506521,5255.462188,9696.697840,-1455.581446
585.506842,10140.821405,11325.150913,-2145.067394
585.507162,7846.182985,9770.718434,-306.438199
585.507483,4737.318029,6809.894666,2451.505594
585.507803,6587.832884,6291.750507,-689.485948
585.508124,5255.462188,7328.038826,-4443.353888
585.508444,4441.235652,5995.668130,-3447.429741
585.508765,7698.141797,4737.318029,-1915.238745
585.509085,9474.636058,7772.162391,-689.485948
585.509406,5255.462188,9252.574275,1378.971896
585.509726,6143.709319,9622.677246,995.924147
585.510047,7476.080014,9474.636058,-1149.143247
585.510367,4663.297435,8660.409521,919.314598
585.510688,4071.132681,7624.121203,3753.867940
585.511008,7476.080014,7105.977043,2528.115143
585.511329,5551.544565,6809.894666,383.047749
585.511650,814.226536,5403.503377,-1838.629195
585.511970,3034.844362,6069.688724,-1072.533697
585.512291,1480.411884,4737.318029,1455.581446
585.512611,370.102971,3404.947333,2451.505594
585.512932,3256.906145,4811.338623,0.000000
585.513252,4589.276840,7698.141797,-3600.648841
585.513573,3182.885551,9400.615463,-3064.381992
585.513893,6587.832884,11399.171507,-383.047749
585.514214,6587.832884,13471.748144,383.047749
585.514534,4219.173869,12287.418637,995.924147
585.514855,6143.709319,10881.027347,612.876398
585.515175,5329.482782,7105.977043,1149.143247
585.515496,3552.988522,6439.791695,2604.724693
585.515816,4145.153275,7476.080014,1532.190996
585.516137,3108.864956,8364.327145,-229.828649
585.516457,592.164754,7254.018232,1378.971896
585.516778,3849.070898,7402.059420,3064.381992
585.517099,4145.153275,5181.441594,306.438199
585.517419,2220.617826,1776.494261,-1455.581446
585.517740,4959.379811,5033.400406,-459.657299
585.518060,7994.224174,12139.377449,153.219100
585.518381,7698.141797,15248.242405,383.047749
585.518701,7920.203579,13101.645173,-1072.533697
585.519022,8660.409521,10658.965565,-2604.724693
585.519342,6587.832884,9326.594869,1225.752797
585.519663,5921.647536,5773.606348,4673.182538
585.519983,7328.038826,5477.523971,2757.943793
585.520304,6069.688724,7179.997637,76.609550
585.520624,4441.235652,7698.141797,766.095498
585.520945,4145.153275,7031.956449,919.314598
585.521265,5181.441594,5699.585753,995.924147
585.521586,1702.473667,2442.679609,1302.362347
585.521906,1924.535449,-814.226536,-2374.896044
585.522227,6809.894666,2664.741391,-3447.429741
585.522548,5995.668130,8586.388927,-306.438199
585.522868,5551.544565,13323.706956,-1532.190996
585.523189,9622.677246,15100.201217,-5439.278036
585.523509,6143.709319,13397.727550,-6665.030833
585.523830,2368.659014,8956.491898,-3294.210641
585.524150,8216.285956,7994.224174,2451.505594
585.524471,9252.574275,9252.574275,2911.162892
585.524791,-370.102971,7772.162391,76.609550
585.525112,1184.329507,6069.688724,-2451.505594
585.525432,2590.720797,4441.235652,-2374.896044
585.525753,1998.556043,3997.112087,919.314598
585.526073,3552.988522,5033.400406,2374.896044
585.526394,9178.553681,8882.471304,76.609550
585.526714,5551.544565,7698.141797,-2374.896044
585.527035,2886.803174,6587.832884,-689.485948
585.527355,7994.224174,9326.594869,76.609550
585.527676,7994.224174,11399.171507,-1072.533697
585.527996,6513.812290,13027.624579,-919.314598
585.528317,9326.594869,14508.036463,-2834.553343
585.528638,8512.368333,10881.027347,-2528.115143
585.528958,6513.812290,7920.203579,383.047749
585.529279,4959.379811,7476.080014,1685.410096
585.529599,2960.823768,8512.368333,229.828649
585.529920,2442.679609,10140.821405,842.705048
585.530240,4737.318029,10584.944971,153.219100
585.530561,2590.720797,7624.121203,-76.609550
585.530881,1110.308913,3330.926739,2987.772442
585.531202,3627.009116,4367.215058,3753.867940
585.531522,3923.091493,7550.100608,919.314598
585.531843,2368.659014,10584.944971,-3370.820191
585.532163,6809.894666,14063.912898,-5822.325785
585.532484,4811.338623,11547.212695,-2451.505594
585.532804,4737.318029,10140.821405,4060.306139
585.533125,8142.265362,10362.883188,5745.716235
585.533445,6439.791695,10140.821405,-1072.533697
585.533766,1998.556043,7550.100608,-5745.716235
585.534087,4515.256246,6439.791695,-3677.258390
585.534407,4737.318029,3775.050304,1378.971896
585.534728,3404.947333,1554.432478,3753.867940
585.535048,7550.100608,5551.544565,3064.381992
585.535369,8068.244768,11325.150913,-1455.581446
585.535689,1258.350101,8438.347739,-1685.410096
585.536010,814.226536,2072.576638,2374.896044
585.536330,8216.285956,1332.370696,3677.258390
585.536651,6513.812290,4293.194464,3217.601092
585.536971,2886.803174,7550.100608,-306.438199
585.537292,5773.606348,11177.109724,-5822.325785
585.537612,7179.997637,10140.821405,-6205.373534
585.537933,6661.853478,5847.626942,229.828649
585.538253,8660.409521,5995.668130,1149.143247
585.538574,7402.059420,9104.533087,-995.924147
585.538894,3775.050304,12287.418637,-995.924147
585.539215,3997.112087,8734.430116,-1225.752797
585.539535,7105.977043,4811.338623,-1225.752797
585.539856,7550.100608,4737.318029,2757.943793
585.540176,4737.318029,7105.977043,4673.182538
585.540497,3108.864956,10140.821405,-459.657299
585.540818,2664.741391,10362.883188,-4060.306139
585.541138,2886.803174,6735.874072,0.000000
585.541459,3701.029710,4219.173869,4749.792088
585.541779,4071.132681,5477.523971,6741.640382
585.542100,1110.308913,8660.409521,1302.362347
585.542420,1332.370696,11325.150913,-4673.182538
585.542741,4071.132681,10881.027347,-6205.373534
585.543061,7254.018232,9992.780217,-1762.019645
585.543382,7476.080014,11621.233289,2757.943793
585.543702,6439.791695,13545.768739,1762.019645
585.544023,3330.926739,11399.171507,-3217.601092
585.544343,3404.947333,7920.203579,-3600.648841
585.544664,5033.400406,4145.153275,689.485948
585.544984,6735.874072,2812.782580,2834.553343
585.545305,6957.935855,6587.832884,229.828649
585.545625,5033.400406,10658.965565,-3983.696590
585.545946,4441.235652,11103.089130,-4519.963438
585.546266,6735.874072,8734.430116,459.657299
585.546587,7772.162391,5921.647536,4596.572988
585.546907,6809.894666,6439.791695,3217.601092
585.547228,4589.276840,9178.553681,-1762.019645
585.547548,2738.761985,10732.986159,-4979.620737
585.547869,3404.947333,8068.244768,-3524.039291
585.548190,7624.121203,6883.915261,0.000000
585.548510,8216.285956,8512.368333,229.828649
585.548831,4145.153275,11399.171507,-2221.676944
585.549151,2886.803174,13027.624579,-3447.429741
585.549472,3256.906145,10658.965565,-2145.067394
585.549792,3997.112087,6291.750507,1225.752797
585.550113,7179.997637,4885.359217,4136.915689
585.550433,6587.832884,7105.977043,3600.648841
585.550754,2442.679609,9622.677246,-229.828649
585.551074,666.185348,8660.409521,-4366.744339
585.551395,5625.565159,6513.812290,-3907.087040
585.551715,4885.359217,3478.967927,1915.238745
585.552036,7994.224174,5699.585753,6281.983084
585.552356,5255.462188,7624.121203,2221.676944
585.552677,1776.494261,7772.162391,-4060.306139
585.552997,4293.194464,8216.285956,-4749.792088
585.553318,9474.636058,8956.491898,-1915.238745
585.553638,6735.874072,8734.430116,-536.266849
585.553959,7031.956449,9622.677246,-1532.190996
585.554279,7254.018232,9844.739029,-3447.429741
585.554600,4219.173869,6291.750507,-2221.676944
585.554921,3627.009116,4367.215058,919.314598
585.555241,6661.853478,7105.977043,2298.286494
585.555562,4663.297435,10140.821405,995.924147
585.555882,1628.453072,8512.368333,-689.485948
585.556203,3256.906145,4663.297435,-2757.943793
585.556523,4811.338623,3923.091493,-1225.752797
585.556844,4959.379811,6883.915261,2451.505594
585.557164,4589.276840,9844.739029,1762.019645
585.557485,4811.338623,11843.295072,-2221.676944
585.557805,3478.967927,10584.944971,-2451.505594
585.558126,3256.906145,9104.533087,-1302.362347
585.558446,4737.318029,8364.327145,459.657299
585.558767,4145.153275,10066.800811,2757.943793
585.559087,3478.967927,12731.542202,0.000000
585.559408,6217.729913,13101.645173,-2145.067394
585.559728,4293.194464,9548.656652,-995.924147
585.560049,2738.761985,6069.688724,2528.115143
585.560369,4219.173869,5699.585753,6205.373534
585.560690,3404.947333,5921.647536,4979.620737
585.561010,740.205942,2960.823768,-459.657299
585.561331,4145.153275,2812.782580,-4826.401637
585.561652,9992.780217,6661.853478,-2298.286494
585.561972,6809.894666,10510.924376,1608.800546
585.562293,8068.244768,13175.665768,459.657299
585.562613,8660.409521,13397.727550,-2987.772442
585.562934,5773.606348,9252.574275,-2834.553343
585.563254,7105.977043,7031.956449,-536.266849
585.563575,9400.615463,9844.739029,766.095498
585.563895,3849.070898,8956.491898,76.609550
585.564216,2294.638420,6217.729913,-1455.581446
585.564536,6069.688724,5995.668130,-1915.238745
585.564857,2738.761985,5625.565159,0.000000
585.565177,148.041188,5921.647536,3753.867940
585.565498,5403.503377,6291.750507,2451.505594
585.565818,3182.885551,5255.462188,-689.485948
585.566139,2516.700203,4959.379811,0.000000
585.566459,7846.182985,9474.636058,766.095498
585.566780,5921.647536,11325.150913,306.438199
585.567100,3330.926739,10881.027347,2374.896044
585.567421,7846.182985,11917.315666,1455.581446
585.567741,8142.265362,11177.109724,-1455.581446
585.568062,3108.864956,6809.894666,459.657299
585.568382,5403.503377,6957.935855,1302.362347
585.568703,4663.297435,7994.224174,-459.657299
585.569024,592.164754,7550.100608,-919.314598
585.569344,2590.720797,4589.276840,-536.266849
585.569665,6143.709319,4663.297435,-995.924147
585.569985,4145.153275,4663.297435,229.828649
585.570306,962.267725,5847.626942,536.266849
585.570626,6069.688724,8882.471304,-995.924147
585.570947,7476.080014,11843.295072,-536.266849
585.571267,8290.306550,13619.789333,459.657299
585.571588,7402.059420,13027.624579,-1608.800546
585.571908,4441.235652,10584.944971,-2374.896044
585.572229,4811.338623,7698.141797,2528.115143
585.572549,9030.512492,8808.450710,4443.353888
585.572870,4071.132681,7994.224174,919.314598
585.573190,666.185348,6809.894666,-2834.553343
585.573511,3404.947333,6439.791695,-1685.410096
585.573831,3849.070898,4293.194464,2451.505594
585.574152,1998.556043,2368.659014,3294.210641
585.574472,6069.688724,3923.091493,-459.657299
585.574793,6587.832884,6587.832884,-4136.915689
585.575113,4145.153275,7920.203579,-2528.115143
585.575434,7179.997637,10140.821405,-842.705048
585.575755,10066.800811,11769.274478,-1378.971896
585.576075,8216.285956,13027.624579,-1149.143247
585.576396,6439.791695,11325.150913,-612.876398
585.576716,5255.462188,7772.162391,-1225.752797
585.577037,5181.441594,6291.750507,153.219100
585.577357,3923.091493,7328.038826,306.438199
585.577678,2738.761985,7402.059420,-2374.896044
585.577998,2590.720797,8808.450710,-2987.772442
585.578319,3478.967927,9992.780217,-536.266849
585.578639,3478.967927,7328.038826,1225.752797
585.578960,2368.659014,2368.659014,2604.724693
585.579280,2590.720797,2886.803174,2681.334243
585.579601,2220.617826,7402.059420,-153.219100
585.579921,2072.576638,10362.883188,-3447.429741
585.580242,5181.441594,12213.398043,-5362.668486
585.580562,9918.759623,13101.645173,-1762.019645
585.580883,4811.338623,10362.883188,2068.457845
585.581203,7402.059420,10362.883188,2221.676944
585.581524,7254.018232,11843.295072,-1149.143247
585.581844,4219.173869,12065.356855,-2374.896044
585.582165,3256.906145,7328.038826,-689.485948
585.582485,6957.935855,3775.050304,919.314598
585.582806,5255.462188,2368.659014,2528.115143
585.583127,3404.947333,4367.215058,2374.896044
585.583447,4737.318029,7550.100608,-1762.019645
585.583768,3552.988522,7624.121203,-3983.696590
585.584088,5773.606348,7254.018232,-842.705048
585.584409,9696.697840,8586.388927,2298.286494
585.584729,7698.141797,10362.883188,689.485948
585.585050,5773.606348,12731.542202,0.000000
585.585370,6809.894666,15174.221811,-919.314598
585.585691,6365.771101,11769.274478,-1072.533697
585.586011,6439.791695,7698.141797,1302.362347
585.586332,7920.203579,7994.224174,4519.963438
585.586652,4367.215058,9548.656652,3217.601092
585.586973,-296.082377,8216.285956,2604.724693
585.587293,1850.514855,5847.626942,-306.438199
585.587614,3256.906145,2738.761985,-229.828649
585.587934,2368.659014,444.123565,3294.210641
585.588255,4441.235652,2960.823768,4826.401637
585.588575,5255.462188,7624.121203,1455.581446
585.588896,2368.659014,9844.739029,-1991.848295
585.589216,4441.235652,10732.986159,-3677.258390
585.589537,8808.450710,11917.315666,-1302.362347
585.589858,6587.832884,9622.677246,2911.162892
585.590178,6809.894666,7179.997637,1225.752797
585.590499,5995.668130,7105.977043,-3983.696590
585.590819,4441.235652,9474.636058,-3064.381992
585.591140,2812.782580,8734.430116,2298.286494
585.591460,4885.359217,5921.647536,3294.210641
585.591781,5847.626942,4737.318029,1532.190996
585.592101,2590.720797,4663.297435,0.000000
585.592422,1628.453072,2516.700203,-1838.629195
585.592742,4737.318029,2146.597232,919.314598
585.593063,4367.215058,2220.617826,4136.915689
585.593383,5921.647536,4959.379811,1302.362347
585.593704,7624.121203,7476.080014,-3830.477490
585.594024,5625.565159,12065.356855,-4903.011187
585.594345,5107.421000,14508.036463,-2145.067394
585.594665,7920.203579,12879.583391,0.000000
585.594986,8660.409521,8216.285956,-229.828649
585.595306,7476.080014,7179.997637,306.438199
585.595627,3775.050304,10658.965565,919.314598
585.595947,1258.350101,12435.459826,1149.143247
585.596268,962.267725,9770.718434,-306.438199
585.596589,3552.988522,6291.750507,-995.924147
585.596909,2960.823768,3256.906145,1302.362347
585.597230,2812.782580,3923.091493,3830.477490
585.597550,1258.350101,6513.812290,1915.238745
585.597871,1036.288319,8882.471304,-1532.190996
585.598191,3775.050304,10584.944971,-3600.648841
585.598512,8290.306550,12953.603985,-2451.505594
585.598832,4811.338623,11991.336260,-612.876398
585.599153,6809.894666,12805.562797,76.609550
585.599473,9548.656652,13915.871710,-612.876398
585.599794,5847.626942,12657.521608,-2911.162892
585.600114,4589.276840,10436.903782,-2221.676944
585.600435,7846.182985,10732.986159,-1608.800546
585.600755,5255.462188,6661.853478,-919.314598
585.601076,3256.906145,3404.947333,-153.219100
585.601396,5773.606348,3923.091493,0.000000
585.601717,5403.503377,4959.379811,-383.047749
585.602037,4441.235652,3701.029710,1225.752797
585.602358,5847.626942,3256.906145,536.266849
585.602678,7402.059420,5995.668130,-1608.800546
585.602999,7105.977043,10732.986159,-1302.362347
585.603319,7846.182985,13027.624579,-2987.772442
585.603640,8068.244768,11695.253884,-4749.792088
585.603961,9474.636058,11917.315666,-2987.772442
585.604281,8586.388927,9918.759623,-612.876398
585.604602,4515.256246,6661.853478,-1149.143247
585.604922,3775.050304,8586.388927,919.314598
585.605243,2960.823768,9844.739029,2298.286494
585.605563,2368.659014,7846.182985,1302.362347
585.605884,2960.823768,5181.441594,1991.848295
585.606204,2590.720797,4737.318029,2681.334243
585.606525,0.000000,3256.906145,1608.800546
585.606845,740.205942,3923.091493,842.705048
585.607166,3404.947333,6365.771101,0.000000
585.607486,4811.338623,8364.327145,76.609550
585.607807,6587.832884,9696.697840,536.266849
585.608127,4663.297435,10214.842000,-2298.286494
585.608448,5329.482782,11621.233289,-3140.991542
585.608768,5847.626942,10510.924376,-76.609550
585.609089,9474.636058,10288.862594,0.000000
585.609409,6883.915261,10732.986159,-1608.800546
585.609730,3552.988522,9400.615463,-1762.019645
585.610050,3182.885551,4737.318029,-306.438199
585.610371,5551.544565,2590.720797,689.485948
585.610692,3552.988522,2664.741391,1685.410096
585.611012,3182.885551,3997.112087,1762.019645
585.611333,4145.153275,3108.864956,1072.533697
585.611653,5329.482782,5329.482782,2451.505594
585.611974,5847.626942,9178.553681,3753.867940
585.612294,5995.668130,11473.192101,-612.876398
585.612615,4885.359217,10658.965565,-5286.058936
585.612935,5107.421000,9548.656652,-3524.039291
585.613256,7328.038826,8586.388927,229.828649
585.613576,7772.162391,9474.636058,1225.752797
585.613897,6069.688724,12139.377449,536.266849
585.614217,2886.803174,13619.789333,-1072.533697
585.614538,3849.070898,12805.562797,0.000000
585.614858,3923.091493,7179.997637,2298.286494
585.615179,2442.679609,2146.597232,3447.429741
585.615499,2294.638420,1702.473667,3447.429741
585.615820,3849.070898,5773.606348,2298.286494
585.616140,3404.947333,8808.450710,1149.143247
585.616461,4959.379811,10881.027347,459.657299
585.616781,6735.874072,10362.883188,1915.238745
585.617102,6069.688724,7254.018232,2528.115143
585.617422,3923.091493,4959.379811,2068.457845
585.617743,7105.977043,7624.121203,689.485948
585.618064,7105.977043,10362.883188,-2374.896044
585.618384,6735.874072,11251.130318,-4826.401637
585.618705,5995.668130,8512.368333,-5056.230287
585.619025,4589.276840,6735.874072,-3370.820191
585.619346,6513.812290,6587.832884,-383.047749
585.619666,7772.162391,7031.956449,0.000000
585.619987,6069.688724,7402.059420,-3294.210641
585.620307,3923.091493,7698.141797,-2987.772442
585.620628,3849.070898,5329.482782,1532.190996
585.620948,5995.668130,3330.926739,4213.525239
585.621269,5403.503377,6439.791695,2451.505594
585.621589,2590.720797,9548.656652,-2911.162892
585.621910,2368.659014,11103.089130,-6818.249932
585.622230,5477.523971,9474.636058,-3064.381992
585.622551,6291.750507,7105.977043,3753.867940
585.622871,5625.565159,5773.606348,4749.792088
585.623192,4515.256246,8216.285956,229.828649
585.623512,-1036.288319,9474.636058,-3217.601092
585.623833,1332.370696,9178.553681,-3140.991542
585.624153,7328.038826,7624.121203,-1838.629195
585.624474,7402.059420,6883.915261,-1685.410096
585.624795,6069.688724,8586.388927,-612.876398
585.625115,6069.688724,13027.624579,-536.266849
585.625436,4737.318029,13249.686362,-2298.286494
585.625756,4441.235652,10510.924376,-536.266849
585.626077,6587.832884,7624.121203,2374.896044
585.626397,5551.544565,4589.276840,2681.334243
585.626718,2072.576638,3701.029710,2145.067394
585.627038,2516.700203,5477.523971,-1378.971896
585.627359,6439.791695,7698.141797,-4290.134789
585.627679,4811.338623,5699.585753,-4290.134789
585.628000,4663.297435,7105.977043,-3524.039291
585.628320,8364.327145,12879.583391,-1455.581446
585.628641,6735.874072,15914.427753,-1302.362347
585.628961,6587.832884,12583.501014,-2528.115143
585.629282,7698.141797,10881.027347,-1915.238745
585.629602,4515.256246,8882.471304,1455.581446
585.629923,2812.782580,5921.647536,3140.991542
585.630243,7254.018232,7624.121203,1991.848295
585.630564,2368.659014,9252.574275,-459.657299
585.630884,-370.102971,9104.533087,-306.438199
585.631205,5551.544565,6735.874072,995.924147
585.631526,4367.215058,3108.864956,383.047749
585.631846,2294.638420,1628.453072,536.266849
585.632167,5329.482782,3701.029710,-536.266849
585.632487,3627.009116,7772.162391,-3064.381992
585.632808,4663.297435,11029.068536,-995.924147
585.633128,10214.842000,13323.706956,842.705048
585.633449,10881.027347,12657.521608,-1991.848295
585.633769,6809.894666,11695.253884,-2987.772442
585.634090,6587.832884,12287.418637,-766.095498
585.634410,6143.709319,7624.121203,-153.219100
585.634731,5329.482782,4441.235652,2451.505594
585.635051,5329.482782,6143.709319,3140.991542
585.635372,2960.823768,8438.347739,459.657299
585.635692,666.185348,6217.729913,229.828649
585.636013,2886.803174,3923.091493,1225.752797
585.636333,4737.318029,2664.741391,1532.190996
585.636654,4071.132681,3552.988522,1685.410096
585.636974,4663.297435,6069.688724,1378.971896
585.637295,4589.276840,9104.533087,-76.609550
585.637616,5773.606348,11103.089130,459.657299
585.637936,10066.800811,11917.315666,-306.438199
585.638257,7698.141797,9252.574275,-3294.210641
585.638577,4293.194464,8142.265362,-2451.505594
585.638898,5329.482782,8956.491898,2757.943793
585.639218,7772.162391,10658.965565,2834.553343
585.639539,3923.091493,9104.533087,383.047749
585.639859,3923.091493,7105.977043,-1685.410096
585.640180,3478.967927,5107.421000,-2451.505594
585.640500,888.247130,2960.823768,612.876398
585.640821,0.000000,888.247130,3140.991542
585.641141,7402.059420,2368.659014,2451.505594
585.641462,6069.688724,6513.812290,153.219100
585.641782,1776.494261,11029.068536,-612.876398
585.642103,3997.112087,12731.542202,-2604.724693
585.642423,5773.606348,12731.542202,-2374.896044
585.642744,5107.421000,9696.697840,1302.362347
585.643064,6957.935855,8660.409521,2987.772442
585.643385,7698.141797,11399.171507,-306.438199
585.643706,3478.967927,11621.233289,-1762.019645
585.644026,1850.514855,9548.656652,-1378.971896
585.644347,4515.256246,6587.832884,-995.924147
585.644667,3182.885551,4737.318029,1072.533697
585.644988,4515.256246,3775.050304,3064.381992
585.645308,7846.182985,6661.853478,1302.362347
585.645629,5107.421000,7920.203579,-612.876398
585.645949,2368.659014,6439.791695,-1455.581446
585.646270,5995.668130,5625.565159,-1149.143247
585.646590,6587.832884,7105.977043,612.876398
585.646911,6735.874072,10510.924376,1762.019645
585.647231,7920.203579,13841.851115,-995.924147
585.647552,6365.771101,13397.727550,-4903.011187
585.647872,3108.864956,10658.965565,-3064.381992
585.648193,6143.709319,9326.594869,0.000000
585.648513,4737.318029,7254.018232,919.314598
585.648834,1406.391290,6735.874072,-689.485948
585.649154,2294.638420,7624.121203,-1608.800546
585.649475,5107.421000,10362.883188,-1532.190996
585.649796,3701.029710,7031.956449,0.000000
585.650116,4589.276840,4811.338623,0.000000
585.650437,6661.853478,5403.503377,-1532.190996
585.650757,5329.482782,8586.388927,0.000000
585.651078,6069.688724,9844.739029,1455.581446
585.651398,7105.977043,9474.636058,-76.609550
585.651719,8512.368333,10807.006753,306.438199
585.652039,8290.306550,11769.274478,1225.752797
585.652360,7031.956449,10066.800811,-1532.190996
585.652680,5181.441594,8734.430116,-2221.676944
585.653001,5477.523971,9252.574275,153.219100
585.653321,4219.173869,8068.244768,919.314598
585.653642,2886.803174,6069.688724,0.000000
585.653962,2368.659014,5847.626942,459.657299
585.654283,3701.029710,4663.297435,612.876398
585.654603,3997.112087,3627.009116,1532.190996
585.654924,4367.215058,4145.153275,919.314598
585.655245,4441.235652,8068.244768,-919.314598
585.655565,5551.544565,11547.212695,-1838.629195
585.655886,6513.812290,10658.965565,-1225.752797
585.656206,7031.956449,8364.327145,-383.047749
585.656527,7846.182985,8882.471304,0.000000
585.656847,5403.503377,9252.574275,-229.828649
585.657168,1258.350101,7550.100608,-1838.629195
585.657488,3627.009116,9252.574275,-766.095498
585.657809,4811.338623,8734.430116,612.876398
585.658129,3627.009116,6587.832884,-612.876398
585.658450,2294.638420,6735.874072,-153.219100
585.658770,518.144159,7105.977043,2451.505594
585.659091,814.226536,6291.750507,3524.039291
585.659411,3404.947333,4071.132681,2911.162892
585.659732,4959.379811,5329.482782,1149.143247
585.660052,6957.935855,10436.903782,-919.314598
585.660373,7550.100608,15840.407159,-383.047749
585.660693,4441.235652,14211.954086,459.657299
585.661014,8438.347739,9548.656652,1915.238745
585.661335,11695.253884,5995.668130,3677.258390
585.661655,7031.956449,4737.318029,2757.943793
585.661976,2886.803174,5773.606348,536.266849
585.662296,4737.318029,8512.368333,0.000000
585.662617,6069.688724,8142.265362,0.000000
585.662937,6735.874072,5181.441594,76.609550
585.663258,8586.388927,6883.915261,383.047749
585.663578,6809.894666,7105.977043,0.000000
585.663899,1776.494261,5107.421000,0.000000
585.664219,5773.606348,6439.791695,-689.485948
585.664540,7031.956449,8882.471304,-1838.629195
585.664860,5995.668130,8512.368333,0.000000
585.665181,6513.812290,9030.512492,2451.505594
585.665501,6217.729913,9992.780217,919.314598
585.665822,3404.947333,10881.027347,-383.047749
585.666142,2886.803174,9918.759623,-1225.752797
585.666463,3997.112087,8808.450710,-1302.362347
585.666784,4071.132681,7772.162391,612.876398
585.667104,1184.329507,5847.626942,306.438199
585.667425,444.123565,3552.988522,-1915.238745
585.667745,-1258.350101,1776.494261,-995.924147
585.668066,2738.761985,5181.441594,1225.752797
585.668386,4663.297435,9918.759623,0.000000
585.668707,2516.700203,10362.883188,-3447.429741
585.669027,4589.276840,11547.212695,-3524.039291
585.669348,7105.977043,12953.603985,1225.752797
585.669668,4441.235652,10658.965565,4673.182538
585.669989,6439.791695,7772.162391,2221.676944
585.670309,7550.100608,8660.409521,-2604.724693
585.670630,6291.750507,8956.491898,-3600.648841
585.670950,6217.729913,10732.986159,-689.485948
585.671271,7846.182985,10288.862594,1915.238745
585.671591,5921.647536,5995.668130,1838.629195
585.671912,7254.018232,2738.761985,2451.505594
585.672232,8734.430116,6439.791695,1608.800546
585.672553,5255.462188,8290.306550,229.828649
585.672874,3256.906145,4959.379811,-995.924147
585.673194,9326.594869,5699.585753,-2298.286494
585.673515,10214.842000,8660.409521,-2451.505594
585.673835,5847.626942,9992.780217,-1302.362347
585.674156,7550.100608,11843.295072,-2757.943793
585.674476,7105.977043,13249.686362,-5592.497135
585.674797,2368.659014,11843.295072,-2834.553343
585.675117,5033.400406,9622.677246,2145.067394
585.675438,6439.791695,8586.388927,3140.991542
585.675758,1036.288319,9622.677246,3447.429741
585.676079,-1628.453072,8660.409521,2528.115143
585.676399,-370.102971,4737.318029,-3140.991542
585.676720,-592.164754,2516.700203,-2757.943793
585.677040,148.041188,2886.803174,2451.505594
585.677361,3552.988522,3701.029710,1378.971896
585.677681,4885.359217,7550.100608,-1378.971896
585.678002,962.267725,10362.883188,-2911.162892
585.678323,4515.256246,11991.336260,-3294.210641
585.678643,8216.285956,12509.480420,-1915.238745
585.678964,5921.647536,10584.944971,-1915.238745
585.679284,5255.462188,6735.874072,-3370.820191
585.679605,9178.553681,6883.915261,-3217.601092
585.679925,8290.306550,10066.800811,-1072.533697
585.680246,5107.421000,10881.027347,0.000000
585.680566,5477.523971,8142.265362,-2374.896044
585.680887,5107.421000,3552.988522,-2221.676944
585.681207,6957.935855,2664.741391,2911.162892
585.681528,8142.265362,5699.585753,6205.373534
585.681848,5403.503377,5625.565159,2451.505594
585.682169,4367.215058,3775.050304,-1378.971896
585.682489,9474.636058,7624.121203,-766.095498
585.682810,9696.697840,11029.068536,0.000000
585.683130,7254.018232,11473.192101,-383.047749
585.683451,9030.512492,12953.603985,-1532.190996
585.683771,6883.915261,12213.398043,383.047749
585.684092,4663.297435,8956.491898,4136.915689
585.684413,5255.462188,7772.162391,2298.286494
585.684733,2812.782580,10584.944971,-2145.067394
585.685054,592.164754,13101.645173,-1532.190996
585.685374,592.164754,12213.398043,689.485948
585.685695,2516.700203,7698.141797,689.485948
585.686015,2072.576638,3034.844362,2911.162892
585.686336,0.000000,1776.494261,4673.182538
585.686656,148.041188,6809.894666,4596.572988
585.686977,0.000000,10881.027347,3294.210641
585.687297,2072.576638,11473.192101,-229.828649
585.687618,6735.874072,10140.821405,-1991.848295
585.687938,7402.059420,9252.574275,919.314598
585.688259,4367.215058,7105.977043,919.314598
585.688579,7179.997637,6957.935855,-2451.505594
585.688900,5847.626942,6513.812290,-5132.839837
585.689220,3182.885551,6809.894666,-4366.744339
585.689541,7550.100608,7624.121203,-612.876398
585.689861,8068.244768,7105.977043,3524.039291
585.690182,5699.585753,5995.668130,3983.696590
585.690503,6883.915261,5995.668130,2068.457845
585.690823,6809.894666,5995.668130,-3294.210641
585.691144,3552.988522,2368.659014,-3294.210641
585.691464,6735.874072,2294.638420,1455.581446
585.691785,9770.718434,3997.112087,2604.724693
585.692105,8808.450710,6957.935855,229.828649
585.692426,7994.224174,10955.047942,-842.705048
585.692746,7476.080014,13471.748144,-1072.533697
585.693067,5921.647536,11547.212695,1685.410096
585.693387,7698.141797,7476.080014,4596.572988
585.693708,7031.956449,5255.462188,1685.410096
585.694028,2442.679609,4663.297435,-1915.238745
585.694349,666.185348,5921.647536,-2451.505594
585.694669,1258.350101,5921.647536,-3907.087040
585.694990,1628.453072,4515.256246,-4060.306139
585.695310,2886.803174,5181.441594,-2145.067394
585.695631,4737.318029,8586.388927,-2145.067394
585.695952,3552.988522,13027.624579,-1225.752797
585.696272,1776.494261,14952.160028,-689.485948
585.696593,1850.514855,12953.603985,-1532.190996
585.696913,3923.091493,9474.636058,229.828649
585.697234,2812.782580,6291.750507,1149.143247
585.697554,3849.070898,7994.224174,-1991.848295
585.697875,2220.617826,7328.038826,-5745.716235
585.698195,1332.370696,6587.832884,-7660.954980
585.698516,5181.441594,8068.244768,-3447.429741
585.698836,6883.915261,9178.553681,1762.019645
585.699157,5477.523971,9326.594869,1608.800546
585.699477,7624.121203,10066.800811,-1378.971896
585.699798,6809.894666,12657.521608,-2681.334243
585.700118,4589.276840,10510.924376,-1838.629195
585.700439,8364.327145,7698.141797,-536.266849
585.700759,8216.285956,6513.812290,-2221.676944
585.701080,5329.482782,8956.491898,-3064.381992
585.701400,7920.203579,14211.954086,-1302.362347
585.701721,7698.141797,15840.407159,-1608.800546
585.702042,3552.988522,13471.748144,0.000000
585.702362,5625.565159,12657.521608,4519.963438
585.702683,6661.853478,11843.295072,5822.325785
585.703003,1554.432478,7920.203579,4060.306139
585.703324,2368.659014,7328.038826,2681.334243
585.703644,5551.544565,8068.244768,-919.314598
585.703965,4219.173869,6957.935855,-1608.800546
585.704285,4219.173869,4737.318029,459.657299
585.704606,6809.894666,5477.523971,383.047749
585.704926,8734.430116,8216.285956,2145.067394
585.705247,7624.121203,10066.800811,3294.210641
585.705567,8142.265362,10140.821405,459.657299
585.705888,8216.285956,9178.553681,-1455.581446
585.706208,7328.038826,6957.935855,459.657299
585.706529,5329.482782,5181.441594,-536.266849
585.706849,6439.791695,5107.421000,-1838.629195
585.707170,4811.338623,5181.441594,-1608.800546
585.707491,4145.153275,3701.029710,-2451.505594
585.707811,2812.782580,1332.370696,-2757.943793
585.708132,2812.782580,2146.597232,459.657299
585.708452,3627.009116,3997.112087,3677.258390
585.708773,4885.359217,6883.915261,3600.648841
585.709093,2516.700203,5181.441594,1991.848295
585.709414,3478.967927,4441.235652,-1532.190996
585.709734,5329.482782,4219.173869,-2221.676944
585.710055,4367.215058,5329.482782,-766.095498
585.710375,3775.050304,7254.018232,0.000000
585.710696,7105.977043,9770.718434,-2298.286494
585.711016,3849.070898,9104.533087,-3447.429741
585.711337,2664.741391,7105.977043,-536.266849
585.711657,5403.503377,7105.977043,2911.162892
585.711978,1554.432478,6735.874072,3064.381992
585.712298,1998.556043,9400.615463,919.314598
585.712619,2812.782580,8956.491898,-766.095498
585.712939,2664.741391,8586.388927,76.609550
585.713260,3108.864956,5995.668130,3830.477490
585.713581,2368.659014,6291.750507,2757.943793
585.713901,1628.453072,6883.915261,-1762.019645
585.714222,5107.421000,10807.006753,-3064.381992
585.714542,6513.812290,12657.521608,-689.485948
585.714863,7846.182985,14211.954086,1455.581446
585.715183,8660.409521,14359.995275,3600.648841
585.715504,5699.585753,11695.253884,1915.238745
585.715824,3701.029710,8364.327145,-1532.190996
585.716145,4663.297435,7624.121203,-2987.772442
585.716465,7550.100608,10881.027347,-2987.772442
585.716786,6513.812290,8290.306550,-1991.848295
585.717106,6587.832884,5625.565159,-2911.162892
585.717427,7550.100608,8808.450710,-3140.991542
585.717747,6069.688724,11177.109724,-306.438199
585.718068,5255.462188,8586.388927,1225.752797
585.718388,8512.368333,6661.853478,1608.800546
585.718709,6957.935855,5107.421000,1532.190996
585.719029,5847.626942,5921.647536,-459.657299
585.719350,8808.450710,7772.162391,-2757.943793
585.719671,7328.038826,9326.594869,-4903.011187
585.719991,5033.400406,10140.821405,-3600.648841
585.720312,8734.430116,11473.192101,-2528.115143
585.720632,6365.771101,9400.615463,-2451.505594
585.720953,2072.576638,4959.379811,-842.705048
585.721273,5625.565159,6735.874072,1225.752797
585.721594,4145.153275,9992.780217,-919.314598
585.721914,1184.329507,9770.718434,-4979.620737
585.722235,2812.782580,7031.956449,-3753.867940
585.722555,6661.853478,5921.647536,-689.485948
585.722876,4811.338623,6809.894666,2834.553343
585.723196,2960.823768,8882.471304,2221.676944
585.723517,3330.926739,8734.430116,-4290.134789
585.723837,2516.700203,10436.903782,-3907.087040
585.724158,5329.482782,12583.501014,3447.429741
585.724478,6661.853478,10436.903782,4826.401637
585.724799,4589.276840,7476.080014,2528.115143
585.725120,4293.194464,7476.080014,612.876398
585.725440,2368.659014,9474.636058,-2145.067394
585.725761,1036.288319,7254.018232,-1532.190996
585.726081,3404.947333,4367.215058,1149.143247
585.726402,7328.038826,3701.029710,2681.334243
585.726722,6217.729913,8068.244768,1915.238745
585.727043,2220.617826,11029.068536,-459.657299
585.727363,3923.091493,9474.636058,-2451.505594
585.727684,7179.997637,8512.368333,-383.047749
585.728004,7624.121203,7550.100608,3064.381992
585.728325,7476.080014,7328.038826,612.876398
585.728645,6291.750507,8882.471304,-2451.505594
585.728966,5625.565159,9992.780217,766.095498
585.729286,5181.441594,9178.553681,4213.525239
585.729607,6735.874072,7105.977043,3064.381992
585.729927,4071.132681,6661.853478,1072.533697
585.730248,962.267725,7846.182985,153.219100
585.730568,2294.638420,7328.038826,1378.971896
585.730889,2738.761985,5699.585753,1302.362347
585.731210,2960.823768,3997.112087,1225.752797
585.731530,4071.132681,4515.256246,995.924147
585.731851,3478.967927,6143.709319,842.705048
585.732171,2072.576638,8290.306550,1072.533697
585.732492,3478.967927,9622.677246,0.000000
585.732812,6143.709319,10288.862594,-1149.143247
585.733133,7920.203579,10881.027347,383.047749
585.733453,6365.771101,9696.697840,2221.676944
585.733774,4441.235652,7031.956449,766.095498
585.734094,5551.544565,5329.482782,0.000000
585.734414,5181.441594,4515.256246,0.000000
585.734735,5107.421000,4737.318029,-229.828649
585.735055,4737.318029,4441.235652,-306.438199
585.735376,4367.215058,2294.638420,-1838.629195
585.735696,7920.203579,4145.153275,-1378.971896
585.736017,7476.080014,7105.977043,0.000000
585.736337,5847.626942,9178.553681,-1532.190996
585.736658,7402.059420,10140.821405,-3677.258390
585.736978,8660.409521,10732.986159,-2757.943793
585.737299,5921.647536,10732.986159,-2221.676944
585.737619,7624.121203,11399.171507,-1762.019645
585.737940,6809.894666,12287.418637,-1838.629195
585.738260,3256.906145,9992.780217,-2221.676944
585.738581,5625.565159,9844.739029,-459.657299
585.738901,6365.771101,9770.718434,1225.752797
585.739221,1332.370696,8808.450710,2298.286494
585.739542,0.000000,8142.265362,3524.039291
585.739862,3404.947333,9474.636058,1685.410096
585.740183,2738.761985,6735.874072,-153.219100
585.740503,2368.659014,3775.050304,995.924147
585.740824,5033.400406,5699.585753,-536.266849
585.741144,4737.318029,10288.862594,-2298.286494
585.741465,3330.926739,13027.624579,-2451.505594
585.741785,7402.059420,14211.954086,-3447.429741
585.742106,9918.759623,14137.933492,-2374.896044
585.742426,8142.265362,14359.995275,1455.581446
585.742747,6661.853478,11621.233289,842.705048
585.743067,5551.544565,7105.977043,-2068.457845
585.743388,5033.400406,5921.647536,-1302.362347
585.743708,5551.544565,8364.327145,153.219100
585.744028,4663.297435,6365.771101,1302.362347
585.744349,3108.864956,3775.050304,0.000000
585.744669,4589.276840,3775.050304,1225.752797
585.744990,3701.029710,5625.565159,1225.752797
585.745310,3478.967927,6735.874072,536.266849
585.745631,4737.318029,7402.059420,-766.095498
585.745951,6587.832884,8216.285956,-2298.286494
585.746272,6883.915261,9770.718434,-1608.800546
585.746592,6735.874072,10955.047942,-1072.533697
585.746913,6883.915261,11917.315666,-2145.067394
585.747233,7550.100608,12435.459826,-919.314598
585.747554,4293.194464,9030.512492,0.000000
585.747874,3627.009116,5033.400406,-995.924147
585.748195,4663.297435,2960.823768,1838.629195
585.748515,1628.453072,1850.514855,3677.258390
585.748835,0.000000,2220.617826,689.485948
585.749156,3108.864956,5033.400406,-3064.381992
585.749476,3256.906145,6143.709319,-1915.238745
585.749797,3701.029710,4959.379811,-459.657299
585.750117,7105.977043,6883.915261,153.219100
585.750438,5699.585753,8882.471304,-1072.533697
585.750758,2368.659014,9252.574275,-2987.772442
585.751079,4959.379811,9474.636058,-3217.601092
585.751399,6439.791695,9326.594869,-1378.971896
585.751720,4219.173869,7772.162391,0.000000
585.752040,4885.359217,7772.162391,-1072.533697
585.752361,4219.173869,8660.409521,-4366.744339
585.752681,518.144159,6439.791695,-6128.763984
585.753002,1850.514855,4441.235652,-4519.963438
585.753322,6143.709319,3478.967927,-1762.019645
585.753643,4441.235652,1776.494261,229.828649
585.753963,2812.782580,3627.009116,-1685.410096
585.754283,6217.729913,8734.430116,-3600.648841
585.754604,4145.153275,10436.903782,-3983.696590
585.754924,6069.688724,10288.862594,-4519.963438
585.755245,11991.336260,12435.459826,-4290.134789
585.755565,8808.450710,12287.418637,-4366.744339
585.755886,3997.112087,8956.491898,-4366.744339
585.756206,5551.544565,7994.224174,-4673.182538
585.756527,3552.988522,6365.771101,-4596.572988
585.756847,2368.659014,5773.606348,-3217.601092
585.757168,5329.482782,7624.121203,-4213.525239
585.757488,4737.318029,9992.780217,-6358.592633
585.757809,5255.462188,13767.830521,-3370.820191
585.758129,6069.688724,13471.748144,-2604.724693
585.758450,5551.544565,9474.636058,-6205.373534
585.758770,5107.421000,8438.347739,-4903.011187
585.759090,6513.812290,9844.739029,-3600.648841
585.759411,4811.338623,7179.997637,-6052.154434
585.759731,3923.091493,4959.379811,-5515.887586
585.760052,5921.647536,6883.915261,-3983.696590
585.760372,6883.915261,10510.924376,-4060.306139
585.760693,5847.626942,13027.624579,-4366.744339
585.761013,5551.544565,12509.480420,-7354.516781
585.761334,5847.626942,8734.430116,-9576.193725
585.761654,7105.977043,7179.997637,-6358.592633
585.761975,6439.791695,7031.956449,-3447.429741
585.762295,6217.729913,6883.915261,-3983.696590
585.762616,5995.668130,7476.080014,-5209.449386
585.762936,5477.523971,7624.121203,-7277.907231
585.763257,5699.585753,8290.306550,-7201.297681
585.763577,5921.647536,9104.533087,-4749.792088
585.763897,5255.462188,8290.306550,-3370.820191
585.764218,5033.400406,7994.224174,-2451.505594
585.764538,3775.050304,6439.791695,-4903.011187
585.764859,3182.885551,4811.338623,-7201.297681
585.765179,4071.132681,5699.585753,-7048.078582
585.765500,3849.070898,8438.347739,-6588.421283
585.765820,3627.009116,8216.285956,-6435.202183
585.766141,5107.421000,8216.285956,-7737.564530
585.766461,7105.977043,9548.656652,-7354.516781
585.766782,6513.812290,11473.192101,-3140.991542
585.767102,4737.318029,12213.398043,-2451.505594
585.767423,4737.318029,9918.759623,-4366.744339
585.767743,3478.967927,7105.977043,-4903.011187
585.768064,3775.050304,4737.318029,-2757.943793
585.768384,3775.050304,3478.967927,-1838.629195
585.768704,3404.947333,4441.235652,-2911.162892
585.769025,4589.276840,7772.162391,-5209.449386
585.769345,4663.297435,9844.739029,-5439.278036
585.769666,5995.668130,9030.512492,-4136.915689
585.769986,6143.709319,8216.285956,-842.705048
585.770307,6291.750507,8438.347739,-306.438199
585.770627,3627.009116,8586.388927,-3217.601092
585.770948,2812.782580,6217.729913,-7124.688131
585.771268,4145.153275,4663.297435,-9039.926876
585.771589,5551.544565,5403.503377,-6818.249932
585.771909,6217.729913,7031.956449,-4366.744339
585.772230,4071.132681,7476.080014,-5745.716235
585.772550,2368.659014,7994.224174,-7660.954980
585.772871,3775.050304,7105.977043,-6894.859482
585.773191,6291.750507,6513.812290,-4903.011187
585.773511,6661.853478,6143.709319,-3447.429741
585.773832,5551.544565,7105.977043,-3217.601092
585.774152,5033.400406,9992.780217,-6971.469032
585.774473,3256.906145,10658.965565,-7507.735880
585.774793,2738.761985,7179.997637,-6128.763984
585.775114,5255.462188,4663.297435,-5669.106685
585.775434,4367.215058,5181.441594,-5286.058936
585.775755,2072.576638,6735.874072,-5669.106685
585.776075,2812.782580,9178.553681,-6588.421283
585.776396,3849.070898,9696.697840,-5515.887586
585.776716,3552.988522,8882.471304,-3677.258390
585.777037,6439.791695,9030.512492,-4136.915689
585.777357,5403.503377,9918.759623,-6971.469032
585.777678,5255.462188,11547.212695,-7201.297681
585.777998,6513.812290,11917.315666,-7431.126331
585.778319,7920.203579,10510.924376,-7967.393179
585.778639,6883.915261,9252.574275,-4673.182538
585.778959,4959.379811,7476.080014,-459.657299
585.779280,6957.935855,8290.306550,-1302.362347
585.779600,4663.297435,8142.265362,-4060.306139
585.779921,3182.885551,6883.915261,-6128.763984
585.780241,6291.750507,7402.059420,-6971.469032
585.780562,9844.739029,8216.285956,-5286.058936
585.780882,6957.935855,7476.080014,-4443.353888
585.781203,7920.203579,9252.574275,-8044.002729
585.781523,8364.327145,12065.356855,-9269.755526
585.781844,7105.977043,13545.768739,-6971.469032
585.782164,7105.977043,11843.295072,-4213.525239
585.782485,7846.182985,9844.739029,-3753.867940
585.782805,5921.647536,7624.121203,-3140.991542
585.783126,2664.741391,5625.565159,-2374.896044
585.783446,1776.494261,4959.379811,-3524.039291
585.783766,814.226536,4589.276840,-6281.983084
585.784087,1036.288319,5255.462188,-7967.393179
585.784407,3108.864956,5773.606348,-8427.050478
585.784728,5181.441594,6587.832884,-6665.030833
585.785048,5403.503377,8512.368333,-3600.648841
