#time,accel_x,accel_y,accel_z
194.088620,4885.359217,7624.121203,0.000000
194.088941,4811.338623,7920.203579,-153.219100
194.089262,4737.318029,8290.306550,-383.047749
194.089583,5033.400406,8512.368333,0.000000
194.089904,4885.359217,7994.224174,-153.219100
194.090225,5107.421000,8068.244768,0.000000
194.090545,4811.338623,8068.244768,0.000000
194.090866,5255.462188,8142.265362,-383.047749
194.091187,5181.441594,8068.244768,-383.047749
194.091508,5033.400406,8142.265362,-306.438199
194.091829,4885.359217,7994.224174,0.000000
194.092150,4885.359217,7994.224174,0.000000
194.092471,5181.441594,7994.224174,0.000000
194.092792,4885.359217,8216.285956,0.000000
194.093113,4959.379811,8290.306550,0.000000
194.093433,4811.338623,8142.265362,0.000000
194.093754,4885.359217,7920.203579,-229.828649
194.094075,4959.379811,7994.224174,0.000000
194.094396,5107.421000,8586.388927,0.000000
194.094717,5033.400406,7994.224174,-383.047749
194.095038,4885.359217,7994.224174,0.000000
194.095359,5033.400406,8290.306550,-76.609550
194.095680,4811.338623,8216.285956,-229.828649
194.096001,5033.400406,8290.306550,-229.828649
194.096321,5033.400406,7994.224174,0.000000
194.096642,4885.359217,8068.244768,-306.438199
194.096963,4885.359217,7994.224174,0.000000
194.097284,5329.482782,7920.203579,-153.219100
194.097605,5255.462188,8142.265362,-612.876398
194.097926,5107.421000,7994.224174,-153.219100
194.098247,4959.379811,8068.244768,0.000000
194.098568,5255.462188,8142.265362,0.000000
194.098889,5181.441594,7920.203579,0.000000
194.099209,4959.379811,8512.368333,0.000000
194.099530,5033.400406,7994.224174,-229.828649
194.099851,5033.400406,8290.306550,0.000000
194.100172,5033.400406,8142.265362,0.000000
194.100493,4885.359217,7994.224174,0.000000
194.100814,5403.503377,8290.306550,459.657299
194.101135,4959.379811,7846.182985,-306.438199
194.101456,4959.379811,7846.182985,0.000000
194.101777,4663.297435,7624.121203,-229.828649
194.102097,4293.194464,7328.038826,-459.657299
194.102418,4219.173869,8512.368333,0.000000
194.102739,4441.235652,9252.574275,-306.438199
194.103060,4737.318029,9548.656652,-995.924147
194.103381,4663.297435,9770.718434,-1608.800546
194.103702,4515.256246,9326.594869,-1225.752797
194.104023,3478.967927,9104.533087,306.438199
194.104344,3256.906145,8660.409521,1149.143247
194.104665,3034.844362,9474.636058,919.314598
194.104985,2812.782580,9252.574275,536.266849
194.105306,2516.700203,8882.471304,-306.438199
194.105627,2738.761985,7994.224174,-459.657299
194.105948,3034.844362,8512.368333,-306.438199
194.106269,3182.885551,9326.594869,0.000000
194.106590,2738.761985,9326.594869,536.266849
194.106911,2368.659014,8882.471304,306.438199
194.107232,2294.638420,9252.574275,383.047749
194.107552,2294.638420,10066.800811,-536.266849
194.107873,1628.453072,11695.253884,-1302.362347
194.108194,1702.473667,11991.336260,-1532.190996
194.108515,1554.432478,11843.295072,-1455.581446
194.108836,666.185348,11029.068536,-1072.533697
194.109157,0.000000,10955.047942,-1302.362347
194.109478,-740.205942,11473.192101,-766.095498
194.109799,-1702.473667,12509.480420,0.000000
194.110120,-1850.514855,12583.501014,229.828649
194.110440,-1480.411884,11769.274478,459.657299
194.110761,-592.164754,11843.295072,1915.238745
194.111082,-1554.432478,12287.418637,1532.190996
194.111403,-2442.679609,12065.356855,1149.143247
194.111724,-2516.700203,11177.109724,-536.266849
194.112045,-1332.370696,10584.944971,-919.314598
194.112366,-1406.391290,9696.697840,229.828649
194.112687,-370.102971,10140.821405,1149.143247
194.113008,-148.041188,10955.047942,536.266849
194.113328,0.000000,11769.274478,-689.485948
194.113649,814.226536,11843.295072,-2528.115143
194.113970,1924.535449,11177.109724,-1685.410096
194.114291,2368.659014,10807.006753,0.000000
194.114612,2886.803174,10955.047942,153.219100
194.114933,2442.679609,10658.965565,-1072.533697
194.115254,1776.494261,10288.862594,-2145.067394
194.115575,1332.370696,9918.759623,-1685.410096
194.115896,1702.473667,9770.718434,-612.876398
194.116216,1628.453072,9992.780217,0.000000
194.116537,1480.411884,10510.924376,0.000000
194.116858,888.247130,11547.212695,-306.438199
194.117179,296.082377,11547.212695,76.609550
194.117500,-666.185348,11029.068536,536.266849
194.117821,-296.082377,10140.821405,995.924147
194.118142,-148.041188,9992.780217,1378.971896
194.118463,74.020594,9918.759623,995.924147
194.118784,-740.205942,10066.800811,842.705048
194.119104,-296.082377,10658.965565,689.485948
194.119425,1184.329507,11251.130318,995.924147
194.119746,1924.535449,10658.965565,459.657299
194.120067,1850.514855,10214.842000,153.219100
194.120388,1480.411884,10140.821405,-995.924147
194.120709,1776.494261,10066.800811,-919.314598
194.121030,1702.473667,9030.512492,-459.657299
194.121351,2220.617826,8068.244768,76.609550
194.121672,2590.720797,7772.162391,306.438199
194.121992,2590.720797,8586.388927,0.000000
194.122313,2516.700203,9770.718434,-766.095498
194.122634,3108.864956,10584.944971,-1225.752797
194.122955,3552.988522,10584.944971,-1455.581446
194.123276,3552.988522,9992.780217,-1838.629195
194.123597,3627.009116,9400.615463,-1225.752797
194.123918,2812.782580,9474.636058,-689.485948
194.124239,2220.617826,10066.800811,-383.047749
194.124560,1184.329507,11103.089130,-229.828649
194.124880,888.247130,11177.109724,-306.438199
194.125201,888.247130,11399.171507,-842.705048
194.125522,592.164754,11103.089130,-1455.581446
194.125843,-1036.288319,10658.965565,-1532.190996
194.126164,-1406.391290,9622.677246,-459.657299
194.126485,-1850.514855,9548.656652,306.438199
194.126806,-1332.370696,9844.739029,1378.971896
194.127127,-370.102971,11325.150913,1532.190996
194.127448,592.164754,13323.706956,1302.362347
194.127768,0.000000,14508.036463,536.266849
194.128089,518.144159,14137.933492,-612.876398
194.128410,1332.370696,12361.439231,-536.266849
194.128731,1702.473667,10955.047942,-229.828649
194.129052,962.267725,10436.903782,0.000000
194.129373,-592.164754,9696.697840,-842.705048
194.129694,-1702.473667,9992.780217,-1532.190996
194.130015,-2072.576638,9918.759623,-1608.800546
194.130336,-1702.473667,10288.862594,-995.924147
194.130656,0.000000,10881.027347,-229.828649
194.130977,962.267725,12731.542202,229.828649
194.131298,592.164754,14211.954086,-995.924147
194.131619,444.123565,14211.954086,-1608.800546
194.131940,1110.308913,13323.706956,-919.314598
194.132261,1554.432478,12213.398043,0.000000
194.132582,814.226536,10288.862594,536.266849
194.132903,1332.370696,8586.388927,-459.657299
194.133224,740.205942,8216.285956,76.609550
194.133544,-148.041188,9696.697840,689.485948
194.133865,-296.082377,10140.821405,1455.581446
194.134186,-296.082377,9548.656652,1225.752797
194.134507,0.000000,8808.450710,229.828649
194.134828,370.102971,9400.615463,229.828649
194.135149,962.267725,9992.780217,76.609550
194.135470,962.267725,11695.253884,-612.876398
194.135791,888.247130,13101.645173,-995.924147
194.136112,444.123565,13545.768739,-1302.362347
194.136432,1036.288319,13397.727550,-1378.971896
194.136753,740.205942,12805.562797,-766.095498
194.137074,0.000000,11769.274478,-689.485948
194.137395,444.123565,9548.656652,689.485948
194.137716,592.164754,9252.574275,1685.410096
194.138037,-1036.288319,9178.553681,2145.067394
194.138358,-1184.329507,9104.533087,1685.410096
194.138679,-962.267725,8438.347739,995.924147
194.139000,-888.247130,8290.306550,842.705048
194.139320,-74.020594,8586.388927,459.657299
194.139641,2738.761985,10510.924376,-306.438199
194.139962,3478.967927,11177.109724,-1532.190996
194.140283,3034.844362,11621.233289,-2145.067394
194.140604,2664.741391,11251.130318,-1838.629195
194.140925,1776.494261,9844.739029,-2451.505594
194.141246,740.205942,7254.018232,-1991.848295
194.141567,4367.215058,8216.285956,1149.143247
194.141887,4441.235652,11029.068536,2911.162892
194.142208,1258.350101,12953.603985,-995.924147
194.142529,1554.432478,12731.542202,-4136.915689
194.142850,1480.411884,11621.233289,-3600.648841
194.143171,-962.267725,8808.450710,-1838.629195
194.143492,-592.164754,6513.812290,76.609550
194.143813,592.164754,7698.141797,-229.828649
194.144134,0.000000,12657.521608,383.047749
194.144455,-3330.926739,15840.407159,1915.238745
194.144775,-2738.761985,15692.365970,536.266849
194.145096,-222.061783,13989.892304,229.828649
194.145417,-1332.370696,12879.583391,1685.410096
194.145738,-1110.308913,11991.336260,1149.143247
194.146059,-2294.638420,10658.965565,-76.609550
194.146380,-1628.453072,10955.047942,153.219100
194.146701,-1036.288319,10955.047942,1225.752797
194.147022,-1036.288319,9696.697840,229.828649
194.147343,518.144159,8438.347739,-459.657299
194.147663,1850.514855,9474.636058,612.876398
194.147984,2738.761985,11843.295072,1378.971896
194.148305,3997.112087,12361.439231,-306.438199
194.148626,4737.318029,11325.150913,-2451.505594
194.148947,4737.318029,10881.027347,-2528.115143
194.149268,3034.844362,10362.883188,-1915.238745
194.149589,814.226536,8142.265362,-2681.334243
194.149910,1406.391290,7105.977043,-2757.943793
194.150231,3552.988522,10140.821405,306.438199
194.150551,1998.556043,13397.727550,1838.629195
194.150872,592.164754,13323.706956,-919.314598
194.151193,74.020594,11621.233289,-3064.381992
194.151514,-962.267725,11029.068536,-1072.533697
194.151835,-2886.803174,10066.800811,1455.581446
194.152156,-2072.576638,8808.450710,1149.143247
194.152476,0.000000,10955.047942,-612.876398
194.152797,-1332.370696,13767.830521,76.609550
194.153118,-2368.659014,14952.160028,536.266849
194.153439,-2072.576638,13323.706956,0.000000
194.153760,-1850.514855,10955.047942,306.438199
194.154081,-370.102971,10510.924376,2911.162892
194.154401,592.164754,10658.965565,3294.210641
194.154722,-444.123565,10362.883188,842.705048
194.155043,0.000000,9918.759623,842.705048
194.155364,148.041188,9622.677246,766.095498
194.155685,1480.411884,7105.977043,842.705048
194.156006,3034.844362,6439.791695,229.828649
194.156326,4589.276840,8586.388927,-383.047749
194.156647,3775.050304,11547.212695,-1378.971896
194.156968,3849.070898,11917.315666,-1991.848295
194.157289,4959.379811,10584.944971,-1838.629195
194.157610,5329.482782,9548.656652,-1532.190996
194.157931,3552.988522,8438.347739,-1302.362347
194.158252,2220.617826,8660.409521,-1991.848295
194.158572,1258.350101,8660.409521,-2145.067394
194.158893,518.144159,10955.047942,-1225.752797
194.159214,962.267725,11399.171507,-1378.971896
194.159535,666.185348,10288.862594,-1838.629195
194.159856,518.144159,10807.006753,76.609550
194.160177,0.000000,11843.295072,2068.457845
194.160497,-2516.700203,11177.109724,2834.553343
194.160818,-3034.844362,10140.821405,1608.800546
194.161139,-1332.370696,11843.295072,1455.581446
194.161460,-2812.782580,11843.295072,1149.143247
194.161781,-2146.597232,10807.006753,-306.438199
194.162102,0.000000,10584.944971,76.609550
194.162422,-1554.432478,11843.295072,-306.438199
194.162743,-2442.679609,12879.583391,536.266849
194.163064,-444.123565,13545.768739,1072.533697
194.163385,148.041188,12065.356855,306.438199
194.163706,2072.576638,10658.965565,919.314598
194.164027,1776.494261,8216.285956,76.609550
194.164347,1110.308913,7328.038826,-1608.800546
194.164668,1998.556043,10066.800811,-1302.362347
194.164989,3775.050304,12361.439231,-995.924147
194.165310,5403.503377,11917.315666,-2298.286494
194.165631,5181.441594,9178.553681,-2298.286494
194.165952,3108.864956,9326.594869,-2528.115143
194.166273,1776.494261,9770.718434,-1225.752797
194.166593,1184.329507,11251.130318,0.000000
194.166914,1850.514855,11177.109724,-766.095498
194.167235,1776.494261,10807.006753,-1762.019645
194.167556,0.000000,10288.862594,-1915.238745
194.167877,-1184.329507,12287.418637,-2221.676944
194.168198,-2590.720797,13545.768739,-536.266849
194.168518,-1554.432478,13471.748144,1302.362347
194.168839,-518.144159,11473.192101,2374.896044
194.169160,-2146.597232,10288.862594,1378.971896
194.169481,-2664.741391,12287.418637,612.876398
194.169802,-2738.761985,15396.283594,1532.190996
194.170123,-2294.638420,14878.139434,2374.896044
194.170443,74.020594,11843.295072,3064.381992
194.170764,-222.061783,8290.306550,2451.505594
194.171085,-592.164754,8512.368333,2374.896044
194.171406,-1924.535449,10510.924376,2681.334243
194.171727,-1850.514855,10288.862594,766.095498
194.172048,1850.514855,9326.594869,-1685.410096
194.172368,4959.379811,6661.853478,-1608.800546
194.172689,5847.626942,8142.265362,0.000000
194.173010,4885.359217,9992.780217,1225.752797
194.173331,2886.803174,9696.697840,0.000000
194.173652,4959.379811,9104.533087,-2528.115143
194.173973,5995.668130,7328.038826,-3447.429741
194.174294,5625.565159,6809.894666,-2451.505594
194.174614,6143.709319,8734.430116,-1149.143247
194.174935,3997.112087,10881.027347,-1149.143247
194.175256,3552.988522,9918.759623,-2987.772442
194.175577,3478.967927,7624.121203,-3064.381992
194.175898,4441.235652,5255.462188,-1608.800546
194.176219,1924.535449,7920.203579,2068.457845
194.176539,1110.308913,11547.212695,3600.648841
194.176860,222.061783,11103.089130,2068.457845
194.177181,370.102971,8364.327145,1072.533697
194.177502,3182.885551,7328.038826,2221.676944
194.177823,666.185348,6143.709319,1762.019645
194.178144,518.144159,5773.606348,76.609550
194.178464,2442.679609,8660.409521,0.000000
194.178785,3997.112087,10362.883188,229.828649
194.179106,3701.029710,8216.285956,0.000000
194.179427,5403.503377,6661.853478,459.657299
194.179748,5329.482782,8438.347739,-1685.410096
194.180069,4293.194464,10732.986159,-1532.190996
194.180389,5403.503377,10510.924376,-1915.238745
194.180710,8068.244768,7920.203579,-3830.477490
194.181031,5847.626942,5995.668130,-2145.067394
194.181352,5181.441594,7105.977043,-1378.971896
194.181673,7031.956449,9548.656652,0.000000
194.181994,5329.482782,10658.965565,-1991.848295
194.182314,4219.173869,8882.471304,-2911.162892
194.182635,6365.771101,7031.956449,-3370.820191
194.182956,5921.647536,5773.606348,-536.266849
194.183277,4737.318029,9326.594869,3294.210641
194.183598,4811.338623,9696.697840,2681.334243
194.183919,4885.359217,7994.224174,-2298.286494
194.184240,4959.379811,7179.997637,-3983.696590
194.184560,6217.729913,8512.368333,-229.828649
194.184881,5477.523971,10140.821405,1532.190996
194.185202,6217.729913,11177.109724,2068.457845
194.185523,7031.956449,10510.924376,-612.876398
194.185844,3330.926739,7624.121203,-3447.429741
194.186165,3478.967927,6217.729913,-1225.752797
194.186485,6069.688724,10732.986159,2298.286494
194.186806,3034.844362,12139.377449,1532.190996
194.187127,2812.782580,10066.800811,-2451.505594
194.187448,5181.441594,7105.977043,-2145.067394
194.187769,2812.782580,8068.244768,229.828649
194.188090,3478.967927,10140.821405,2681.334243
194.188410,3923.091493,9474.636058,2374.896044
194.188731,3330.926739,7402.059420,-2298.286494
194.189052,5255.462188,5699.585753,-995.924147
194.189373,5403.503377,6957.935855,1838.629195
194.189694,5033.400406,7624.121203,1378.971896
194.190015,6069.688724,8882.471304,1149.143247
194.190335,6143.709319,10288.862594,-229.828649
194.190656,6661.853478,8956.491898,-2221.676944
194.190977,5625.565159,5995.668130,-2068.457845
194.191298,6661.853478,6365.771101,-1532.190996
194.191619,6069.688724,7550.100608,0.000000
194.191940,4367.215058,7031.956449,612.876398
194.192261,5921.647536,6883.915261,-1225.752797
194.192581,7624.121203,6439.791695,-1455.581446
194.192902,5033.400406,5921.647536,612.876398
194.193223,4145.153275,4959.379811,3217.601092
194.193544,3627.009116,4959.379811,2374.896044
194.193865,4959.379811,6513.812290,1072.533697
194.194186,4737.318029,6291.750507,-612.876398
194.194506,6661.853478,4589.276840,-1149.143247
194.194827,7179.997637,5847.626942,612.876398
194.195148,5699.585753,8364.327145,1378.971896
194.195469,5403.503377,9992.780217,-766.095498
194.195790,5773.606348,8808.450710,-2145.067394
194.196111,5255.462188,8068.244768,-689.485948
194.196431,7254.018232,8290.306550,1685.410096
194.196752,4959.379811,6883.915261,1072.533697
194.197073,3404.947333,7328.038826,-1915.238745
194.197394,3923.091493,8216.285956,-919.314598
194.197715,3108.864956,8290.306550,1378.971896
194.198036,2886.803174,5329.482782,1838.629195
194.198356,5625.565159,4663.297435,1149.143247
194.198677,5847.626942,8734.430116,766.095498
194.198998,3775.050304,12361.439231,0.000000
194.199319,4441.235652,10881.027347,-1225.752797
194.199640,5255.462188,7254.018232,-2298.286494
194.199961,7031.956449,7254.018232,383.047749
194.200282,5107.421000,9548.656652,2911.162892
194.200602,4071.132681,9918.759623,-306.438199
194.200923,3108.864956,9918.759623,-3830.477490
194.201244,4959.379811,9770.718434,-3217.601092
194.201565,5403.503377,8364.327145,229.828649
194.201886,4145.153275,6587.832884,2374.896044
194.202207,4367.215058,7179.997637,1991.848295
194.202527,4367.215058,8808.450710,-842.705048
194.202848,2368.659014,8290.306550,-2068.457845
194.203169,5107.421000,8660.409521,-2834.553343
194.203490,6587.832884,9548.656652,0.000000
194.203811,5699.585753,10510.924376,1685.410096
194.204132,5699.585753,8956.491898,919.314598
194.204452,4071.132681,7476.080014,-2451.505594
194.204773,4367.215058,8216.285956,-3217.601092
194.205094,4811.338623,9474.636058,-995.924147
194.205415,4737.318029,8808.450710,-689.485948
194.205736,5551.544565,7402.059420,-1302.362347
194.206057,6661.853478,6735.874072,-1072.533697
194.206377,6143.709319,6587.832884,842.705048
194.206698,5033.400406,7105.977043,842.705048
194.207019,3404.947333,6587.832884,459.657299
194.207340,5477.523971,8290.306550,-995.924147
194.207661,7031.956449,9918.759623,-689.485948
194.207982,6291.750507,9918.759623,-383.047749
194.208302,6587.832884,9770.718434,-1149.143247
194.208623,4737.318029,9474.636058,-459.657299
194.208944,2886.803174,9178.553681,-1378.971896
194.209265,3775.050304,8808.450710,-995.924147
194.209586,3108.864956,7031.956449,-153.219100
194.209907,2738.761985,7254.018232,612.876398
194.210228,5107.421000,8660.409521,2681.334243
194.210548,4737.318029,9326.594869,1378.971896
194.210869,2738.761985,7328.038826,-842.705048
194.211190,4811.338623,5995.668130,0.000000
194.211511,5551.544565,6217.729913,1225.752797
194.211832,5033.400406,6365.771101,1149.143247
194.212153,6587.832884,6735.874072,383.047749
194.212473,8290.306550,9252.574275,-383.047749
194.212794,7105.977043,9622.677246,153.219100
194.213115,6513.812290,8290.306550,306.438199
194.213436,6365.771101,6809.894666,-2374.896044
194.213757,7624.121203,7772.162391,-2145.067394
194.214078,5773.606348,8290.306550,919.314598
194.214398,5699.585753,6217.729913,383.047749
194.214719,7254.018232,3034.844362,0.000000
194.215040,7105.977043,3034.844362,459.657299
194.215361,5625.565159,4367.215058,1302.362347
194.215682,5773.606348,5033.400406,1225.752797
194.216003,6069.688724,5255.462188,-383.047749
194.216323,7994.224174,6217.729913,-1072.533697
194.216644,10288.862594,7105.977043,-153.219100
194.216965,7698.141797,8808.450710,229.828649
194.217286,5921.647536,9548.656652,0.000000
194.217607,3849.070898,9104.533087,-1838.629195
194.217928,3849.070898,7550.100608,-2681.334243
194.218249,6365.771101,7698.141797,-919.314598
194.218569,4441.235652,9622.677246,689.485948
194.218890,1924.535449,10732.986159,-689.485948
194.219211,1924.535449,8808.450710,-1991.848295
194.219532,2072.576638,6735.874072,-689.485948
194.219853,3627.009116,6143.709319,2374.896044
194.220174,3775.050304,7105.977043,4443.353888
194.220494,3330.926739,9622.677246,1225.752797
194.220815,2442.679609,10732.986159,-2145.067394
194.221136,4219.173869,11769.274478,76.609550
194.221457,6735.874072,11177.109724,1838.629195
194.221778,5033.400406,9104.533087,842.705048
194.222099,2738.761985,8808.450710,-1915.238745
194.222419,4959.379811,8364.327145,-2221.676944
194.222740,3256.906145,9400.615463,-1762.019645
194.223061,3923.091493,9474.636058,-306.438199
194.223382,5033.400406,10362.883188,0.000000
194.223703,4367.215058,9474.636058,-612.876398
194.224024,3182.885551,7994.224174,-689.485948
194.224344,5181.441594,8586.388927,-612.876398
194.224665,4367.215058,7624.121203,-1915.238745
194.224986,3849.070898,7920.203579,-1991.848295
194.225307,4737.318029,9400.615463,-383.047749
194.225628,5921.647536,10436.903782,1072.533697
194.225949,5551.544565,10066.800811,2451.505594
194.226270,4737.318029,8808.450710,1149.143247
194.226590,3923.091493,8586.388927,-1838.629195
194.226911,2960.823768,7179.997637,-2221.676944
194.227232,4515.256246,6735.874072,-459.657299
194.227553,5329.482782,6513.812290,76.609550
194.227874,6069.688724,5847.626942,1225.752797
194.228195,5477.523971,7254.018232,1532.190996
194.228515,3478.967927,6883.915261,-229.828649
194.228836,4293.194464,6883.915261,-1149.143247
194.229157,6217.729913,7328.038826,0.000000
194.229478,7698.141797,6883.915261,-612.876398
194.229799,7328.038826,7476.080014,-689.485948
194.230120,7772.162391,9104.533087,-306.438199
194.230440,7179.997637,11177.109724,-689.485948
194.230761,4515.256246,8956.491898,-689.485948
194.231082,4293.194464,6439.791695,-919.314598
194.231403,5699.585753,5255.462188,-229.828649
194.231724,6365.771101,5551.544565,842.705048
194.232045,6735.874072,6365.771101,995.924147
194.232365,5477.523971,5181.441594,-689.485948
194.232686,5403.503377,6217.729913,0.000000
194.233007,4885.359217,6439.791695,1302.362347
194.233328,6957.935855,6365.771101,1455.581446
194.233649,7772.162391,5403.503377,689.485948
194.233970,6809.894666,6661.853478,-306.438199
194.234290,5847.626942,9474.636058,-995.924147
194.234611,6291.750507,10066.800811,-1149.143247
194.234932,6439.791695,10436.903782,-1378.971896
194.235253,7624.121203,9178.553681,76.609550
194.235574,5255.462188,7105.977043,-459.657299
194.235895,3627.009116,6513.812290,-1378.971896
194.236216,3330.926739,8142.265362,-995.924147
194.236536,3997.112087,7846.182985,766.095498
194.236857,3478.967927,5699.585753,1149.143247
194.237178,5255.462188,5921.647536,1225.752797
194.237499,3997.112087,7920.203579,-229.828649
194.237820,1184.329507,9104.533087,-1302.362347
194.238141,2886.803174,9474.636058,-612.876398
194.238461,5625.565159,10140.821405,76.609550
194.238782,5329.482782,9992.780217,1302.362347
194.239103,5033.400406,8882.471304,306.438199
194.239424,4441.235652,11325.150913,-919.314598
194.239745,1406.391290,13027.624579,-229.828649
194.240066,1110.308913,11325.150913,-153.219100
194.240386,2960.823768,7698.141797,-1225.752797
194.240707,4959.379811,6809.894666,-1302.362347
194.241028,5181.441594,9104.533087,2298.286494
194.241349,1702.473667,7994.224174,1991.848295
194.241670,592.164754,6217.729913,-1225.752797
194.241991,2220.617826,6661.853478,0.000000
194.242311,3997.112087,6735.874072,1072.533697
194.242632,5329.482782,8290.306550,1608.800546
194.242953,4885.359217,9326.594869,-459.657299
194.243274,6365.771101,11177.109724,-2681.334243
194.243595,6291.750507,10140.821405,-1455.581446
194.243916,6439.791695,8512.368333,-612.876398
194.244237,6439.791695,9474.636058,0.000000
194.244557,3701.029710,7254.018232,-766.095498
194.244878,3997.112087,7550.100608,-1915.238745
194.245199,5847.626942,7179.997637,-1149.143247
194.245520,5625.565159,8586.388927,-459.657299
194.245841,5255.462188,8956.491898,-383.047749
194.246162,4293.194464,7179.997637,-842.705048
194.246482,3478.967927,5921.647536,-766.095498
194.246803,3775.050304,5847.626942,2451.505594
194.247124,4737.318029,7476.080014,3294.210641
194.247445,5255.462188,8512.368333,1838.629195
194.247766,5181.441594,8512.368333,-536.266849
194.248087,7772.162391,8808.450710,-1072.533697
194.248407,7402.059420,8586.388927,-306.438199
194.248728,6587.832884,7772.162391,0.000000
194.249049,6143.709319,6143.709319,-919.314598
194.249370,6365.771101,5107.421000,-1302.362347
194.249691,5329.482782,5033.400406,-383.047749
194.250012,8882.471304,8660.409521,1149.143247
194.250332,7105.977043,9252.574275,76.609550
194.250653,2664.741391,7550.100608,-2681.334243
194.250974,5033.400406,7328.038826,-1378.971896
194.251295,6069.688724,7476.080014,383.047749
194.251616,5329.482782,7105.977043,229.828649
194.251937,4737.318029,7254.018232,-76.609550
194.252258,5329.482782,8956.491898,-1608.800546
194.252578,4071.132681,10510.924376,-383.047749
194.252899,4515.256246,10436.903782,2374.896044
194.253220,3849.070898,9030.512492,1302.362347
194.253540,3552.988522,6365.771101,0.000000
194.253861,2960.823768,7698.141797,153.219100
194.254181,3775.050304,7846.182985,-842.705048
194.254502,4293.194464,8216.285956,-1991.848295
194.254823,5181.441594,8586.388927,-612.876398
194.255143,3923.091493,7550.100608,229.828649
194.255464,3849.070898,7550.100608,1991.848295
194.255785,5181.441594,8142.265362,1532.190996
194.256105,5033.400406,9696.697840,-459.657299
194.256426,4589.276840,10955.047942,-2374.896044
194.256746,6217.729913,9844.739029,-2451.505594
194.257067,6069.688724,9400.615463,-383.047749
194.257388,5921.647536,9400.615463,842.705048
194.257708,5477.523971,8882.471304,1149.143247
194.258029,2886.803174,7105.977043,229.828649
194.258350,1998.556043,6291.750507,-1302.362347
194.258670,3404.947333,7179.997637,-229.828649
194.258991,7031.956449,7846.182985,689.485948
194.259311,6587.832884,8660.409521,0.000000
194.259632,2886.803174,7328.038826,-1378.971896
194.259953,2886.803174,7846.182985,-689.485948
194.260273,4737.318029,8364.327145,1149.143247
194.260594,4737.318029,8882.471304,1378.971896
194.260915,7105.977043,9474.636058,76.609550
194.261235,6661.853478,8808.450710,-1532.190996
194.261556,4663.297435,10288.862594,-2604.724693
194.261876,5625.565159,9474.636058,0.000000
194.262197,5995.668130,8660.409521,1455.581446
194.262518,4737.318029,6365.771101,766.095498
194.262838,4663.297435,6217.729913,153.219100
194.263159,4959.379811,8142.265362,0.000000
194.263480,3478.967927,7846.182985,383.047749
194.263800,3701.029710,6439.791695,1915.238745
194.264121,4145.153275,5773.606348,1608.800546
194.264441,4589.276840,7179.997637,76.609550
194.264762,2664.741391,6069.688724,-1149.143247
194.265083,5625.565159,6809.894666,-1532.190996
194.265403,7328.038826,9400.615463,306.438199
194.265724,6513.812290,11325.150913,2145.067394
194.266045,6217.729913,9918.759623,-536.266849
194.266365,7254.018232,7846.182985,-1685.410096
194.266686,6809.894666,7920.203579,0.000000
194.267006,6069.688724,7105.977043,1149.143247
194.267327,5107.421000,5477.523971,-1072.533697
194.267648,6069.688724,6513.812290,-3983.696590
194.267968,5773.606348,7328.038826,-2068.457845
194.268289,5773.606348,7179.997637,995.924147
194.268610,5033.400406,6587.832884,2068.457845
194.268930,3997.112087,7031.956449,1532.190996
194.269251,3775.050304,7402.059420,1378.971896
194.269571,5107.421000,7920.203579,-229.828649
194.269892,5477.523971,9918.759623,-229.828649
194.270213,5181.441594,10436.903782,0.000000
194.270533,6143.709319,8808.450710,0.000000
194.270854,5329.482782,7994.224174,-306.438199
194.271175,3478.967927,7550.100608,-1225.752797
194.271495,2516.700203,6143.709319,-383.047749
194.271816,5107.421000,7550.100608,-306.438199
194.272136,5995.668130,9918.759623,-766.095498
194.272457,4589.276840,10584.944971,0.000000
194.272778,4441.235652,9104.533087,-383.047749
194.273098,4145.153275,8882.471304,-459.657299
194.273419,1998.556043,7105.977043,1072.533697
194.273740,3478.967927,6513.812290,1532.190996
194.274060,5699.585753,7179.997637,-995.924147
194.274381,3182.885551,9548.656652,-2298.286494
194.274701,4737.318029,11991.336260,-1762.019645
194.275022,6069.688724,10066.800811,-1225.752797
194.275343,5773.606348,7698.141797,0.000000
194.275663,6291.750507,8290.306550,1838.629195
194.275984,5033.400406,9252.574275,1225.752797
194.276305,3330.926739,8512.368333,-2145.067394
194.276625,5033.400406,7772.162391,-2528.115143
194.276946,6143.709319,8364.327145,-612.876398
194.277266,7476.080014,7994.224174,919.314598
194.277587,3701.029710,5329.482782,76.609550
194.277908,3182.885551,4515.256246,-2145.067394
194.278228,5329.482782,7772.162391,842.705048
194.278549,5477.523971,9770.718434,2911.162892
194.278870,5847.626942,9992.780217,919.314598
194.279190,6513.812290,9622.677246,-1455.581446
194.279511,4959.379811,10584.944971,-1532.190996
194.279831,4959.379811,10214.842000,306.438199
194.280152,3997.112087,7254.018232,766.095498
194.280473,3997.112087,5033.400406,-1838.629195
194.280793,4663.297435,5625.565159,-2451.505594
194.281114,4071.132681,8808.450710,-1685.410096
194.281435,3923.091493,10807.006753,-459.657299
194.281755,4885.359217,10140.821405,1302.362347
194.282076,4959.379811,8734.430116,2221.676944
194.282396,4959.379811,6735.874072,3140.991542
194.282717,5255.462188,6587.832884,2681.334243
194.283038,4737.318029,7105.977043,0.000000
194.283358,4737.318029,7328.038826,-1838.629195
194.283679,6587.832884,6809.894666,-689.485948
194.284000,8882.471304,7254.018232,536.266849
194.284320,7846.182985,8068.244768,1072.533697
194.284641,7328.038826,8734.430116,-76.609550
194.284961,6217.729913,7920.203579,-1991.848295
194.285282,5477.523971,6069.688724,-1838.629195
194.285603,4737.318029,4441.235652,-536.266849
194.285923,8216.285956,6809.894666,1608.800546
194.286244,6217.729913,8290.306550,1838.629195
194.286565,3404.947333,8734.430116,536.266849
194.286885,4071.132681,5995.668130,-995.924147
194.287206,3923.091493,4663.297435,-2221.676944
194.287526,5699.585753,6365.771101,-766.095498
194.287847,6883.915261,9548.656652,229.828649
194.288168,5107.421000,10436.903782,-995.924147
194.288488,4515.256246,10140.821405,-459.657299
194.288809,5181.441594,10584.944971,2528.115143
194.289130,2294.638420,10140.821405,2221.676944
194.289450,2812.782580,8882.471304,153.219100
194.289771,4367.215058,8586.388927,-1991.848295
194.290091,3256.906145,8512.368333,-2451.505594
194.290412,2590.720797,5921.647536,-383.047749
194.290733,2812.782580,4737.318029,1378.971896
194.291053,2146.597232,5995.668130,2068.457845
194.291374,2368.659014,9178.553681,2221.676944
194.291695,3849.070898,8956.491898,-612.876398
194.292015,6661.853478,7920.203579,-2681.334243
194.292336,8142.265362,9474.636058,-766.095498
194.292656,8438.347739,11029.068536,1455.581446
194.292977,6291.750507,9474.636058,229.828649
194.293298,5551.544565,7772.162391,-2221.676944
194.293618,6735.874072,6587.832884,-2145.067394
194.293939,4959.379811,6587.832884,-2298.286494
194.294260,4589.276840,8216.285956,-1762.019645
194.294580,5255.462188,10510.924376,-1915.238745
194.294901,5477.523971,10732.986159,-1302.362347
194.295221,5403.503377,7179.997637,919.314598
194.295542,4663.297435,6513.812290,995.924147
194.295863,1776.494261,6439.791695,995.924147
194.296183,1332.370696,7254.018232,766.095498
194.296504,3182.885551,8512.368333,229.828649
194.296825,5995.668130,9252.574275,536.266849
194.297145,6365.771101,9622.677246,1072.533697
194.297466,6809.894666,11029.068536,0.000000
194.297786,5107.421000,11325.150913,-2374.896044
194.298107,1776.494261,9104.533087,-2451.505594
194.298428,3701.029710,4811.338623,-1685.410096
194.298748,8142.265362,5551.544565,306.438199
194.299069,7476.080014,8068.244768,1378.971896
194.299390,5255.462188,9696.697840,536.266849
194.299710,6069.688724,9104.533087,-306.438199
194.300031,4737.318029,6735.874072,-1302.362347
194.300351,4959.379811,4219.173869,153.219100
194.300672,7624.121203,3775.050304,919.314598
194.300993,7994.224174,6513.812290,-1762.019645
194.301313,6439.791695,10288.862594,-1762.019645
194.301634,6883.915261,11177.109724,-1762.019645
194.301955,6291.750507,8438.347739,-2451.505594
194.302275,5921.647536,7105.977043,306.438199
194.302596,5033.400406,8290.306550,3370.820191
194.302916,3997.112087,10658.965565,1685.410096
194.303237,2590.720797,8586.388927,-153.219100
194.303558,2516.700203,5921.647536,-2451.505594
194.303878,4219.173869,4293.194464,-1838.629195
194.304199,4145.153275,3997.112087,1455.581446
194.304520,3256.906145,5995.668130,1149.143247
194.304840,3478.967927,7402.059420,-1302.362347
194.305161,4293.194464,7698.141797,-2068.457845
194.305481,6291.750507,9992.780217,-689.485948
194.305802,7772.162391,11103.089130,1378.971896
194.306123,6439.791695,11843.295072,1378.971896
194.306443,6069.688724,9918.759623,-1302.362347
194.306764,4441.235652,7772.162391,-1762.019645
194.307085,4959.379811,7105.977043,-689.485948
194.307405,5181.441594,8364.327145,-383.047749
194.307726,4589.276840,7994.224174,-1149.143247
194.308046,4071.132681,7550.100608,-612.876398
194.308367,5329.482782,7698.141797,1532.190996
194.308688,3478.967927,5847.626942,2681.334243
194.309008,1776.494261,4663.297435,2987.772442
194.309329,3330.926739,5181.441594,2451.505594
194.309650,4293.194464,7402.059420,1072.533697
194.309970,5847.626942,10140.821405,-1149.143247
194.310291,7550.100608,12213.398043,-2757.943793
194.310611,7550.100608,12583.501014,-3524.039291
194.310932,4441.235652,10140.821405,-3064.381992
194.311253,2812.782580,6809.894666,-766.095498
194.311573,6735.874072,7550.100608,995.924147
194.311894,5995.668130,9326.594869,766.095498
194.312215,3849.070898,11251.130318,-689.485948
194.312535,5181.441594,10955.047942,-689.485948
194.312856,2886.803174,9400.615463,1608.800546
194.313176,2368.659014,5625.565159,3140.991542
194.313497,4145.153275,2590.720797,3677.258390
194.313818,5403.503377,2442.679609,1072.533697
194.314138,2590.720797,6069.688724,-1532.190996
194.314459,4589.276840,10288.862594,-1608.800546
194.314780,7402.059420,11177.109724,-766.095498
194.315100,6587.832884,9770.718434,0.000000
194.315421,7254.018232,8364.327145,766.095498
194.315741,6365.771101,8068.244768,0.000000
194.316062,4589.276840,8142.265362,-1225.752797
194.316383,4811.338623,6809.894666,-1532.190996
194.316703,6217.729913,7105.977043,-2528.115143
194.317024,6291.750507,5329.482782,-1532.190996
194.317345,4367.215058,5403.503377,-153.219100
194.317665,4441.235652,7624.121203,995.924147
194.317986,3108.864956,7920.203579,536.266849
194.318306,3478.967927,7031.956449,-153.219100
194.318627,5551.544565,6439.791695,-1302.362347
194.318948,6661.853478,8808.450710,-1455.581446
194.319268,3997.112087,11769.274478,306.438199
194.319589,2886.803174,11177.109724,153.219100
194.319910,4589.276840,9622.677246,229.828649
194.320230,5181.441594,8512.368333,1302.362347
194.320551,4293.194464,7254.018232,-306.438199
194.320871,2812.782580,6735.874072,-2528.115143
194.321192,3478.967927,7624.121203,-2604.724693
194.321513,4145.153275,7624.121203,229.828649
194.321833,4885.359217,5033.400406,1685.410096
194.322154,6587.832884,4959.379811,1072.533697
194.322475,6217.729913,7254.018232,-612.876398
194.322795,4737.318029,9474.636058,-2298.286494
194.323116,6291.750507,10362.883188,-1915.238745
194.323436,8068.244768,10732.986159,-536.266849
194.323757,8586.388927,9252.574275,383.047749
194.324078,8660.409521,9104.533087,919.314598
194.324398,5773.606348,9326.594869,-536.266849
194.324719,1776.494261,8734.430116,-1608.800546
194.325040,2516.700203,6587.832884,-1838.629195
194.325360,5033.400406,7328.038826,0.000000
194.325681,4811.338623,7179.997637,1302.362347
194.326001,2960.823768,6809.894666,1915.238745
194.326322,5033.400406,6513.812290,-229.828649
194.326643,2886.803174,7254.018232,-2298.286494
194.326963,1850.514855,7772.162391,-2451.505594
194.327284,4145.153275,7254.018232,-1685.410096
194.327605,8216.285956,9474.636058,-689.485948
194.327925,8438.347739,12435.459826,689.485948
194.328246,7031.956449,13619.789333,0.000000
194.328566,4885.359217,11251.130318,-1532.190996
194.328887,2886.803174,9696.697840,-1302.362347
194.329208,4441.235652,9104.533087,2451.505594
194.329528,5773.606348,7402.059420,2068.457845
194.329849,5551.544565,6069.688724,536.266849
194.330170,3182.885551,5329.482782,-766.095498
194.330490,1332.370696,5625.565159,-229.828649
194.330811,3552.988522,6365.771101,1991.848295
194.331131,3849.070898,6143.709319,2221.676944
194.331452,2590.720797,5255.462188,383.047749
194.331773,6069.688724,9104.533087,-689.485948
194.332093,6513.812290,12065.356855,-459.657299
194.332414,4663.297435,11251.130318,-1532.190996
194.332735,8438.347739,10436.903782,-612.876398
194.333055,8438.347739,9918.759623,-919.314598
194.333376,4811.338623,9474.636058,-919.314598
194.333696,5033.400406,8956.491898,1378.971896
194.334017,5107.421000,7031.956449,0.000000
194.334338,6809.894666,5773.606348,-306.438199
194.334658,6143.709319,4441.235652,1455.581446
194.334979,3849.070898,3701.029710,0.000000
194.335300,2886.803174,4293.194464,229.828649
194.335620,3849.070898,6809.894666,1685.410096
194.335941,4959.379811,6809.894666,689.485948
194.336261,3849.070898,5847.626942,-1072.533697
194.336582,5995.668130,9030.512492,-1991.848295
194.336903,7179.997637,13249.686362,-383.047749
194.337223,3701.029710,12287.418637,76.609550
194.337544,5033.400406,9474.636058,1072.533697
194.337865,4145.153275,7550.100608,612.876398
194.338185,4293.194464,6291.750507,919.314598
194.338506,6143.709319,7105.977043,766.095498
194.338826,5107.421000,7550.100608,-306.438199
194.339147,4367.215058,7698.141797,-1225.752797
194.339468,4959.379811,5773.606348,689.485948
194.339788,5033.400406,4071.132681,1915.238745
194.340109,5995.668130,4367.215058,2068.457845
194.340430,4145.153275,6439.791695,919.314598
194.340750,3552.988522,7550.100608,-2068.457845
194.341071,5329.482782,10436.903782,-2451.505594
194.341391,6809.894666,11843.295072,0.000000
194.341712,5329.482782,11029.068536,306.438199
194.342033,6513.812290,10140.821405,-229.828649
194.342353,3701.029710,8512.368333,-1302.362347
194.342674,1924.535449,8364.327145,-1762.019645
194.342995,5255.462188,8660.409521,0.000000
194.343315,5255.462188,8882.471304,612.876398
194.343636,4145.153275,8142.265362,1072.533697
194.343956,4589.276840,5625.565159,995.924147
194.344277,4367.215058,5995.668130,229.828649
194.344598,3849.070898,6957.935855,-766.095498
194.344918,4515.256246,7846.182985,-383.047749
194.345239,5403.503377,9770.718434,-1072.533697
194.345559,6735.874072,10658.965565,-612.876398
194.345880,7772.162391,11177.109724,1838.629195
194.346201,6217.729913,10881.027347,536.266849
194.346521,4367.215058,10807.006753,-842.705048
194.346842,2516.700203,9474.636058,-536.266849
194.347163,3404.947333,7179.997637,-919.314598
194.347483,7031.956449,7105.977043,612.876398
194.347804,5995.668130,7179.997637,1302.362347
194.348124,3627.009116,7179.997637,536.266849
194.348445,2812.782580,6365.771101,0.000000
194.348766,4959.379811,7031.956449,-306.438199
194.349086,5477.523971,7254.018232,919.314598
194.349407,5699.585753,7920.203579,612.876398
194.349728,7105.977043,10658.965565,-1532.190996
194.350048,5181.441594,11695.253884,-2068.457845
194.350369,5477.523971,10510.924376,-306.438199
194.350689,6365.771101,8586.388927,689.485948
194.351010,4811.338623,7402.059420,229.828649
194.351331,3108.864956,6513.812290,-842.705048
194.351651,3404.947333,5921.647536,-1532.190996
194.351972,4885.359217,7031.956449,-842.705048
194.352293,5625.565159,7846.182985,689.485948
194.352613,4441.235652,6513.812290,1608.800546
194.352934,5699.585753,4441.235652,76.609550
194.353255,5255.462188,4885.359217,689.485948
194.353575,4737.318029,6365.771101,1149.143247
194.353896,5107.421000,6661.853478,-995.924147
194.354217,6883.915261,7402.059420,-2911.162892
194.354538,7624.121203,9474.636058,-2757.943793
194.354858,9326.594869,11399.171507,-383.047749
194.355179,7698.141797,9474.636058,-612.876398
194.355500,4737.318029,7550.100608,-1608.800546
194.355820,2590.720797,7994.224174,-1072.533697
194.356141,3701.029710,8660.409521,76.609550
194.356462,4811.338623,8512.368333,1225.752797
194.356782,4441.235652,7031.956449,766.095498
194.357103,3404.947333,6217.729913,306.438199
194.357424,1480.411884,7031.956449,229.828649
194.357745,0.000000,6661.853478,306.438199
194.358065,1702.473667,6957.935855,383.047749
194.358386,3923.091493,7328.038826,0.000000
194.358707,5033.400406,9696.697840,-689.485948
194.359027,5477.523971,11621.233289,-306.438199
194.359348,5477.523971,12805.562797,-306.438199
194.359669,4959.379811,12213.398043,-306.438199
194.359989,4293.194464,8586.388927,-229.828649
194.360310,5995.668130,6957.935855,-689.485948
194.360631,7846.182985,6217.729913,995.924147
194.360951,7105.977043,7846.182985,-229.828649
194.361272,4959.379811,7920.203579,-995.924147
194.361593,4959.379811,7179.997637,-1072.533697
194.361914,7105.977043,6217.729913,1455.581446
194.362234,6291.750507,5477.523971,3294.210641
194.362555,6069.688724,5699.585753,1532.190996
194.362876,5033.400406,7402.059420,-2298.286494
194.363196,6587.832884,9844.739029,-3600.648841
194.363517,6957.935855,9918.759623,-1302.362347
194.363838,6143.709319,9178.553681,842.705048
194.364158,6587.832884,9770.718434,1302.362347
194.364479,4515.256246,8364.327145,0.000000
194.364800,1554.432478,6661.853478,-1378.971896
194.365121,5847.626942,6439.791695,-1225.752797
194.365441,4737.318029,6735.874072,-612.876398
194.365762,4145.153275,6883.915261,0.000000
194.366083,6143.709319,5551.544565,995.924147
194.366403,6439.791695,7105.977043,1991.848295
194.366724,3627.009116,7550.100608,306.438199
194.367045,3923.091493,7402.059420,-1225.752797
194.367365,4737.318029,7105.977043,-2911.162892
194.367686,6513.812290,9474.636058,-1608.800546
194.368007,7105.977043,10881.027347,2528.115143
194.368328,6513.812290,10807.006753,919.314598
194.368648,4589.276840,9770.718434,-1378.971896
194.368969,1850.514855,7105.977043,-1685.410096
194.369290,2368.659014,7105.977043,-459.657299
194.369610,4737.318029,7105.977043,1378.971896
194.369931,5033.400406,6809.894666,995.924147
194.370252,5403.503377,6957.935855,0.000000
194.370572,4071.132681,5995.668130,-229.828649
194.370893,3849.070898,5551.544565,306.438199
194.371214,4367.215058,6735.874072,1685.410096
194.371534,5847.626942,7179.997637,0.000000
194.371855,6809.894666,8734.430116,-1532.190996
194.372176,8956.491898,9918.759623,-1915.238745
194.372497,8512.368333,10658.965565,-383.047749
194.372817,7105.977043,10881.027347,-229.828649
194.373138,4737.318029,8882.471304,-1378.971896
194.373459,3997.112087,8438.347739,-1915.238745
194.373779,4589.276840,7550.100608,-612.876398
194.374100,5033.400406,6809.894666,0.000000
194.374421,5255.462188,8142.265362,-919.314598
194.374741,3108.864956,9252.574275,-1072.533697
194.375062,2368.659014,8660.409521,229.828649
194.375383,4071.132681,7846.182985,2145.067394
194.375704,4441.235652,7105.977043,2068.457845
194.376024,3701.029710,7772.162391,1455.581446
194.376345,3034.844362,8734.430116,-689.485948
194.376666,3404.947333,10288.862594,-1225.752797
194.376986,6809.894666,11843.295072,0.000000
194.377307,7031.956449,11029.068536,-76.609550
194.377628,4959.379811,9474.636058,-995.924147
194.377948,4663.297435,7772.162391,-612.876398
194.378269,3775.050304,8068.244768,1149.143247
194.378590,4071.132681,8364.327145,1455.581446
194.378910,5107.421000,7624.121203,-459.657299
194.379231,4811.338623,6735.874072,-1915.238745
194.379552,4145.153275,6291.750507,-229.828649
194.379873,3997.112087,7105.977043,1838.629195
194.380193,3478.967927,7328.038826,1149.143247
194.380514,4219.173869,5995.668130,-1225.752797
194.380835,6513.812290,6957.935855,-1762.019645
194.381155,7920.203579,10288.862594,-766.095498
194.381476,7179.997637,11917.315666,76.609550
194.381797,6587.832884,9696.697840,-1149.143247
194.382117,6735.874072,8290.306550,-1225.752797
194.382438,5551.544565,5921.647536,383.047749
194.382759,4663.297435,5033.400406,229.828649
194.383080,6735.874072,5255.462188,-459.657299
194.383400,6365.771101,5921.647536,-1685.410096
194.383721,6143.709319,6365.771101,-536.266849
194.384042,4959.379811,5255.462188,1149.143247
194.384362,5033.400406,7105.977043,689.485948
194.384683,4885.359217,7698.141797,306.438199
194.385004,3997.112087,7550.100608,-766.095498
194.385324,6143.709319,9104.533087,-1685.410096
194.385645,5181.441594,9770.718434,-1378.971896
194.385966,4737.318029,11103.089130,-1762.019645
194.386286,4663.297435,9548.656652,76.609550
194.386607,4663.297435,9548.656652,689.485948
194.386928,3923.091493,8586.388927,1455.581446
194.387249,4367.215058,9252.574275,383.047749
194.387569,3404.947333,8512.368333,-1532.190996
194.387890,2664.741391,7920.203579,-1991.848295
194.388211,3256.906145,6883.915261,689.485948
194.388531,5107.421000,6735.874072,2834.553343
194.388852,5107.421000,7476.080014,2451.505594
194.389173,2960.823768,7624.121203,-459.657299
194.389493,3034.844362,9622.677246,-2987.772442
194.389814,5625.565159,12287.418637,-1072.533697
194.390135,6809.894666,12065.356855,-306.438199
194.390456,6809.894666,10807.006753,383.047749
194.390776,6439.791695,9992.780217,536.266849
194.391097,4219.173869,10436.903782,689.485948
194.391418,2072.576638,8734.430116,995.924147
194.391738,4219.173869,7254.018232,0.000000
194.392059,6143.709319,7105.977043,-1072.533697
194.392380,4589.276840,6661.853478,-689.485948
194.392700,4219.173869,4811.338623,306.438199
194.393021,4737.318029,5773.606348,995.924147
194.393342,3701.029710,6365.771101,459.657299
194.393663,3108.864956,6217.729913,-459.657299
194.393983,6513.812290,7846.182985,-2681.334243
194.394304,8512.368333,11103.089130,-2604.724693
194.394625,8216.285956,13915.871710,-919.314598
194.394945,8142.265362,12509.480420,-995.924147
194.395266,7105.977043,10066.800811,-1225.752797
194.395587,5255.462188,7772.162391,153.219100
194.395907,3404.947333,6143.709319,1378.971896
194.396228,5033.400406,4589.276840,766.095498
194.396549,4589.276840,4737.318029,-689.485948
194.396869,2812.782580,4663.297435,0.000000
194.397190,4441.235652,6365.771101,689.485948
194.397511,5033.400406,6883.915261,536.266849
194.397832,3627.009116,5921.647536,0.000000
194.398152,6143.709319,5477.523971,-459.657299
194.398473,5329.482782,6587.832884,-766.095498
194.398794,5403.503377,9474.636058,-1915.238745
194.399114,5477.523971,11325.150913,-1608.800546
194.399435,7105.977043,12583.501014,-612.876398
194.399756,7550.100608,12065.356855,-153.219100
194.400076,6809.894666,11103.089130,995.924147
194.400397,3256.906145,7624.121203,-766.095498
194.400718,3552.988522,6069.688724,-2528.115143
194.401039,3034.844362,6735.874072,-1302.362347
194.401359,3034.844362,7031.956449,306.438199
194.401680,3849.070898,4959.379811,1455.581446
194.402001,3552.988522,6069.688724,1302.362347
194.402321,2590.720797,9030.512492,1378.971896
194.402642,1776.494261,10881.027347,383.047749
194.402963,3034.844362,10584.944971,-153.219100
194.403283,4885.359217,10510.924376,-612.876398
194.403604,7105.977043,9474.636058,919.314598
194.403925,7105.977043,10362.883188,689.485948
194.404245,5329.482782,11177.109724,-383.047749
194.404566,2368.659014,9844.739029,-1149.143247
194.404887,4219.173869,8438.347739,-919.314598
194.405208,5329.482782,5921.647536,0.000000
194.405528,6143.709319,6069.688724,689.485948
194.405849,5699.585753,7105.977043,153.219100
194.406170,3923.091493,7031.956449,-1072.533697
194.406490,3108.864956,7402.059420,-1149.143247
194.406811,4145.153275,7105.977043,0.000000
194.407132,5847.626942,7476.080014,1302.362347
194.407452,7105.977043,9104.533087,536.266849
194.407773,5625.565159,10362.883188,-1149.143247
194.408094,4589.276840,11103.089130,-1378.971896
194.408415,5181.441594,9696.697840,-766.095498
194.408735,6883.915261,7994.224174,229.828649
194.409056,6957.935855,5995.668130,766.095498
194.409377,3552.988522,5107.421000,-766.095498
194.409697,3330.926739,4441.235652,-536.266849
194.410018,4589.276840,7328.038826,0.000000
194.410339,4959.379811,7920.203579,919.314598
194.410659,4737.318029,6143.709319,0.000000
194.410980,9548.656652,5995.668130,-612.876398
194.411301,5181.441594,5403.503377,-1378.971896
194.411621,2516.700203,6957.935855,-2604.724693
194.411942,5181.441594,7994.224174,-2757.943793
194.412263,7328.038826,11177.109724,-2528.115143
194.412584,6957.935855,11695.253884,-766.095498
194.412904,7402.059420,10658.965565,1225.752797
194.413225,6069.688724,9622.677246,0.000000
194.413546,2294.638420,8512.368333,153.219100
194.413866,0.000000,7402.059420,1378.971896
194.414187,5255.462188,8364.327145,0.000000
194.414508,4219.173869,6809.894666,-383.047749
194.414828,2146.597232,5255.462188,-306.438199
194.415149,4663.297435,6513.812290,689.485948
194.415470,3256.906145,7772.162391,1455.581446
194.415791,962.267725,8660.409521,612.876398
194.416111,4737.318029,8956.491898,-459.657299
194.416432,7328.038826,8808.450710,-1532.190996
194.416753,8586.388927,11621.233289,-229.828649
194.417073,7254.018232,12287.418637,612.876398
194.417394,6883.915261,11103.089130,-2221.676944
194.417715,6365.771101,10436.903782,-3294.210641
194.418035,6069.688724,7476.080014,-766.095498
194.418356,5921.647536,6735.874072,0.000000
194.418677,6513.812290,7402.059420,766.095498
194.418998,3627.009116,7328.038826,-76.609550
194.419318,2368.659014,6883.915261,-689.485948
194.419639,4441.235652,6661.853478,689.485948
194.419960,4219.173869,7402.059420,2604.724693
194.420280,2664.741391,7994.224174,2374.896044
194.420601,3330.926739,8142.265362,919.314598
194.420922,3849.070898,9474.636058,-459.657299
194.421242,4885.359217,10584.944971,-612.876398
194.421563,6661.853478,11399.171507,1149.143247
194.421884,7698.141797,10140.821405,-536.266849
194.422204,4663.297435,7254.018232,-2145.067394
194.422525,3775.050304,5699.585753,-536.266849
194.422846,5477.523971,8068.244768,0.000000
194.423167,3849.070898,8512.368333,459.657299
194.423487,4663.297435,7105.977043,-766.095498
194.423808,8734.430116,6217.729913,-919.314598
194.424129,4219.173869,5995.668130,153.219100
194.424449,3182.885551,5403.503377,1608.800546
194.424770,5699.585753,6439.791695,1302.362347
194.425091,5995.668130,6439.791695,-1225.752797
194.425411,5847.626942,7920.203579,-689.485948
194.425732,8142.265362,9992.780217,1608.800546
194.426053,6883.915261,9326.594869,-306.438199
194.426374,6291.750507,8734.430116,-689.485948
194.426694,5477.523971,7476.080014,-383.047749
194.427015,4219.173869,5699.585753,-1532.190996
194.427336,3997.112087,4737.318029,-229.828649
194.427656,4811.338623,5995.668130,153.219100
194.427977,3478.967927,8364.327145,-1225.752797
194.428298,3849.070898,9178.553681,-536.266849
194.428618,4071.132681,8882.471304,0.000000
194.428939,3108.864956,7920.203579,-153.219100
194.429260,4737.318029,8512.368333,459.657299
194.429580,4663.297435,10436.903782,1302.362347
194.429901,3552.988522,11029.068536,-383.047749
194.430222,3627.009116,10955.047942,0.000000
194.430543,4737.318029,10140.821405,306.438199
194.430863,4737.318029,8808.450710,76.609550
194.431184,3330.926739,8142.265362,1838.629195
194.431505,2738.761985,7772.162391,1455.581446
194.431825,2886.803174,6883.915261,0.000000
194.432146,4589.276840,7031.956449,-919.314598
194.432467,5329.482782,7698.141797,-995.924147
194.432787,4441.235652,8660.409521,0.000000
194.433108,5625.565159,8364.327145,-229.828649
194.433429,6291.750507,8660.409521,-306.438199
194.433750,6957.935855,9030.512492,-1072.533697
194.434070,7105.977043,9326.594869,-995.924147
194.434391,7846.182985,10362.883188,536.266849
194.434712,6439.791695,8216.285956,-229.828649
194.435032,6069.688724,5181.441594,-306.438199
194.435353,6439.791695,5625.565159,766.095498
194.435674,6439.791695,8734.430116,306.438199
194.435994,2072.576638,7846.182985,0.000000
194.436315,4737.318029,5921.647536,-1455.581446
194.436636,8882.471304,6069.688724,-612.876398
194.436956,3849.070898,5477.523971,459.657299
194.437277,2442.679609,4885.359217,-612.876398
194.437598,4589.276840,6587.832884,-1608.800546
194.437919,4293.194464,7550.100608,-1302.362347
194.438239,7179.997637,9844.739029,919.314598
194.438560,8438.347739,10658.965565,0.000000
194.438881,5403.503377,10436.903782,-3447.429741
194.439201,5033.400406,10881.027347,-995.924147
194.439522,5625.565159,9992.780217,1532.190996
194.439843,5773.606348,7772.162391,1455.581446
194.440163,3256.906145,4441.235652,2068.457845
194.440484,3849.070898,4071.132681,306.438199
194.440805,2590.720797,7550.100608,-1072.533697
194.441126,2738.761985,8660.409521,383.047749
194.441446,4737.318029,8364.327145,306.438199
194.441767,5847.626942,5773.606348,229.828649
194.442088,5551.544565,5329.482782,766.095498
194.442408,5403.503377,7772.162391,766.095498
194.442729,4219.173869,9252.574275,-1302.362347
194.443050,5181.441594,10807.006753,-3140.991542
194.443370,6217.729913,10658.965565,-1838.629195
194.443691,7550.100608,10362.883188,0.000000
194.444012,7920.203579,10214.842000,1532.190996
194.444333,5551.544565,10140.821405,1225.752797
194.444653,2664.741391,7698.141797,-1302.362347
194.444974,3034.844362,6143.709319,-1762.019645
194.445295,5033.400406,6513.812290,-306.438199
194.445615,5181.441594,6661.853478,1302.362347
194.445936,6439.791695,6883.915261,2298.286494
194.446257,5181.441594,7846.182985,536.266849
194.446577,2886.803174,8142.265362,-689.485948
194.446898,2368.659014,7328.038826,-153.219100
194.447219,6365.771101,7920.203579,153.219100
194.447539,6069.688724,7179.997637,-459.657299
194.447860,4663.297435,7105.977043,-229.828649
194.448181,5847.626942,10584.944971,689.485948
194.448502,6439.791695,12583.501014,459.657299
194.448822,1702.473667,10288.862594,306.438199
194.449143,4811.338623,6883.915261,-536.266849
194.449464,7550.100608,4959.379811,-536.266849
194.449784,4959.379811,6365.771101,689.485948
194.450105,3256.906145,5477.523971,842.705048
194.450426,5033.400406,5699.585753,-1072.533697
194.450746,4441.235652,5625.565159,-766.095498
194.451067,6143.709319,7254.018232,1532.190996
194.451388,7031.956449,7476.080014,1685.410096
194.451709,4589.276840,6513.812290,-3064.381992
194.452029,4515.256246,8142.265362,-3140.991542
194.452350,4959.379811,10066.800811,-1378.971896
194.452671,6217.729913,10288.862594,153.219100
194.452991,5847.626942,7994.224174,1072.533697
194.453312,6217.729913,7846.182985,-1532.190996
194.453633,2664.741391,8808.450710,-1991.848295
194.453953,2294.638420,8734.430116,-995.924147
194.454274,3849.070898,7179.997637,153.219100
194.454595,5921.647536,6365.771101,229.828649
194.454916,5921.647536,6735.874072,1455.581446
194.455236,4663.297435,7105.977043,1302.362347
194.455557,3478.967927,7402.059420,-766.095498
194.455878,3404.947333,8068.244768,-153.219100
194.456198,4441.235652,7920.203579,-459.657299
194.456519,6587.832884,8660.409521,-229.828649
194.456840,7550.100608,9918.759623,1455.581446
194.457160,7105.977043,10881.027347,689.485948
194.457481,4737.318029,10807.006753,-383.047749
194.457802,2960.823768,8142.265362,-2145.067394
194.458123,3923.091493,7328.038826,-1915.238745
194.458443,5847.626942,6883.915261,1302.362347
194.458764,6957.935855,7031.956449,1532.190996
194.459085,7031.956449,7920.203579,0.000000
194.459405,5107.421000,8512.368333,-1532.190996
194.459726,3330.926739,7920.203579,-1762.019645
194.460047,5329.482782,7698.141797,842.705048
194.460367,7031.956449,5477.523971,689.485948
194.460688,6735.874072,4589.276840,-229.828649
194.461009,7254.018232,7476.080014,0.000000
194.461330,7698.141797,11843.295072,-459.657299
194.461650,4145.153275,11769.274478,-306.438199
194.461971,6513.812290,8364.327145,-1072.533697
194.462292,8290.306550,6365.771101,-612.876398
194.462612,5107.421000,5699.585753,536.266849
194.462933,3701.029710,6069.688724,1072.533697
194.463254,3849.070898,6661.853478,-612.876398
194.463574,3404.947333,7031.956449,-2604.724693
194.463895,5773.606348,7402.059420,-919.314598
194.464216,5921.647536,7846.182985,459.657299
194.464537,4219.173869,7328.038826,-919.314598
194.464857,3478.967927,7550.100608,-766.095498
194.465178,3330.926739,8438.347739,-612.876398
194.465499,4885.359217,10288.862594,-153.219100
194.465819,3182.885551,9252.574275,1685.410096
194.466140,4737.318029,9178.553681,-383.047749
194.466461,4515.256246,10881.027347,-612.876398
194.466781,1480.411884,10066.800811,-306.438199
194.467102,1850.514855,7846.182985,0.000000
194.467423,2812.782580,6291.750507,0.000000
194.467744,5033.400406,8438.347739,612.876398
194.468064,4737.318029,9400.615463,1455.581446
194.468385,2886.803174,7920.203579,-536.266849
194.468706,3997.112087,8512.368333,-2221.676944
194.469026,3997.112087,7624.121203,-383.047749
194.469347,4737.318029,7698.141797,383.047749
194.469668,7105.977043,8586.388927,0.000000
194.469988,7550.100608,9326.594869,76.609550
194.470309,7031.956449,10214.842000,-383.047749
194.470630,6587.832884,9918.759623,-766.095498
194.470951,5181.441594,9104.533087,-1302.362347
194.471271,5181.441594,7698.141797,-459.657299
194.471592,6809.894666,6143.709319,1455.581446
194.471913,7624.121203,5995.668130,1915.238745
194.472233,7031.956449,7550.100608,536.266849
194.472554,5403.503377,8364.327145,-536.266849
194.472875,5255.462188,7846.182985,-1225.752797
194.473195,5033.400406,6957.935855,0.000000
194.473516,4589.276840,4663.297435,1608.800546
194.473837,6143.709319,4885.359217,1532.190996
194.474158,6217.729913,9104.533087,-306.438199
194.474478,3256.906145,10955.047942,-2145.067394
194.474799,3330.926739,10288.862594,-2604.724693
194.475120,7031.956449,8290.306550,-919.314598
194.475440,5255.462188,7994.224174,459.657299
194.475761,3701.029710,6661.853478,1302.362347
194.476082,4367.215058,6957.935855,766.095498
194.476402,4145.153275,7328.038826,-842.705048
194.476723,4367.215058,6661.853478,-1225.752797
194.477044,7698.141797,6809.894666,-383.047749
194.477365,5773.606348,6069.688724,-1455.581446
194.477685,4737.318029,7624.121203,-766.095498
194.478006,5847.626942,8512.368333,1378.971896
194.478327,6809.894666,9030.512492,-229.828649
194.478647,5033.400406,7476.080014,-1225.752797
194.478968,5625.565159,8142.265362,-919.314598
194.479289,5403.503377,9770.718434,0.000000
194.479609,3552.988522,10140.821405,1225.752797
194.479930,4515.256246,9400.615463,766.095498
194.480251,3627.009116,7105.977043,-995.924147
194.480572,3404.947333,7254.018232,-1608.800546
194.480892,4959.379811,8216.285956,459.657299
194.481213,3923.091493,8512.368333,-229.828649
194.481534,5107.421000,7624.121203,-919.314598
194.481854,4737.318029,7476.080014,0.000000
194.482175,4293.194464,7920.203579,0.000000
194.482496,5477.523971,8734.430116,1072.533697
194.482816,5551.544565,9770.718434,995.924147
194.483137,5847.626942,10436.903782,-1838.629195
194.483458,5403.503377,10732.986159,-2298.286494
194.483779,6365.771101,10658.965565,0.000000
194.484099,5033.400406,9770.718434,536.266849
194.484420,4071.132681,9326.594869,1685.410096
194.484741,3330.926739,7624.121203,1072.533697
194.485061,3552.988522,7328.038826,-536.266849
194.485382,3404.947333,7698.141797,-383.047749
194.485703,2812.782580,8364.327145,-459.657299
194.486023,4737.318029,7698.141797,459.657299
194.486344,3701.029710,5995.668130,612.876398
194.486665,2812.782580,4959.379811,1225.752797
194.486986,4663.297435,7772.162391,1302.362347
194.487306,4293.194464,10436.903782,-919.314598
194.487627,2072.576638,10436.903782,-2068.457845
194.487948,6365.771101,9474.636058,-1149.143247
194.488268,7698.141797,8364.327145,842.705048
194.488589,5255.462188,8586.388927,229.828649
194.488910,5181.441594,7624.121203,-612.876398
194.489230,3182.885551,7328.038826,-1991.848295
194.489551,4145.153275,7031.956449,-1149.143247
194.489872,5181.441594,7328.038826,1072.533697
194.490193,5551.544565,7920.203579,153.219100
194.490513,4145.153275,6957.935855,-1762.019645
194.490834,2960.823768,7624.121203,-612.876398
194.491155,3849.070898,8956.491898,0.000000
194.491475,4219.173869,8142.265362,1378.971896
194.491796,3849.070898,6809.894666,766.095498
194.492117,6883.915261,9030.512492,-536.266849
194.492437,5329.482782,10362.883188,-459.657299
194.492758,5107.421000,10140.821405,766.095498
194.493079,6069.688724,7698.141797,995.924147
194.493400,5773.606348,5329.482782,-689.485948
194.493720,5255.462188,6735.874072,306.438199
194.494041,5033.400406,6809.894666,0.000000
194.494362,5773.606348,6735.874072,-1532.190996
194.494682,7772.162391,7846.182985,-612.876398
194.495003,6735.874072,7105.977043,-536.266849
194.495324,6439.791695,6735.874072,0.000000
194.495645,5699.585753,7624.121203,1225.752797
194.495965,5033.400406,9030.512492,919.314598
194.496286,5699.585753,9252.574275,-689.485948
194.496607,6439.791695,9178.553681,-1378.971896
194.496927,6217.729913,10584.944971,-1378.971896
194.497248,5107.421000,9844.739029,0.000000
194.497569,4737.318029,8882.471304,766.095498
194.497889,4145.153275,7920.203579,229.828649
194.498210,3108.864956,7031.956449,0.000000
194.498531,2590.720797,7254.018232,0.000000
194.498852,4219.173869,8290.306550,-536.266849
194.499172,3182.885551,6883.915261,-1532.190996
194.499493,3627.009116,6883.915261,0.000000
194.499814,5181.441594,8882.471304,1685.410096
194.500134,3997.112087,9770.718434,1225.752797
194.500455,3775.050304,9474.636058,-842.705048
194.500776,6365.771101,9178.553681,-2068.457845
194.501096,6217.729913,10288.862594,-1762.019645
194.501417,5107.421000,9474.636058,0.000000
194.501738,4811.338623,8216.285956,153.219100
194.502059,6069.688724,8068.244768,689.485948
194.502379,5107.421000,6439.791695,-153.219100
194.502700,4737.318029,7254.018232,-459.657299
194.503021,3997.112087,7254.018232,-1915.238745
194.503341,3034.844362,7105.977043,-2451.505594
194.503662,4367.215058,6291.750507,-689.485948
194.503983,7254.018232,7105.977043,0.000000
194.504303,5403.503377,8068.244768,459.657299
194.504624,2442.679609,7105.977043,-383.047749
194.504945,3627.009116,8068.244768,-2451.505594
194.505266,4145.153275,10584.944971,-1838.629195
194.505586,5773.606348,11251.130318,-383.047749
194.505907,8364.327145,10066.800811,383.047749
194.506228,7402.059420,8512.368333,-1072.533697
194.506548,5255.462188,9696.697840,-1149.143247
194.506869,2220.617826,8142.265362,-153.219100
194.507190,2960.823768,6069.688724,-306.438199
194.507510,5625.565159,7105.977043,919.314598
194.507831,3849.070898,6957.935855,153.219100
194.508152,4145.153275,6735.874072,-842.705048
194.508473,4515.256246,7624.121203,-229.828649
194.508793,3034.844362,7550.100608,1072.533697
194.509114,3775.050304,6587.832884,612.876398
194.509435,7698.141797,8290.306550,-612.876398
194.509755,5477.523971,10140.821405,-1608.800546
194.510076,5033.400406,11103.089130,-1225.752797
194.510397,7994.224174,9770.718434,153.219100
194.510717,8142.265362,8512.368333,0.000000
194.511038,6809.894666,8882.471304,0.000000
194.511359,5477.523971,7698.141797,-536.266849
194.511680,3478.967927,6661.853478,-2145.067394
194.512000,4293.194464,7254.018232,-153.219100
194.512321,4589.276840,7402.059420,1685.410096
194.512642,4663.297435,5921.647536,383.047749
194.512962,4367.215058,6439.791695,-383.047749
194.513283,3478.967927,9918.759623,-459.657299
194.513604,1924.535449,9844.739029,842.705048
194.513924,4589.276840,7328.038826,1991.848295
194.514245,6809.894666,8364.327145,842.705048
194.514566,4811.338623,9696.697840,-1149.143247
194.514887,4071.132681,8956.491898,-1455.581446
194.515207,6365.771101,9326.594869,-383.047749
194.515528,6735.874072,8290.306550,1762.019645
194.515849,3923.091493,6069.688724,1455.581446
194.516169,4367.215058,4959.379811,-995.924147
194.516490,4071.132681,5625.565159,-2221.676944
194.516811,4071.132681,7328.038826,0.000000
194.517131,7772.162391,8364.327145,689.485948
194.517452,7994.224174,7920.203579,-842.705048
194.517773,4959.379811,6069.688724,-1149.143247
194.518094,5551.544565,6217.729913,536.266849
194.518414,7920.203579,8216.285956,1378.971896
194.518735,6069.688724,8290.306550,536.266849
194.519056,5403.503377,6069.688724,-995.924147
194.519376,7476.080014,5181.441594,-1608.800546
194.519697,8290.306550,7920.203579,-459.657299
194.520018,6365.771101,9104.533087,1762.019645
194.520338,7624.121203,7698.141797,-689.485948
194.520659,7624.121203,5773.606348,-2298.286494
194.520980,4589.276840,4515.256246,-1225.752797
194.521301,6809.894666,3849.070898,1915.238745
194.521621,8660.409521,4737.318029,1915.238745
194.521942,8438.347739,7031.956449,76.609550
194.522263,9474.636058,9474.636058,-689.485948
194.522583,8290.306550,9104.533087,-1762.019645
194.522904,7328.038826,7254.018232,-1532.190996
194.523225,8808.450710,7105.977043,2451.505594
194.523545,7402.059420,6217.729913,1762.019645
194.523866,8216.285956,6143.709319,-766.095498
194.524187,6661.853478,5477.523971,-383.047749
194.524508,4737.318029,4515.256246,-1072.533697
194.524828,6439.791695,5625.565159,536.266849
194.525149,6735.874072,7772.162391,1991.848295
194.525470,5995.668130,9548.656652,-536.266849
194.525790,7105.977043,8808.450710,-1455.581446
194.526111,8216.285956,7328.038826,-1838.629195
194.526432,8512.368333,5625.565159,-995.924147
194.526752,7328.038826,5329.482782,842.705048
194.527073,7624.121203,6513.812290,1915.238745
194.527394,8512.368333,9178.553681,0.000000
194.527715,8290.306550,8142.265362,842.705048
194.528035,9474.636058,5403.503377,229.828649
194.528356,11325.150913,2220.617826,612.876398
194.528677,10807.006753,2294.638420,842.705048
194.528997,9622.677246,2590.720797,0.000000
194.529318,10881.027347,2812.782580,-995.924147
194.529639,13101.645173,3552.988522,-1072.533697
194.529959,14137.933492,5921.647536,0.000000
194.530280,13471.748144,6587.832884,153.219100
194.530601,11843.295072,6365.771101,-2068.457845
194.530922,10807.006753,4663.297435,-2604.724693
194.531242,11103.089130,3404.947333,0.000000
194.531563,11547.212695,2664.741391,995.924147
194.531884,10510.924376,2442.679609,689.485948
194.532204,6735.874072,2368.659014,-1762.019645
194.532525,7179.997637,3849.070898,-2604.724693
194.532846,7105.977043,5033.400406,-153.219100
194.533166,9326.594869,6809.894666,2298.286494
194.533487,8956.491898,7402.059420,2221.676944
194.533808,9104.533087,8734.430116,612.876398
194.534129,7624.121203,9474.636058,-1072.533697
194.534449,6587.832884,7550.100608,-1532.190996
194.534770,6365.771101,4367.215058,0.000000
194.535091,9030.512492,3627.009116,536.266849
194.535411,8882.471304,5181.441594,2221.676944
194.535732,9030.512492,6217.729913,1149.143247
194.536053,7994.224174,4737.318029,-1302.362347
194.536373,9844.739029,3182.885551,-995.924147
194.536694,11177.109724,2960.823768,1532.190996
194.537015,11695.253884,3997.112087,2604.724693
194.537336,13767.830521,4959.379811,995.924147
194.537656,14063.912898,5773.606348,-842.705048
194.537977,12731.542202,4811.338623,-1608.800546
194.538298,12435.459826,4589.276840,-1532.190996
194.538618,11399.171507,4071.132681,-1225.752797
194.538939,10881.027347,5403.503377,-1915.238745
194.539260,10955.047942,7328.038826,-1225.752797
194.539580,8956.491898,6365.771101,-1302.362347
194.539901,7624.121203,3923.091493,-919.314598
194.540222,7254.018232,4071.132681,383.047749
194.540543,5551.544565,6735.874072,229.828649
194.540863,5107.421000,8734.430116,383.047749
194.541184,6291.750507,9178.553681,383.047749
194.541505,7698.141797,7698.141797,0.000000
194.541825,6439.791695,7105.977043,1072.533697
194.542146,5477.523971,7328.038826,1455.581446
194.542467,5181.441594,8290.306550,612.876398
194.542787,5921.647536,7105.977043,229.828649
194.543108,7476.080014,6439.791695,0.000000
194.543429,8808.450710,5255.462188,919.314598
194.543750,7402.059420,5107.421000,1608.800546
194.544070,7624.121203,5403.503377,1991.848295
194.544391,9548.656652,4515.256246,689.485948
194.544712,11695.253884,2886.803174,0.000000
194.545032,11547.212695,2590.720797,0.000000
194.545353,12583.501014,3108.864956,-612.876398
194.545674,12287.418637,5329.482782,-842.705048
194.545994,12287.418637,6143.709319,-1762.019645
194.546315,13027.624579,5625.565159,-3140.991542
194.546636,13693.809927,4589.276840,-3064.381992
194.546957,11843.295072,4515.256246,-1608.800546
194.547277,9474.636058,5329.482782,-229.828649
194.547598,7031.956449,4589.276840,-306.438199
194.547919,7846.182985,4071.132681,0.000000
194.548239,8290.306550,4663.297435,612.876398
194.548560,7402.059420,5403.503377,-689.485948
194.548881,6957.935855,7624.121203,-1302.362347
194.549201,6513.812290,7476.080014,-459.657299
194.549522,6513.812290,6883.915261,612.876398
194.549843,7772.162391,5773.606348,1608.800546
194.550164,8808.450710,7031.956449,1532.190996
194.550484,7994.224174,7772.162391,689.485948
194.550805,7031.956449,7179.997637,1072.533697
194.551126,8364.327145,5033.400406,1378.971896
194.551446,10288.862594,3404.947333,1455.581446
194.551767,11103.089130,2960.823768,766.095498
194.552088,11399.171507,3627.009116,0.000000
194.552408,11991.336260,4293.194464,-842.705048
194.552729,11843.295072,3108.864956,-612.876398
194.553050,13619.789333,1628.453072,76.609550
194.553370,15692.365970,2368.659014,1072.533697
194.553691,15174.221811,5033.400406,-612.876398
194.554012,12583.501014,6439.791695,-2068.457845
194.554332,11621.233289,5107.421000,-2757.943793
194.554653,12065.356855,2812.782580,-2221.676944
194.554974,12361.439231,2516.700203,153.219100
194.555294,10436.903782,3923.091493,-919.314598
194.555615,8068.244768,6735.874072,-3064.381992
194.555936,6735.874072,6513.812290,-3064.381992
194.556256,6587.832884,6291.750507,-306.438199
194.556577,7624.121203,5625.565159,1838.629195
194.556898,6291.750507,6365.771101,1915.238745
194.557218,5181.441594,8586.388927,-383.047749
194.557539,5255.462188,9548.656652,-1838.629195
194.557860,5255.462188,8882.471304,-842.705048
194.558180,5773.606348,6883.915261,842.705048
194.558501,6883.915261,6217.729913,2451.505594
194.558822,6513.812290,7105.977043,1915.238745
194.559142,6365.771101,7476.080014,306.438199
194.559463,7254.018232,7179.997637,-383.047749
194.559784,9104.533087,5995.668130,229.828649
194.560104,9844.739029,5329.482782,2451.505594
194.560425,10288.862594,5477.523971,3140.991542
194.560746,10807.006753,5329.482782,1072.533697
194.561066,10658.965565,4219.173869,-842.705048
194.561387,11177.109724,2886.803174,-1991.848295
194.561708,12287.418637,2368.659014,-1685.410096
194.562028,12657.521608,3997.112087,-842.705048
194.562349,12879.583391,7031.956449,-766.095498
194.562670,11991.336260,7624.121203,-1532.190996
194.562990,11917.315666,6809.894666,-2068.457845
194.563311,10732.986159,4293.194464,-995.924147
194.563632,9326.594869,1850.514855,-536.266849
194.563952,9326.594869,1702.473667,-1532.190996
194.564273,9326.594869,4441.235652,-2221.676944
194.564594,9548.656652,6809.894666,-1225.752797
194.564914,9252.574275,8438.347739,-383.047749
194.565235,8586.388927,7772.162391,383.047749
194.565556,7624.121203,6883.915261,1608.800546
194.565876,6291.750507,5625.565159,1532.190996
194.566197,5329.482782,4145.153275,1455.581446
194.566518,6513.812290,3256.906145,995.924147
194.566838,8512.368333,3849.070898,1608.800546
194.567159,9178.553681,4959.379811,2145.067394
194.567480,9326.594869,6513.812290,1149.143247
194.567800,9400.615463,6957.935855,0.000000
194.568121,9474.636058,5847.626942,-842.705048
194.568442,10658.965565,3775.050304,766.095498
194.568762,11843.295072,1554.432478,1532.190996
194.569083,11769.274478,1480.411884,995.924147
194.569404,11399.171507,3182.885551,-1225.752797
194.569724,11029.068536,5181.441594,-3294.210641
194.570045,11547.212695,7328.038826,-3217.601092
194.570366,12509.480420,7994.224174,-1532.190996
194.570686,12509.480420,7179.997637,0.000000
194.571007,10807.006753,5699.585753,459.657299
194.571328,8808.450710,4367.215058,229.828649
194.571648,7328.038826,3923.091493,-612.876398
194.571969,7031.956449,4071.132681,-842.705048
194.572290,7328.038826,4145.153275,-383.047749
194.572610,7994.224174,5255.462188,0.000000
194.572931,8438.347739,6957.935855,-383.047749
194.573252,8142.265362,8142.265362,-612.876398
194.573572,7772.162391,8364.327145,-383.047749
194.573893,8068.244768,7105.977043,995.924147
194.574214,7846.182985,6143.709319,2298.286494
194.574534,7254.018232,5921.647536,1915.238745
194.574855,7846.182985,6809.894666,306.438199
194.575176,7920.203579,7624.121203,-766.095498
194.575496,8068.244768,7179.997637,-1302.362347
194.575817,8882.471304,4959.379811,-689.485948
194.576138,9844.739029,4071.132681,-153.219100
194.576458,9400.615463,3997.112087,919.314598
194.576779,8438.347739,5181.441594,1608.800546
194.577100,8586.388927,6143.709319,1072.533697
194.577420,9696.697840,5773.606348,-153.219100
194.577741,10510.924376,5107.421000,-536.266849
194.578062,10584.944971,5551.544565,-1302.362347
194.578382,10214.842000,6735.874072,-2145.067394
194.578703,9696.697840,7624.121203,-1532.190996
194.579024,9400.615463,7476.080014,-1455.581446
194.579344,9696.697840,5995.668130,-842.705048
194.579665,9696.697840,4663.297435,-383.047749
194.579986,9030.512492,3775.050304,0.000000
194.580306,8142.265362,3552.988522,153.219100
194.580627,9030.512492,2590.720797,0.000000
194.580948,10436.903782,2590.720797,-383.047749
194.581268,10584.944971,3775.050304,76.609550
194.581589,10288.862594,5847.626942,-689.485948
194.581910,9918.759623,7328.038826,-995.924147
194.582230,10510.924376,7994.224174,-689.485948
194.582551,10955.047942,7772.162391,0.000000
194.582872,10362.883188,6883.915261,229.828649
194.583192,9178.553681,5477.523971,383.047749
194.583513,7994.224174,4441.235652,1149.143247
194.583834,7254.018232,4145.153275,1915.238745
194.584154,7476.080014,4071.132681,2298.286494
194.584475,8364.327145,3923.091493,1072.533697
194.584796,8512.368333,4663.297435,536.266849
194.585116,7994.224174,4367.215058,76.609550
194.585437,8808.450710,3997.112087,0.000000
194.585758,10214.842000,4367.215058,-842.705048
194.586078,10436.903782,5625.565159,-1378.971896
194.586399,10732.986159,7550.100608,-1532.190996
194.586720,11325.150913,8734.430116,-1302.362347
194.587040,11177.109724,8068.244768,-766.095498
194.587361,10362.883188,7105.977043,153.219100
194.587682,10140.821405,5181.441594,383.047749
194.588002,9622.677246,3997.112087,229.828649
194.588323,8068.244768,3256.906145,76.609550
194.588644,8586.388927,2516.700203,612.876398
194.588964,8956.491898,2442.679609,766.095498
194.589285,9696.697840,2886.803174,919.314598
194.589606,9326.594869,5329.482782,383.047749
194.589926,9622.677246,7179.997637,-153.219100
194.590247,9400.615463,8660.409521,-383.047749
194.590568,8882.471304,8586.388927,229.828649
194.590888,7624.121203,8734.430116,612.876398
194.591209,6217.729913,8142.265362,1225.752797
194.591530,4811.338623,8216.285956,459.657299
194.591850,3849.070898,7550.100608,0.000000
194.592171,3997.112087,6143.709319,-459.657299
194.592492,3478.967927,5699.585753,0.000000
194.592812,3330.926739,6365.771101,1149.143247
194.593133,3627.009116,8142.265362,1838.629195
194.593454,4441.235652,9992.780217,2221.676944
194.593774,5477.523971,10807.006753,2604.724693
194.594095,6439.791695,10584.944971,3294.210641
194.594416,6143.709319,10140.821405,2604.724693
194.594736,5551.544565,8956.491898,2221.676944
194.595057,5773.606348,8808.450710,2451.505594
194.595378,5995.668130,9548.656652,2298.286494
194.595698,6735.874072,9918.759623,2298.286494
194.596019,6809.894666,10288.862594,2528.115143
194.596340,6661.853478,9252.574275,2451.505594
194.596660,5773.606348,8290.306550,4136.915689
194.596981,5995.668130,7550.100608,5056.230287
194.597302,5921.647536,7698.141797,5132.839837
194.597622,6513.812290,7254.018232,5132.839837
194.597943,6883.915261,8660.409521,5515.887586
194.598264,6735.874072,9400.615463,6205.373534
194.598584,6809.894666,9474.636058,7048.078582
194.598905,6365.771101,9622.677246,7584.345430
194.599226,6513.812290,8808.450710,7354.516781
194.599546,6513.812290,8364.327145,7201.297681
194.599867,5847.626942,7105.977043,6971.469032
194.600188,5403.503377,5773.606348,6741.640382
194.600508,5033.400406,5033.400406,7277.907231
194.600829,5181.441594,5625.565159,6741.640382
194.601150,5995.668130,6809.894666,6588.421283
194.601470,5995.668130,7328.038826,6894.859482
194.601791,5847.626942,7105.977043,6894.859482
194.602112,5773.606348,7105.977043,7431.126331
194.602432,5847.626942,6365.771101,8120.612279
194.602753,5329.482782,6217.729913,8197.221829
194.603074,4663.297435,5477.523971,7660.954980
194.603394,3997.112087,5403.503377,6971.469032
194.603715,3256.906145,5477.523971,6128.763984
194.604036,2960.823768,5107.421000,5975.544884
194.604356,2812.782580,4959.379811,6052.154434
194.604677,3182.885551,4811.338623,5745.716235
194.604998,3034.844362,6365.771101,5822.325785
194.605318,2590.720797,7031.956449,5822.325785
194.605639,2960.823768,7698.141797,6052.154434
194.605960,4071.132681,8882.471304,7201.297681
194.606280,3627.009116,8882.471304,6358.592633
194.606601,3182.885551,7624.121203,5439.278036
194.606922,2812.782580,6365.771101,5132.839837
194.607242,2738.761985,5033.400406,5669.106685
194.607563,2516.700203,4959.379811,5286.058936
194.607884,2738.761985,4589.276840,5286.058936
194.608204,3108.864956,5847.626942,3983.696590
194.608525,3478.967927,6513.812290,3370.820191
194.608846,4589.276840,7698.141797,3370.820191
194.609166,5551.544565,7698.141797,4290.134789
194.609487,6365.771101,9474.636058,3064.381992
194.609808,6661.853478,11103.089130,2374.896044
194.610128,7328.038826,11325.150913,2834.553343
194.610449,7179.997637,11177.109724,4749.792088
194.610770,6661.853478,10288.862594,5669.106685
194.611090,5625.565159,9844.739029,5592.497135
194.611411,5181.441594,9326.594869,4673.182538
194.611732,3849.070898,7328.038826,3830.477490
194.612052,3108.864956,4589.276840,1991.848295
194.612373,3627.009116,2368.659014,1685.410096
194.612694,5033.400406,2812.782580,766.095498
194.613014,6217.729913,7031.956449,0.000000
194.613335,7476.080014,12287.418637,-689.485948
194.613656,9474.636058,16210.510130,-1991.848295
194.613976,10658.965565,17912.983796,-306.438199
194.614297,10362.883188,17024.736666,2221.676944
194.614618,8882.471304,13989.892304,4749.792088
194.614938,6735.874072,9696.697840,5822.325785
194.615259,5403.503377,7698.141797,6281.983084
194.615580,4737.318029,7328.038826,7124.688131
194.615900,1480.411884,7550.100608,5745.716235
194.616221,814.226536,7105.977043,4443.353888
194.616542,2220.617826,6069.688724,3983.696590
194.616862,3256.906145,5181.441594,3140.991542
194.617183,4663.297435,5699.585753,3140.991542
194.617504,6735.874072,8364.327145,3217.601092
194.617824,6809.894666,12361.439231,2604.724693
194.618145,6439.791695,14730.098246,2374.896044
194.618466,7624.121203,15766.386565,2221.676944
194.618786,9918.759623,14804.118840,2681.334243
194.619107,7846.182985,11547.212695,4213.525239
194.619428,4737.318029,6217.729913,5515.887586
194.619749,5847.626942,3701.029710,6894.859482
194.620069,2072.576638,4071.132681,7124.688131
194.620390,2368.659014,5255.462188,6205.373534
194.620711,4071.132681,7476.080014,4136.915689
194.621031,5181.441594,7328.038826,4136.915689
194.621352,3701.029710,5477.523971,6281.983084
194.621673,5551.544565,5181.441594,9576.193725
194.621993,6735.874072,8290.306550,9729.412825
194.622314,4441.235652,11917.315666,7201.297681
194.622635,2368.659014,11473.192101,4136.915689
194.622955,4589.276840,9326.594869,3447.429741
194.623276,5329.482782,7179.997637,6128.763984
194.623597,5255.462188,5699.585753,10418.898773
194.623917,5033.400406,7105.977043,10955.165621
194.624238,296.082377,7550.100608,6741.640382
194.624559,0.000000,6883.915261,4903.011187
194.624879,2294.638420,3701.029710,7048.078582
194.625200,3923.091493,1480.411884,8273.831378
194.625521,3701.029710,1850.514855,7584.345430
194.625841,6143.709319,5477.523971,6281.983084
194.626162,6217.729913,9918.759623,4979.620737
194.626483,3923.091493,11547.212695,5209.449386
194.626803,4737.318029,8364.327145,5898.935335
194.627124,5403.503377,5921.647536,5592.497135
194.627445,2886.803174,5107.421000,6281.983084
194.627765,2072.576638,5033.400406,8350.440928
194.628086,5847.626942,6513.812290,8580.269578
194.628407,3923.091493,8956.491898,6205.373534
194.628727,2886.803174,11325.150913,3907.087040
194.629048,3478.967927,11103.089130,2681.334243
194.629369,5329.482782,8808.450710,4060.306139
194.629689,4589.276840,5255.462188,6358.592633
194.630010,5107.421000,3256.906145,7814.174080
194.630331,5699.585753,4737.318029,7201.297681
194.630651,3849.070898,7624.121203,6358.592633
194.630972,3034.844362,8364.327145,4903.011187
194.631293,4811.338623,7772.162391,3753.867940
194.631613,6513.812290,8512.368333,4290.134789
194.631934,4515.256246,9326.594869,6205.373534
194.632255,5625.565159,10584.944971,6435.202183
194.632575,7179.997637,10658.965565,3830.477490
194.632896,6513.812290,9104.533087,459.657299
194.633217,4737.318029,7031.956449,-1149.143247
194.633537,6809.894666,7254.018232,1762.019645
194.633858,8216.285956,10584.944971,6511.811733
194.634179,7105.977043,12879.583391,7890.783629
194.634499,7772.162391,11843.295072,6052.154434
194.634820,7994.224174,10881.027347,3370.820191
194.635141,5921.647536,10362.883188,4673.182538
194.635461,4293.194464,8734.430116,8120.612279
194.635782,4811.338623,7550.100608,7660.954980
194.636103,4885.359217,7105.977043,4979.620737
194.636423,3627.009116,7772.162391,4979.620737
194.636744,3552.988522,8142.265362,5515.887586
194.637065,4367.215058,9104.533087,5592.497135
194.637385,3552.988522,10510.924376,4673.182538
194.637706,4367.215058,10955.047942,3907.087040
194.638027,6439.791695,10881.027347,4749.792088
194.638347,6069.688724,10732.986159,5745.716235
194.638668,4663.297435,9992.780217,5745.716235
194.638989,5921.647536,9770.718434,4136.915689
194.639309,5181.441594,9474.636058,3600.648841
194.639630,4219.173869,8586.388927,3830.477490
194.639951,5847.626942,7328.038826,5362.668486
194.640271,6291.750507,7920.203579,5286.058936
194.640592,3997.112087,7846.182985,5822.325785
194.640913,2442.679609,6143.709319,5975.544884
194.641233,4071.132681,4145.153275,4519.963438
194.641554,4959.379811,3775.050304,4366.744339
194.641875,5033.400406,6143.709319,5132.839837
194.642195,5921.647536,8660.409521,5362.668486
194.642516,5477.523971,10140.821405,5592.497135
194.642837,3997.112087,8956.491898,6435.202183
194.643157,4367.215058,7105.977043,5515.887586
194.643478,5329.482782,6809.894666,4596.572988
194.643799,3849.070898,7105.977043,4136.915689
194.644119,2738.761985,7476.080014,4979.620737
194.644440,3775.050304,6143.709319,4290.134789
194.644761,3552.988522,3404.947333,3524.039291
194.645081,3552.988522,2812.782580,3677.258390
194.645402,4959.379811,6513.812290,4903.011187
194.645723,4663.297435,9548.656652,4366.744339
194.646043,3404.947333,8956.491898,3140.991542
194.646364,6217.729913,7031.956449,3217.601092
194.646685,8068.244768,6513.812290,5439.278036
194.647005,6217.729913,8068.244768,7584.345430
194.647326,3997.112087,9474.636058,6665.030833
194.647647,2664.741391,9104.533087,2451.505594
194.647967,4071.132681,6513.812290,2145.067394
194.648288,4885.359217,4293.194464,4903.011187
194.648609,6439.791695,5033.400406,6971.469032
194.648929,5181.441594,9252.574275,5592.497135
194.649250,2960.823768,11547.212695,2145.067394
194.649571,3775.050304,9622.677246,153.219100
194.649891,6735.874072,7920.203579,3064.381992
194.650212,7105.977043,7846.182985,6971.469032
194.650533,5847.626942,9992.780217,6818.249932
194.650853,4441.235652,10732.986159,2911.162892
194.651174,3775.050304,11177.109724,1072.533697
194.651495,4885.359217,11399.171507,3447.429741
194.651815,6809.894666,10732.986159,5898.935335
194.652136,5107.421000,9104.533087,5439.278036
194.652457,3034.844362,8512.368333,3600.648841
194.652777,3478.967927,8882.471304,4749.792088
194.653098,5625.565159,9548.656652,4903.011187
194.653419,5107.421000,9548.656652,4366.744339
194.653739,5699.585753,10214.842000,4443.353888
194.654060,6217.729913,11399.171507,5439.278036
194.654381,6513.812290,12065.356855,6818.249932
194.654701,6069.688724,9844.739029,6665.030833
194.655022,6735.874072,8216.285956,5286.058936
194.655343,5921.647536,7698.141797,5132.839837
194.655663,5181.441594,7550.100608,6818.249932
194.655984,5995.668130,6217.729913,6588.421283
194.656305,6883.915261,5477.523971,3907.087040
194.656625,5033.400406,5255.462188,2221.676944
194.656946,4811.338623,6143.709319,3447.429741
194.657267,5699.585753,6439.791695,4903.011187
194.657587,7920.203579,6809.894666,4136.915689
194.657908,7402.059420,7105.977043,2528.115143
194.658229,6143.709319,7772.162391,383.047749
194.658549,5329.482782,7550.100608,2145.067394
194.658870,6217.729913,8364.327145,5515.887586
194.659191,5181.441594,7624.121203,5975.544884
194.659511,4885.359217,7476.080014,3677.258390
194.659832,2516.700203,7328.038826,1991.848295
194.660153,2368.659014,7846.182985,4136.915689
194.660473,3330.926739,7476.080014,6971.469032
194.660794,3330.926739,6143.709319,5209.449386
194.661115,1036.288319,4367.215058,2068.457845
194.661435,1628.453072,4737.318029,1915.238745
194.661756,2368.659014,7698.141797,4903.011187
194.662077,2812.782580,7105.977043,6588.421283
194.662397,3182.885551,6735.874072,3064.381992
194.662718,5107.421000,8142.265362,689.485948
194.663039,4737.318029,9770.718434,2834.553343
194.663359,3997.112087,7994.224174,4136.915689
194.663680,6809.894666,5699.585753,2221.676944
194.664001,7772.162391,5329.482782,153.219100
194.664321,6661.853478,5255.462188,306.438199
194.664642,7031.956449,5403.503377,1608.800546
194.664963,8068.244768,5403.503377,1685.410096
194.665283,8586.388927,6735.874072,1762.019645
194.665604,8142.265362,7031.956449,1838.629195
194.665925,8142.265362,8142.265362,1072.533697
194.666245,6291.750507,9474.636058,689.485948
194.666566,5551.544565,9104.533087,0.000000
194.666887,6513.812290,7698.141797,-1991.848295
194.667207,3997.112087,6291.750507,-2451.505594
194.667528,3552.988522,8290.306550,0.000000
194.667849,4293.194464,11621.233289,229.828649
194.668169,962.267725,11547.212695,-2757.943793
194.668490,-296.082377,11843.295072,-2451.505594
194.668811,2738.761985,11621.233289,1838.629195
194.669131,2738.761985,11843.295072,4519.963438
194.669452,1998.556043,10436.903782,2451.505594
194.669773,1850.514855,9400.615463,-2145.067394
194.670093,3849.070898,8512.368333,-2451.505594
194.670414,5107.421000,8586.388927,1149.143247
194.670735,6957.935855,10066.800811,1991.848295
194.671056,7402.059420,10732.986159,0.000000
194.671376,6143.709319,10658.965565,-1302.362347
194.671697,5847.626942,7846.182985,0.000000
194.672018,6735.874072,7624.121203,1455.581446
194.672338,7994.224174,8586.388927,995.924147
194.672659,6143.709319,8216.285956,-3447.429741
194.672980,5181.441594,7105.977043,-6128.763984
194.673300,8660.409521,7328.038826,-3140.991542
194.673621,7624.121203,7698.141797,-459.657299
194.673942,7328.038826,8660.409521,-1608.800546
194.674262,6365.771101,11103.089130,-2528.115143
194.674583,6587.832884,13397.727550,-2451.505594
194.674904,6291.750507,11399.171507,1225.752797
194.675224,7179.997637,9030.512492,2911.162892
194.675545,5403.503377,7105.977043,1378.971896
194.675866,2516.700203,7179.997637,306.438199
194.676186,888.247130,7031.956449,-612.876398
194.676507,3330.926739,6661.853478,-306.438199
194.676828,4515.256246,5699.585753,-536.266849
194.677148,4737.318029,4367.215058,76.609550
194.677469,2886.803174,4293.194464,1455.581446
194.677790,4367.215058,7031.956449,2757.943793
194.678110,4071.132681,9770.718434,1302.362347
194.678431,7179.997637,11177.109724,-1072.533697
194.678752,7105.977043,9770.718434,-1762.019645
194.679072,5773.606348,8808.450710,0.000000
194.679393,5403.503377,6957.935855,919.314598
194.679714,4145.153275,3997.112087,0.000000
194.680034,4145.153275,3330.926739,-2911.162892
194.680355,3997.112087,4811.338623,-3447.429741
194.680676,2590.720797,5403.503377,-2221.676944
194.680996,3701.029710,4885.359217,0.000000
194.681317,6587.832884,6291.750507,1608.800546
194.681638,5995.668130,6957.935855,919.314598
194.681958,4737.318029,8290.306550,-1455.581446
194.682279,5847.626942,11473.192101,-2604.724693
194.682600,5255.462188,12287.418637,-2374.896044
194.682920,4663.297435,9104.533087,-919.314598
194.683241,6365.771101,5477.523971,-689.485948
194.683562,4367.215058,4811.338623,-919.314598
194.683882,2516.700203,7476.080014,919.314598
194.684203,2664.741391,9252.574275,689.485948
194.684524,2738.761985,8808.450710,-2221.676944
194.684844,2590.720797,9400.615463,-1532.190996
194.685165,3701.029710,9326.594869,1915.238745
194.685486,5551.544565,8364.327145,1685.410096
194.685806,3330.926739,7105.977043,766.095498
194.686127,5477.523971,8364.327145,0.000000
194.686448,5477.523971,9548.656652,-1608.800546
194.686768,5403.503377,11029.068536,-1991.848295
194.687089,5921.647536,10658.965565,-689.485948
194.687410,6883.915261,9770.718434,0.000000
194.687730,8512.368333,9992.780217,1762.019645
194.688051,4515.256246,9400.615463,2681.334243
194.688372,3256.906145,8586.388927,536.266849
194.688692,5033.400406,7772.162391,-2145.067394
194.689013,4737.318029,7105.977043,-3140.991542
194.689334,5995.668130,6957.935855,-4060.306139
194.689654,7550.100608,5921.647536,-2528.115143
194.689975,7254.018232,5847.626942,-1838.629195
194.690296,6513.812290,7105.977043,-1838.629195
194.690616,6439.791695,8956.491898,-2451.505594
194.690937,8956.491898,10881.027347,-1378.971896
194.691258,7105.977043,10584.944971,766.095498
194.691578,5329.482782,9770.718434,612.876398
194.691899,6365.771101,10436.903782,0.000000
194.692220,5773.606348,9326.594869,0.000000
194.692540,3404.947333,6291.750507,-536.266849
194.692861,3256.906145,4145.153275,-1991.848295
194.693182,2960.823768,4071.132681,-2681.334243
194.693502,1406.391290,4219.173869,-766.095498
194.693823,3182.885551,4885.359217,1838.629195
194.694144,4885.359217,7179.997637,2911.162892
194.694464,5403.503377,10362.883188,612.876398
194.694785,3552.988522,9548.656652,-2757.943793
194.695106,4145.153275,8734.430116,-3140.991542
194.695426,6291.750507,10214.842000,-229.828649
194.695747,6513.812290,10955.047942,1532.190996
194.696068,5625.565159,9992.780217,-1608.800546
194.696389,4737.318029,9474.636058,-3294.210641
194.696709,2590.720797,9474.636058,-766.095498
194.697030,3182.885551,8290.306550,1915.238745
194.697351,2220.617826,5625.565159,2604.724693
194.697671,3182.885551,5625.565159,1685.410096
194.697992,3627.009116,6735.874072,459.657299
194.698313,4589.276840,8216.285956,0.000000
194.698633,3330.926739,7031.956449,-459.657299
194.698954,5181.441594,6957.935855,-1302.362347
194.699275,7179.997637,8142.265362,-919.314598
194.699595,7624.121203,9622.677246,76.609550
194.699916,6143.709319,10288.862594,766.095498
194.700237,5921.647536,10436.903782,1149.143247
194.700557,6217.729913,10140.821405,919.314598
194.700878,5921.647536,9770.718434,1685.410096
194.701199,4219.173869,9104.533087,1838.629195
194.701519,3775.050304,7550.100608,919.314598
194.701840,3849.070898,6143.709319,536.266849
194.702161,3775.050304,5403.503377,1149.143247
194.702481,814.226536,2664.741391,229.828649
194.702802,3330.926739,2442.679609,459.657299
194.703123,5551.544565,6439.791695,229.828649
194.703443,4515.256246,7698.141797,-1302.362347
194.703764,6217.729913,7698.141797,-2757.943793
194.704085,9474.636058,10436.903782,-1608.800546
194.704405,8364.327145,12139.377449,1149.143247
194.704726,5995.668130,10658.965565,-229.828649
194.705047,7994.224174,9474.636058,-4366.744339
194.705367,5699.585753,8956.491898,-3983.696590
194.705688,3627.009116,6883.915261,1072.533697
194.706009,5625.565159,4737.318029,2068.457845
194.706329,4515.256246,4367.215058,-995.924147
194.706650,444.123565,4071.132681,-1378.971896
194.706971,1776.494261,4811.338623,-383.047749
194.707291,3775.050304,6809.894666,-153.219100
194.707612,2886.803174,7105.977043,76.609550
194.707933,3701.029710,8438.347739,-1072.533697
194.708253,6661.853478,10436.903782,-2987.772442
194.708574,4293.194464,10732.986159,-842.705048
194.708895,4811.338623,11843.295072,459.657299
194.709215,6809.894666,11325.150913,-1302.362347
194.709536,6069.688724,10732.986159,-3753.867940
194.709857,4811.338623,10510.924376,-1608.800546
194.710177,4737.318029,10362.883188,-306.438199
194.710498,5699.585753,9178.553681,153.219100
194.710819,5181.441594,7328.038826,1762.019645
194.711139,4293.194464,5773.606348,76.609550
194.711460,4071.132681,5403.503377,-1072.533697
194.711781,5033.400406,6957.935855,919.314598
194.712101,5995.668130,6587.832884,-383.047749
194.712422,5625.565159,5403.503377,-3064.381992
194.712743,7105.977043,7920.203579,-2528.115143
194.713063,7550.100608,11103.089130,-1149.143247
194.713384,7550.100608,12879.583391,-766.095498
194.713705,6513.812290,11473.192101,-2145.067394
194.714025,7105.977043,10881.027347,-2987.772442
194.714346,7105.977043,12879.583391,-689.485948
194.714667,4219.173869,12213.398043,1991.848295
194.714987,3108.864956,6957.935855,1225.752797
194.715308,3701.029710,3997.112087,-1225.752797
194.715629,3849.070898,5255.462188,-842.705048
194.715949,962.267725,4367.215058,842.705048
194.716270,3034.844362,4737.318029,153.219100
194.716591,6143.709319,8438.347739,0.000000
194.716911,4367.215058,9400.615463,-306.438199
194.717232,4959.379811,7920.203579,-689.485948
194.717553,8586.388927,9252.574275,689.485948
194.717873,7031.956449,12287.418637,2374.896044
194.718194,4441.235652,12139.377449,766.095498
194.718515,5107.421000,10140.821405,-2068.457845
194.718835,5773.606348,8512.368333,-1149.143247
194.719156,4663.297435,7105.977043,3294.210641
194.719477,4737.318029,6217.729913,2528.115143
194.719797,2220.617826,4663.297435,-1608.800546
194.720118,592.164754,4071.132681,-1838.629195
194.720439,3182.885551,4959.379811,2298.286494
194.720759,5033.400406,5995.668130,3294.210641
194.721080,5107.421000,6809.894666,1302.362347
194.721401,3701.029710,8290.306550,-306.438199
194.721721,6291.750507,8956.491898,-995.924147
194.722042,7105.977043,10584.944971,842.705048
194.722363,6513.812290,11621.233289,1225.752797
194.722684,5625.565159,9400.615463,-153.219100
194.723004,5033.400406,8734.430116,306.438199
194.723325,4441.235652,9326.594869,2374.896044
194.723646,2960.823768,8734.430116,3370.820191
194.723966,3330.926739,6735.874072,2298.286494
194.724287,2294.638420,4441.235652,766.095498
194.724608,962.267725,3775.050304,766.095498
194.724928,2812.782580,3404.947333,1072.533697
194.725249,3775.050304,4737.318029,-536.266849
194.725570,5329.482782,6957.935855,-1455.581446
194.725890,6291.750507,9178.553681,-1149.143247
194.726211,7772.162391,9474.636058,0.000000
194.726532,7550.100608,9696.697840,612.876398
194.726852,7179.997637,10436.903782,536.266849
194.727173,5921.647536,10140.821405,-1072.533697
194.727494,5255.462188,8808.450710,-1762.019645
194.727814,5033.400406,8216.285956,-842.705048
194.728135,6439.791695,7402.059420,0.000000
194.728456,4885.359217,6661.853478,-383.047749
194.728776,3256.906145,5773.606348,-995.924147
194.729097,1998.556043,4811.338623,-153.219100
194.729418,4589.276840,6365.771101,1608.800546
194.729738,5255.462188,7328.038826,1225.752797
194.730059,5181.441594,7920.203579,-1072.533697
194.730380,4737.318029,7402.059420,-2911.162892
194.730700,6069.688724,8808.450710,-2145.067394
194.731021,7179.997637,11843.295072,0.000000
194.731342,7772.162391,12509.480420,459.657299
194.731662,6291.750507,11695.253884,-1685.410096
194.731983,5403.503377,10658.965565,-2221.676944
194.732304,5255.462188,10732.986159,383.047749
194.732624,4441.235652,8660.409521,1608.800546
194.732945,3849.070898,6069.688724,229.828649
194.733266,4293.194464,6291.750507,-536.266849
194.733586,2812.782580,6513.812290,-306.438199
194.733907,3256.906145,7031.956449,306.438199
194.734228,4589.276840,7254.018232,306.438199
194.734548,4737.318029,7550.100608,-1608.800546
194.734869,5699.585753,9030.512492,-2068.457845
194.735190,7994.224174,11843.295072,-766.095498
194.735510,7772.162391,13545.768739,766.095498
194.735831,6735.874072,12583.501014,2987.772442
194.736152,6809.894666,10584.944971,1149.143247
194.736472,4737.318029,9918.759623,0.000000
194.736793,3627.009116,8734.430116,383.047749
194.737114,4441.235652,6143.709319,229.828649
194.737434,4811.338623,4293.194464,-306.438199
194.737755,3256.906145,3775.050304,-153.219100
194.738076,2812.782580,4737.318029,612.876398
194.738396,3478.967927,5773.606348,612.876398
194.738717,3923.091493,7624.121203,-383.047749
194.739038,4737.318029,8734.430116,-1149.143247
194.739358,6883.915261,8512.368333,-766.095498
194.739679,7698.141797,9178.553681,995.924147
194.740000,7994.224174,11695.253884,1685.410096
194.740320,5329.482782,11991.336260,0.000000
194.740641,3701.029710,8364.327145,-2298.286494
194.740962,2442.679609,5255.462188,-1378.971896
194.741282,4589.276840,5329.482782,1915.238745
194.741603,5107.421000,7031.956449,2757.943793
194.741924,2590.720797,6069.688724,306.438199
194.742244,1332.370696,5181.441594,-1991.848295
194.742565,3108.864956,5255.462188,459.657299
194.742886,4663.297435,5329.482782,3447.429741
194.743206,5033.400406,5847.626942,2757.943793
194.743527,4737.318029,6809.894666,-1378.971896
194.743848,6809.894666,10066.800811,-2451.505594
194.744168,8142.265362,11843.295072,-536.266849
194.744489,7105.977043,9622.677246,1302.362347
194.744810,7179.997637,9178.553681,2221.676944
194.745130,7402.059420,10658.965565,1532.190996
194.745451,3997.112087,9548.656652,306.438199
194.745772,1628.453072,7031.956449,-229.828649
194.746092,4737.318029,5255.462188,383.047749
194.746413,4145.153275,4367.215058,842.705048
194.746734,3849.070898,4959.379811,1072.533697
194.747054,4737.318029,7105.977043,689.485948
194.747375,3775.050304,7846.182985,229.828649
194.747696,5255.462188,8512.368333,842.705048
194.748017,6587.832884,8216.285956,306.438199
194.748337,4737.318029,7476.080014,-1149.143247
194.748658,6291.750507,9770.718434,-383.047749
194.748979,8142.265362,12213.398043,536.266849
194.749299,5329.482782,12435.459826,-919.314598
194.749620,4737.318029,11325.150913,-689.485948
194.749941,4959.379811,10140.821405,0.000000
194.750261,2220.617826,8142.265362,612.876398
194.750582,1628.453072,5033.400406,1838.629195
194.750903,2516.700203,3552.988522,383.047749
194.751223,3701.029710,4367.215058,-1532.190996
194.751544,3108.864956,6513.812290,-153.219100
194.751865,3775.050304,7105.977043,919.314598
194.752185,5773.606348,8512.368333,-1455.581446
194.752506,5625.565159,8216.285956,-1991.848295
194.752827,6217.729913,9030.512492,-1838.629195
194.753147,8068.244768,10584.944971,-459.657299
194.753468,6883.915261,11029.068536,842.705048
194.753789,5551.544565,10214.842000,-2374.896044
194.754109,6217.729913,10658.965565,-3830.477490
194.754430,5773.606348,10955.047942,-2298.286494
194.754751,4885.359217,8438.347739,1149.143247
194.755071,7328.038826,6513.812290,2528.115143
194.755392,4885.359217,5625.565159,1149.143247
194.755713,2146.597232,4145.153275,-306.438199
194.756033,4293.194464,3849.070898,0.000000
194.756354,5329.482782,6143.709319,-459.657299
194.756675,5033.400406,8216.285956,-919.314598
194.756996,7920.203579,9918.759623,-2298.286494
194.757316,9474.636058,11029.068536,-2451.505594
194.757637,6069.688724,12213.398043,1149.143247
194.757958,7920.203579,13249.686362,2987.772442
194.758278,7254.018232,11621.233289,-383.047749
194.758599,4589.276840,8512.368333,-1149.143247
194.758920,4515.256246,7624.121203,689.485948
194.759240,4441.235652,7254.018232,1455.581446
194.759561,2442.679609,5699.585753,1685.410096
194.759882,2368.659014,5847.626942,229.828649
194.760202,2664.741391,5477.523971,-1608.800546
194.760523,2146.597232,5773.606348,-919.314598
194.760844,3108.864956,7179.997637,842.705048
194.761165,4441.235652,7550.100608,0.000000
194.761485,4737.318029,6809.894666,-76.609550
194.761806,7105.977043,8956.491898,612.876398
194.762127,6809.894666,10955.047942,-1378.971896
194.762447,3775.050304,11695.253884,-2528.115143
194.762768,6735.874072,11695.253884,-1378.971896
194.763089,6069.688724,9770.718434,-766.095498
194.763409,3108.864956,5847.626942,-459.657299
194.763730,2960.823768,4219.173869,-153.219100
194.764051,3404.947333,4663.297435,-1225.752797
194.764371,2146.597232,4219.173869,-766.095498
194.764692,2368.659014,4737.318029,-306.438199
194.765013,5847.626942,5921.647536,-1455.581446
194.765334,5329.482782,7920.203579,-1225.752797
194.765654,5033.400406,7328.038826,536.266849
194.765975,7328.038826,8142.265362,-383.047749
194.766296,8142.265362,9770.718434,-689.485948
194.766616,7105.977043,10140.821405,-383.047749
194.766937,6291.750507,8660.409521,-1608.800546
194.767258,7328.038826,9918.759623,-1072.533697
194.767578,5699.585753,12435.459826,2145.067394
194.767899,3775.050304,10288.862594,1685.410096
194.768220,5921.647536,7179.997637,-766.095498
194.768540,3182.885551,4737.318029,-766.095498
194.768861,2072.576638,4367.215058,153.219100
194.769182,3701.029710,5255.462188,1378.971896
194.769503,5107.421000,8734.430116,842.705048
194.769823,4145.153275,11177.109724,-229.828649
194.770144,5477.523971,11029.068536,-1149.143247
194.770465,6217.729913,9548.656652,-766.095498
194.770785,6217.729913,8956.491898,1838.629195
194.771106,8216.285956,11695.253884,3370.820191
194.771427,6217.729913,12435.459826,-306.438199
194.771747,3552.988522,11695.253884,-3064.381992
194.772068,4737.318029,9918.759623,-842.705048
194.772389,6069.688724,7920.203579,2681.334243
194.772709,5477.523971,5625.565159,3217.601092
194.773030,2886.803174,4663.297435,689.485948
194.773351,2886.803174,4441.235652,-2834.553343
194.773672,3775.050304,5033.400406,-1532.190996
194.773992,5107.421000,6439.791695,1838.629195
194.774313,5625.565159,5847.626942,306.438199
194.774634,6365.771101,6809.894666,-2145.067394
194.774954,7624.121203,9622.677246,-1838.629195
194.775275,5551.544565,9474.636058,-1762.019645
194.775596,5847.626942,8290.306550,-1838.629195
194.775916,5699.585753,8142.265362,-2681.334243
194.776237,4145.153275,8512.368333,-3217.601092
194.776558,4293.194464,8808.450710,-2374.896044
194.776878,4663.297435,7254.018232,-2374.896044
194.777199,4663.297435,5329.482782,-2604.724693
194.777520,4589.276840,6513.812290,-612.876398
194.777841,3108.864956,6439.791695,383.047749
194.778161,1480.411884,5107.421000,153.219100
194.778482,4441.235652,5995.668130,612.876398
194.778803,5477.523971,7179.997637,-229.828649
194.779123,2294.638420,4663.297435,-1762.019645
194.779444,5847.626942,6439.791695,-1149.143247
194.779765,7179.997637,11251.130318,-766.095498
194.780085,4885.359217,13027.624579,-995.924147
194.780406,6365.771101,12065.356855,-1762.019645
194.780727,7031.956449,11103.089130,-1608.800546
194.781047,4145.153275,9400.615463,1915.238745
194.781368,3182.885551,8068.244768,3524.039291
194.781689,4367.215058,6365.771101,-689.485948
194.782010,2146.597232,5773.606348,-3753.867940
194.782330,3404.947333,7328.038826,-1149.143247
194.782651,7031.956449,8882.471304,459.657299
194.782972,5033.400406,8364.327145,-766.095498
194.783292,4515.256246,9178.553681,-1762.019645
194.783613,6217.729913,11251.130318,-1302.362347
194.783934,6957.935855,11029.068536,459.657299
194.784254,6513.812290,11103.089130,3294.210641
194.784575,8586.388927,11769.274478,1608.800546
194.784896,6513.812290,11399.171507,-2145.067394
194.785216,3108.864956,10362.883188,-689.485948
194.785537,4663.297435,9918.759623,1685.410096
194.785858,5847.626942,7994.224174,1685.410096
194.786179,4663.297435,6217.729913,1532.190996
194.786499,2368.659014,5255.462188,76.609550
194.786820,1776.494261,4737.318029,0.000000
194.787141,2960.823768,5921.647536,1455.581446
194.787461,2886.803174,6809.894666,689.485948
194.787782,4885.359217,6217.729913,-2604.724693
194.788103,6143.709319,7031.956449,-3217.601092
194.788423,8808.450710,10288.862594,-919.314598
194.788744,8660.409521,12583.501014,0.000000
194.789065,7105.977043,11325.150913,-612.876398
194.789385,5921.647536,8216.285956,-995.924147
194.789706,7105.977043,6661.853478,1225.752797
194.790027,4737.318029,5699.585753,3294.210641
194.790348,3330.926739,4145.153275,1532.190996
194.790668,3552.988522,3034.844362,-2451.505594
194.790989,2886.803174,4663.297435,-2911.162892
194.791310,2812.782580,5477.523971,-153.219100
194.791630,5551.544565,5625.565159,1685.410096
194.791951,4811.338623,5921.647536,1532.190996
194.792272,2664.741391,6809.894666,536.266849
194.792592,2442.679609,7994.224174,-1532.190996
194.792913,5033.400406,9400.615463,-1149.143247
194.793234,6143.709319,10510.924376,995.924147
194.793554,7624.121203,10955.047942,995.924147
194.793875,7105.977043,12583.501014,-1685.410096
194.794196,2738.761985,11473.192101,-1302.362347
194.794516,1480.411884,8660.409521,459.657299
194.794837,4737.318029,5921.647536,1608.800546
194.795158,4071.132681,4367.215058,1762.019645
194.795479,2812.782580,5033.400406,689.485948
194.795799,3034.844362,7328.038826,0.000000
194.796120,3701.029710,8290.306550,536.266849
194.796441,3775.050304,7772.162391,1455.581446
194.796761,6365.771101,6661.853478,536.266849
194.797082,6143.709319,7105.977043,-1225.752797
194.797403,6661.853478,9474.636058,0.000000
194.797723,7476.080014,11695.253884,-842.705048
194.798044,5847.626942,11769.274478,-3447.429741
194.798365,7254.018232,11251.130318,-2221.676944
194.798685,7328.038826,11473.192101,0.000000
194.799006,6291.750507,11103.089130,0.000000
194.799327,5255.462188,9992.780217,-536.266849
194.799648,3923.091493,7328.038826,-1762.019645
194.799968,3330.926739,4589.276840,-995.924147
194.800289,2220.617826,2664.741391,306.438199
194.800610,4071.132681,4589.276840,689.485948
194.800930,3849.070898,6809.894666,-842.705048
194.801251,3923.091493,7772.162391,-2068.457845
194.801572,6957.935855,11399.171507,-1532.190996
194.801892,7328.038826,13545.768739,919.314598
194.802213,6809.894666,11991.336260,2298.286494
194.802534,7550.100608,10066.800811,306.438199
194.802854,5625.565159,8068.244768,-919.314598
194.803175,3034.844362,7031.956449,-1608.800546
194.803496,3108.864956,7031.956449,-2221.676944
194.803817,4145.153275,6661.853478,-2681.334243
194.804137,4071.132681,7328.038826,-1991.848295
194.804458,6217.729913,8290.306550,-1685.410096
194.804779,4737.318029,7550.100608,-1762.019645
194.805099,1776.494261,4663.297435,-229.828649
194.805420,3923.091493,5329.482782,1608.800546
194.805741,5329.482782,6365.771101,1225.752797
194.806061,5699.585753,8882.471304,-612.876398
194.806382,7179.997637,11621.233289,-1225.752797
194.806703,8216.285956,13619.789333,-1838.629195
194.807023,6809.894666,12287.418637,306.438199
194.807344,6957.935855,9400.615463,1378.971896
194.807665,5551.544565,7920.203579,-229.828649
194.807986,3404.947333,6883.915261,-383.047749
194.808306,3923.091493,7179.997637,2068.457845
194.808627,3775.050304,5699.585753,2298.286494
194.808948,3256.906145,5181.441594,2068.457845
194.809268,3849.070898,7105.977043,2911.162892
194.809589,3849.070898,7772.162391,1149.143247
194.809910,3404.947333,6809.894666,229.828649
194.810230,5773.606348,7105.977043,995.924147
194.810551,7772.162391,8808.450710,689.485948
194.810872,6069.688724,9474.636058,-306.438199
194.811192,5107.421000,8512.368333,-383.047749
194.811513,5181.441594,7550.100608,-689.485948
194.811834,7402.059420,9548.656652,2145.067394
194.812155,8068.244768,10955.047942,3524.039291
194.812475,3849.070898,9178.553681,0.000000
194.812796,3552.988522,8364.327145,-995.924147
194.813117,4663.297435,8216.285956,1991.848295
194.813437,3404.947333,4811.338623,2834.553343
194.813758,3034.844362,2368.659014,766.095498
194.814079,2590.720797,2886.803174,459.657299
194.814399,1702.473667,5551.544565,766.095498
194.814720,2960.823768,7254.018232,919.314598
194.815041,5921.647536,9030.512492,919.314598
194.815361,5995.668130,10362.883188,306.438199
194.815682,6587.832884,11917.315666,76.609550
194.816003,4737.318029,10658.965565,-1302.362347
194.816324,2664.741391,8512.368333,-1149.143247
194.816644,6365.771101,9326.594869,459.657299
194.816965,5403.503377,9400.615463,612.876398
194.817286,2812.782580,6513.812290,229.828649
194.817606,3552.988522,6439.791695,612.876398
194.817927,3701.029710,8216.285956,995.924147
194.818248,1998.556043,5403.503377,1915.238745
194.818568,2886.803174,2664.741391,2451.505594
194.818889,5255.462188,4145.153275,536.266849
194.819210,4959.379811,6809.894666,-1455.581446
194.819530,7179.997637,8660.409521,-689.485948
194.819851,6513.812290,9252.574275,-3524.039291
194.820172,8438.347739,11473.192101,-2145.067394
194.820493,9252.574275,12065.356855,766.095498
194.820813,8290.306550,10066.800811,-766.095498
194.821134,8512.368333,8660.409521,-2834.553343
194.821455,5699.585753,8216.285956,-2221.676944
194.821775,4959.379811,6957.935855,-1532.190996
194.822096,5699.585753,5329.482782,-383.047749
194.822417,3182.885551,4219.173869,-1838.629195
194.822737,3997.112087,5181.441594,-1532.190996
194.823058,5921.647536,7402.059420,995.924147
194.823379,4737.318029,7920.203579,229.828649
194.823699,3404.947333,6587.832884,-1225.752797
194.824020,6513.812290,8660.409521,-1455.581446
194.824341,7920.203579,12287.418637,-995.924147
194.824662,4589.276840,12805.562797,-995.924147
194.824982,4737.318029,10807.006753,-689.485948
194.825303,5773.606348,10584.944971,-1991.848295
194.825624,5181.441594,10732.986159,-1608.800546
194.825944,1332.370696,9548.656652,-153.219100
194.826265,2368.659014,8068.244768,-153.219100
194.826586,5477.523971,9252.574275,0.000000
194.826906,2886.803174,9178.553681,76.609550
194.827227,0.000000,5033.400406,-612.876398
194.827548,4441.235652,4737.318029,536.266849
194.827868,6439.791695,8586.388927,2451.505594
194.828189,4293.194464,8364.327145,689.485948
194.828510,6365.771101,7920.203579,-3983.696590
194.828831,9030.512492,11103.089130,-4213.525239
194.829151,5255.462188,11547.212695,-536.266849
194.829472,6439.791695,9696.697840,2451.505594
194.829793,9474.636058,9474.636058,-153.219100
194.830113,5699.585753,9992.780217,-2451.505594
194.830434,3627.009116,8808.450710,-689.485948
194.830755,4145.153275,5995.668130,459.657299
194.831075,4219.173869,4663.297435,76.609550
194.831396,3552.988522,4885.359217,1378.971896
194.831717,4737.318029,4737.318029,995.924147
194.832037,4737.318029,4441.235652,-383.047749
194.832358,4071.132681,6365.771101,1072.533697
194.832679,5847.626942,8734.430116,1149.143247
194.833000,6735.874072,8142.265362,-383.047749
194.833320,6587.832884,8882.471304,-383.047749
194.833641,5403.503377,10362.883188,-306.438199
194.833962,5995.668130,9400.615463,536.266849
194.834282,5551.544565,7920.203579,995.924147
194.834603,5403.503377,8142.265362,-306.438199
194.834924,3404.947333,8438.347739,-536.266849
194.835244,3997.112087,7994.224174,0.000000
194.835565,3923.091493,5921.647536,919.314598
194.835886,2664.741391,3627.009116,2221.676944
194.836206,3256.906145,2960.823768,3447.429741
194.836527,4959.379811,5699.585753,2221.676944
194.836848,2738.761985,6661.853478,-459.657299
194.837169,4293.194464,7772.162391,-919.314598
194.837489,8142.265362,8956.491898,-612.876398
194.837810,8586.388927,10436.903782,-919.314598
194.838131,4589.276840,10510.924376,689.485948
194.838451,5181.441594,10584.944971,919.314598
194.838772,7550.100608,11177.109724,-383.047749
194.839093,5847.626942,10658.965565,-306.438199
194.839413,3034.844362,7254.018232,0.000000
194.839734,3775.050304,6513.812290,919.314598
194.840055,4589.276840,7550.100608,2374.896044
194.840375,1406.391290,6365.771101,2451.505594
194.840696,2220.617826,4515.256246,-229.828649
194.841017,3997.112087,5107.421000,-612.876398
194.841337,3256.906145,6143.709319,842.705048
194.841658,4589.276840,6957.935855,1378.971896
194.841979,6957.935855,9548.656652,-1455.581446
194.842300,7254.018232,12879.583391,-2145.067394
194.842620,6809.894666,13545.768739,-1072.533697
194.842941,7105.977043,11325.150913,-842.705048
194.843262,7105.977043,9326.594869,-1072.533697
194.843582,4737.318029,7550.100608,-842.705048
194.843903,3923.091493,5403.503377,-1762.019645
194.844224,4811.338623,5403.503377,-1532.190996
194.844544,4737.318029,5921.647536,-689.485948
194.844865,4589.276840,6143.709319,-995.924147
194.845186,4737.318029,5551.544565,-153.219100
194.845506,4589.276840,5625.565159,0.000000
194.845827,4293.194464,7105.977043,0.000000
194.846148,7031.956449,9474.636058,-842.705048
194.846469,6809.894666,9252.574275,-2145.067394
194.846789,6291.750507,10140.821405,-3064.381992
194.847110,6957.935855,11991.336260,-1915.238745
194.847431,5329.482782,11103.089130,-766.095498
194.847751,7402.059420,10436.903782,-383.047749
194.848072,5255.462188,10807.006753,-995.924147
194.848393,4589.276840,8808.450710,-766.095498
194.848713,3923.091493,5773.606348,919.314598
194.849034,4811.338623,5403.503377,306.438199
194.849355,2516.700203,4885.359217,-766.095498
194.849675,4145.153275,5551.544565,0.000000
194.849996,6513.812290,7105.977043,459.657299
194.850317,4811.338623,7105.977043,229.828649
194.850638,6513.812290,8660.409521,842.705048
194.850958,9252.574275,11621.233289,-612.876398
194.851279,4885.359217,10658.965565,-2298.286494
194.851600,4811.338623,9844.739029,-1225.752797
194.851920,8660.409521,10214.842000,-153.219100
194.852241,7994.224174,10658.965565,0.000000
194.852563,1480.411884,7698.141797,-536.266849
194.852884,3108.864956,6365.771101,-1915.238745
194.853205,5033.400406,8068.244768,-306.438199
194.853526,2294.638420,7328.038826,1149.143247
194.853846,2516.700203,4219.173869,306.438199
194.854167,3849.070898,2664.741391,-1455.581446
194.854488,3849.070898,6365.771101,459.657299
194.854808,4145.153275,9178.553681,1991.848295
194.855129,7105.977043,11251.130318,-1225.752797
194.855450,7624.121203,11917.315666,-2528.115143
194.855771,5181.441594,11769.274478,-689.485948
194.856091,4663.297435,8364.327145,1072.533697
194.856412,5551.544565,7031.956449,2221.676944
194.856733,4515.256246,7846.182985,2145.067394
194.857053,2812.782580,7624.121203,-1378.971896
194.857374,3330.926739,6513.812290,-2911.162892
194.857695,3552.988522,5329.482782,-842.705048
194.858016,3404.947333,6883.915261,1915.238745
194.858336,4811.338623,6513.812290,3753.867940
194.858657,4145.153275,4367.215058,689.485948
194.858978,3627.009116,5181.441594,-1762.019645
194.859298,5773.606348,8364.327145,-229.828649
194.859619,6661.853478,8882.471304,153.219100
194.859940,9770.718434,11029.068536,76.609550
194.860261,7328.038826,13027.624579,-1072.533697
194.860581,4589.276840,11177.109724,-2374.896044
194.860902,7105.977043,8586.388927,-919.314598
194.861223,6291.750507,7105.977043,1685.410096
194.861543,2368.659014,5921.647536,2451.505594
194.861864,4589.276840,7254.018232,383.047749
194.862185,4737.318029,8882.471304,-1915.238745
194.862506,1110.308913,7105.977043,-766.095498
194.862826,4811.338623,5403.503377,3294.210641
194.863147,7105.977043,5329.482782,2451.505594
194.863468,2220.617826,5551.544565,-459.657299
194.863788,3404.947333,8068.244768,-1072.533697
194.864109,7105.977043,9918.759623,-1991.848295
194.864430,6365.771101,9696.697840,-383.047749
194.864751,5329.482782,9548.656652,1378.971896
194.865071,7179.997637,11251.130318,-842.705048
194.865392,5477.523971,11843.295072,-2374.896044
194.865713,3108.864956,10584.944971,-1149.143247
194.866033,4071.132681,6217.729913,-2145.067394
194.866354,4219.173869,2442.679609,-1991.848295
194.866675,3552.988522,4293.194464,689.485948
194.866996,2072.576638,7031.956449,0.000000
194.867316,3034.844362,8068.244768,-842.705048
194.867637,4737.318029,8438.347739,306.438199
194.867958,5329.482782,7254.018232,76.609550
194.868278,7031.956449,7254.018232,-612.876398
194.868599,5107.421000,7994.224174,-153.219100
194.868920,6735.874072,11991.336260,-1302.362347
194.869241,6809.894666,12879.583391,-2068.457845
194.869561,5699.585753,10732.986159,-1838.629195
194.869882,5625.565159,8882.471304,-995.924147
194.870203,4959.379811,8290.306550,0.000000
194.870523,2812.782580,6883.915261,459.657299
194.870844,3108.864956,5477.523971,-1149.143247
194.871165,4515.256246,5551.544565,-2681.334243
194.871486,5625.565159,8068.244768,-1225.752797
194.871806,5403.503377,9992.780217,3524.039291
194.872127,4589.276840,7624.121203,3140.991542
194.872448,5551.544565,6809.894666,459.657299
194.872768,6661.853478,8142.265362,-689.485948
194.873089,4959.379811,8364.327145,-995.924147
194.873410,6513.812290,9104.533087,0.000000
194.873731,7846.182985,11251.130318,536.266849
194.874051,6883.915261,12657.521608,0.000000
194.874372,6661.853478,12583.501014,-1378.971896
194.874693,3330.926739,8956.491898,-2834.553343
194.875013,2590.720797,5921.647536,-76.609550
194.875334,5033.400406,5107.421000,3294.210641
194.875655,4145.153275,5921.647536,1072.533697
194.875976,2368.659014,7105.977043,-2221.676944
194.876296,3701.029710,8882.471304,459.657299
194.876617,5403.503377,10510.924376,1685.410096
194.876938,5551.544565,8290.306550,1915.238745
194.877258,5107.421000,7179.997637,1685.410096
194.877579,5773.606348,7920.203579,383.047749
194.877900,5773.606348,8734.430116,0.000000
194.878221,3997.112087,9696.697840,612.876398
194.878541,4219.173869,9252.574275,766.095498
194.878862,7772.162391,10214.842000,459.657299
194.879183,4737.318029,8586.388927,1149.143247
194.879504,2442.679609,6069.688724,459.657299
194.879824,3701.029710,3923.091493,-536.266849
194.880145,3478.967927,3256.906145,0.000000
194.880466,3478.967927,4441.235652,1838.629195
194.880786,3923.091493,4663.297435,1378.971896
194.881107,4145.153275,4663.297435,-2221.676944
194.881428,3108.864956,5477.523971,-3753.867940
194.881749,7994.224174,9696.697840,-995.924147
194.882069,7994.224174,10732.986159,0.000000
194.882390,7920.203579,10510.924376,-1915.238745
194.882711,8586.388927,12065.356855,-2374.896044
194.883031,5921.647536,11399.171507,-919.314598
194.883352,5181.441594,7550.100608,995.924147
194.883673,4663.297435,4589.276840,1915.238745
194.883994,2368.659014,3775.050304,306.438199
194.884314,2516.700203,4737.318029,-383.047749
194.884635,2960.823768,4885.359217,-612.876398
194.884956,2664.741391,4737.318029,-383.047749
194.885276,3997.112087,6809.894666,1991.848295
194.885597,5699.585753,10362.883188,2681.334243
194.885918,3775.050304,9622.677246,-229.828649
194.886239,4737.318029,8586.388927,-1685.410096
194.886559,8956.491898,11695.253884,842.705048
194.886880,6587.832884,13693.809927,-229.828649
194.887201,4293.194464,10881.027347,-2068.457845
194.887521,5847.626942,9770.718434,-2451.505594
194.887842,6587.832884,8956.491898,-842.705048
194.888163,3997.112087,9622.677246,1762.019645
194.888484,5255.462188,9104.533087,689.485948
194.888804,4885.359217,9178.553681,-766.095498
194.889125,3701.029710,8956.491898,766.095498
194.889446,5255.462188,8438.347739,2145.067394
194.889766,4811.338623,5625.565159,2145.067394
194.890087,4367.215058,6143.709319,2604.724693
194.890408,5551.544565,9918.759623,2298.286494
194.890729,5255.462188,10881.027347,-919.314598
194.891049,5921.647536,10362.883188,-1302.362347
194.891370,7328.038826,10214.842000,-612.876398
194.891691,7105.977043,9400.615463,-383.047749
194.892011,4441.235652,9918.759623,383.047749
194.892332,4293.194464,11695.253884,689.485948
194.892653,3775.050304,9770.718434,-1072.533697
194.892974,4293.194464,6513.812290,-1149.143247
194.893294,5773.606348,4737.318029,0.000000
194.893615,3997.112087,4959.379811,-689.485948
194.893936,3849.070898,6809.894666,1608.800546
194.894256,4959.379811,7772.162391,2911.162892
194.894577,3923.091493,4293.194464,536.266849
194.894898,4737.318029,3478.967927,-842.705048
194.895219,6661.853478,5255.462188,1532.190996
194.895539,5699.585753,7624.121203,0.000000
194.895860,4219.173869,9104.533087,-3217.601092
194.896181,5921.647536,10881.027347,-4136.915689
194.896501,6291.750507,11621.233289,-1378.971896
194.896822,7254.018232,9622.677246,2451.505594
194.897143,4589.276840,6217.729913,1991.848295
194.897464,740.205942,2368.659014,-2374.896044
194.897784,1480.411884,2664.741391,-2757.943793
194.898105,3034.844362,4737.318029,0.000000
194.898426,4145.153275,5181.441594,1608.800546
194.898746,5255.462188,6661.853478,1685.410096
194.899067,6069.688724,7550.100608,-842.705048
194.899388,4589.276840,8068.244768,-2298.286494
194.899709,3552.988522,8438.347739,-612.876398
194.900029,6735.874072,10288.862594,153.219100
194.900350,6587.832884,9918.759623,-612.876398
194.900671,6143.709319,8512.368333,-383.047749
194.900991,7179.997637,9548.656652,-612.876398
194.901312,5181.441594,10066.800811,-1225.752797
194.901633,3256.906145,9844.739029,-842.705048
194.901954,4071.132681,8290.306550,-995.924147
194.902274,4959.379811,7476.080014,-1072.533697
194.902595,4589.276840,5921.647536,1685.410096
194.902916,4145.153275,5551.544565,3600.648841
194.903236,4737.318029,6809.894666,919.314598
194.903557,3404.947333,8882.471304,-1149.143247
194.903878,4885.359217,10584.944971,-2221.676944
194.904199,7624.121203,11177.109724,-2298.286494
194.904519,9400.615463,12213.398043,229.828649
194.904840,7920.203579,12805.562797,1302.362347
194.905161,6587.832884,11991.336260,-1225.752797
194.905481,6365.771101,11917.315666,-1685.410096
194.905802,3182.885551,9622.677246,-229.828649
194.906123,6069.688724,8660.409521,2221.676944
