#time,accel_x,accel_y,accel_z
175.871587,5107.421000,7920.203579,0.000000
175.871908,5551.544565,7994.224174,0.000000
175.872228,5033.400406,7772.162391,-383.047749
175.872549,4959.379811,7920.203579,-306.438199
175.872870,5329.482782,7846.182985,-306.438199
175.873191,5107.421000,8438.347739,76.609550
175.873512,4811.338623,7994.224174,-306.438199
175.873833,5107.421000,7772.162391,0.000000
175.874153,5107.421000,7846.182985,-229.828649
175.874474,4959.379811,7920.203579,0.000000
175.874795,4959.379811,7994.224174,0.000000
175.875116,4885.359217,7994.224174,0.000000
175.875437,4811.338623,7920.203579,0.000000
175.875758,4959.379811,7846.182985,-306.438199
175.876078,4959.379811,7920.203579,-229.828649
175.876399,5181.441594,7994.224174,0.000000
175.876720,4737.318029,8216.285956,-229.828649
175.877041,5033.400406,7846.182985,-153.219100
175.877362,4959.379811,8216.285956,-153.219100
175.877683,4885.359217,8068.244768,-306.438199
175.878004,5033.400406,8216.285956,0.000000
175.878324,5181.441594,7920.203579,-306.438199
175.878645,4885.359217,7624.121203,-153.219100
175.878966,4885.359217,8068.244768,0.000000
175.879287,4959.379811,7994.224174,-383.047749
175.879608,4959.379811,7994.224174,-229.828649
175.879929,4811.338623,8142.265362,0.000000
175.880249,4959.379811,8216.285956,0.000000
175.880570,4737.318029,8068.244768,-306.438199
175.880891,5107.421000,7920.203579,-306.438199
175.881212,5181.441594,8142.265362,229.828649
175.881533,5107.421000,8068.244768,-153.219100
175.881854,4737.318029,7994.224174,0.000000
175.882174,4737.318029,7772.162391,-383.047749
175.882495,4293.194464,7328.038826,0.000000
175.882816,4367.215058,7846.182985,-76.609550
175.883137,4811.338623,9178.553681,-536.266849
175.883458,4737.318029,9918.759623,-919.314598
175.883779,4811.338623,9844.739029,-1072.533697
175.884099,4885.359217,9474.636058,-1149.143247
175.884420,4219.173869,8808.450710,0.000000
175.884741,3404.947333,8290.306550,995.924147
175.885062,3404.947333,8512.368333,612.876398
175.885383,2812.782580,8808.450710,0.000000
175.885704,3034.844362,8512.368333,-76.609550
175.886024,3552.988522,8512.368333,-306.438199
175.886345,3552.988522,9104.533087,-689.485948
175.886666,3627.009116,9474.636058,0.000000
175.886987,2960.823768,9178.553681,306.438199
175.887308,2738.761985,8956.491898,0.000000
175.887629,2294.638420,9400.615463,-612.876398
175.887949,1702.473667,10214.842000,-842.705048
175.888270,1776.494261,11621.233289,-1455.581446
175.888591,1480.411884,12139.377449,-1072.533697
175.888912,1332.370696,12361.439231,-842.705048
175.889233,-148.041188,11621.233289,-1149.143247
175.889554,-1110.308913,11695.253884,-1225.752797
175.889874,-1702.473667,12139.377449,-766.095498
175.890195,-2072.576638,12953.603985,76.609550
175.890516,-2146.597232,12657.521608,842.705048
175.890837,-2220.617826,12287.418637,1149.143247
175.891158,-2294.638420,12065.356855,1685.410096
175.891479,-2442.679609,12805.562797,1838.629195
175.891799,-3034.844362,12065.356855,1149.143247
175.892120,-2812.782580,11029.068536,0.000000
175.892441,-1924.535449,10584.944971,0.000000
175.892762,-1332.370696,10288.862594,459.657299
175.893083,-1184.329507,10584.944971,1149.143247
175.893404,-148.041188,10732.986159,153.219100
175.893725,296.082377,10881.027347,-766.095498
175.894045,1184.329507,11177.109724,-1762.019645
175.894366,2146.597232,10658.965565,-1378.971896
175.894687,2738.761985,10214.842000,306.438199
175.895008,3478.967927,10214.842000,76.609550
175.895329,3034.844362,9548.656652,-1378.971896
175.895650,2368.659014,9030.512492,-2451.505594
175.895970,2516.700203,8734.430116,-1991.848295
175.896291,2516.700203,9622.677246,-1302.362347
175.896612,2664.741391,9770.718434,-612.876398
175.896933,2146.597232,9992.780217,-612.876398
175.897254,1850.514855,10510.924376,0.000000
175.897575,1036.288319,10732.986159,459.657299
175.897895,592.164754,10362.883188,459.657299
175.898216,0.000000,9770.718434,766.095498
175.898537,370.102971,9548.656652,459.657299
175.898858,0.000000,9844.739029,612.876398
175.899179,-444.123565,10362.883188,1072.533697
175.899500,222.061783,10955.047942,919.314598
175.899820,814.226536,11103.089130,1378.971896
175.900141,1110.308913,11251.130318,612.876398
175.900462,592.164754,11473.192101,0.000000
175.900783,1036.288319,11103.089130,-459.657299
175.901104,1332.370696,10288.862594,-306.438199
175.901425,2146.597232,10066.800811,383.047749
175.901745,1406.391290,9400.615463,76.609550
175.902066,1702.473667,8512.368333,0.000000
175.902387,2294.638420,9178.553681,-153.219100
175.902708,2590.720797,10436.903782,-306.438199
175.903029,2442.679609,10807.006753,-383.047749
175.903350,3108.864956,10658.965565,-1225.752797
175.903670,3404.947333,10214.842000,-1072.533697
175.903991,2738.761985,9918.759623,-153.219100
175.904312,2590.720797,10140.821405,-766.095498
175.904633,2294.638420,10436.903782,-1608.800546
175.904954,1332.370696,11473.192101,-842.705048
175.905275,740.205942,11843.295072,-383.047749
175.905595,666.185348,11399.171507,-689.485948
175.905916,0.000000,11769.274478,-1685.410096
175.906237,-962.267725,10807.006753,-1455.581446
175.906558,-1702.473667,9252.574275,-689.485948
175.906879,-2442.679609,7994.224174,383.047749
175.907200,-1998.556043,9770.718434,1915.238745
175.907520,-740.205942,12065.356855,2528.115143
175.907841,-74.020594,13471.748144,1685.410096
175.908162,444.123565,13619.789333,612.876398
175.908483,1110.308913,12805.562797,76.609550
175.908804,1332.370696,11399.171507,-76.609550
175.909125,1110.308913,10140.821405,0.000000
175.909445,888.247130,9252.574275,0.000000
175.909766,592.164754,9178.553681,-995.924147
175.910087,-666.185348,9696.697840,-1915.238745
175.910408,-1184.329507,9400.615463,-2374.896044
175.910729,0.000000,10288.862594,-1532.190996
175.911050,518.144159,12139.377449,-612.876398
175.911371,1702.473667,13175.665768,0.000000
175.911691,1924.535449,12953.603985,-995.924147
175.912012,1406.391290,12953.603985,-1455.581446
175.912333,888.247130,13249.686362,-229.828649
175.912654,888.247130,12213.398043,536.266849
175.912975,962.267725,9400.615463,-306.438199
175.913296,1480.411884,6809.894666,-383.047749
175.913616,1406.391290,7254.018232,689.485948
175.913937,148.041188,9474.636058,995.924147
175.914258,-814.226536,11029.068536,1378.971896
175.914579,222.061783,10362.883188,612.876398
175.914900,592.164754,9326.594869,76.609550
175.915221,1628.453072,8660.409521,0.000000
175.915541,1776.494261,10066.800811,766.095498
175.915862,814.226536,12657.521608,-383.047749
175.916183,74.020594,13471.748144,-1608.800546
175.916504,1036.288319,12805.562797,-2298.286494
175.916825,1406.391290,13027.624579,-1991.848295
175.917146,888.247130,12287.418637,-306.438199
175.917466,666.185348,12361.439231,383.047749
175.917787,74.020594,11769.274478,383.047749
175.918108,-518.144159,10881.027347,766.095498
175.918429,-888.247130,9548.656652,1378.971896
175.918750,-518.144159,8438.347739,1762.019645
175.919071,-1998.556043,8216.285956,1991.848295
175.919391,-2146.597232,8068.244768,842.705048
175.919712,-666.185348,8586.388927,-229.828649
175.920033,1110.308913,10362.883188,-766.095498
175.920354,2072.576638,13249.686362,-1225.752797
175.920675,2812.782580,13915.871710,-1072.533697
175.920996,2294.638420,12435.459826,-1608.800546
175.921316,1110.308913,9474.636058,-1838.629195
175.921637,962.267725,6661.853478,-842.705048
175.921958,3108.864956,8290.306550,1302.362347
175.922279,1850.514855,11473.192101,1532.190996
175.922600,518.144159,13249.686362,-1915.238745
175.922921,1702.473667,13101.645173,-4136.915689
175.923241,1184.329507,11029.068536,-3370.820191
175.923562,-962.267725,7994.224174,-1302.362347
175.923883,-1258.350101,7328.038826,153.219100
175.924204,-518.144159,9548.656652,229.828649
175.924525,-1332.370696,13175.665768,689.485948
175.924846,-1628.453072,14878.139434,1302.362347
175.925166,-2146.597232,14952.160028,0.000000
175.925487,-2146.597232,14508.036463,-536.266849
175.925808,-1628.453072,13989.892304,842.705048
175.926129,-888.247130,11769.274478,1838.629195
175.926450,-1258.350101,9030.512492,766.095498
175.926771,814.226536,8660.409521,153.219100
175.927092,592.164754,9252.574275,-306.438199
175.927412,-296.082377,9104.533087,306.438199
175.927733,962.267725,8882.471304,1149.143247
175.928054,3997.112087,10288.862594,1608.800546
175.928375,4811.338623,10881.027347,1149.143247
175.928696,5477.523971,10955.047942,-383.047749
175.929017,5773.606348,10214.842000,-2374.896044
175.929337,3997.112087,10362.883188,-3524.039291
175.929658,3256.906145,10288.862594,-3064.381992
175.929979,2812.782580,7994.224174,-2451.505594
175.930300,3552.988522,7402.059420,-1072.533697
175.930621,4145.153275,11103.089130,1838.629195
175.930942,1036.288319,13545.768739,995.924147
175.931262,0.000000,12805.562797,-2221.676944
175.931583,222.061783,10658.965565,-1991.848295
175.931904,-1850.514855,9178.553681,383.047749
175.932224,-1998.556043,8364.327145,2528.115143
175.932545,-2072.576638,9548.656652,2221.676944
175.932866,-2294.638420,12731.542202,-919.314598
175.933187,-2516.700203,15914.427753,-612.876398
175.933507,-2368.659014,15544.324782,-689.485948
175.933828,-2960.823768,11843.295072,-459.657299
175.934149,-740.205942,9992.780217,3294.210641
175.934469,-296.082377,11621.233289,5822.325785
175.934790,-1406.391290,11177.109724,3370.820191
175.935111,-2146.597232,9252.574275,0.000000
175.935432,814.226536,8808.450710,-383.047749
175.935752,1776.494261,8734.430116,766.095498
175.936073,2516.700203,7920.203579,995.924147
175.936394,3775.050304,6143.709319,-459.657299
175.936714,5847.626942,7994.224174,-1149.143247
175.937035,4811.338623,10288.862594,-766.095498
175.937356,3627.009116,9844.739029,-1915.238745
175.937677,5329.482782,9548.656652,-2834.553343
175.937997,5255.462188,9992.780217,-2451.505594
175.938318,3997.112087,9178.553681,-2221.676944
175.938639,2886.803174,7920.203579,-3370.820191
175.938959,2812.782580,9326.594869,-2987.772442
175.939280,370.102971,12657.521608,-2451.505594
175.939601,-222.061783,13767.830521,-1378.971896
175.939922,-1258.350101,11177.109724,-1838.629195
175.940242,-1332.370696,9696.697840,-842.705048
175.940563,-2146.597232,12213.398043,2451.505594
175.940884,-3849.070898,14434.015869,3294.210641
175.941204,-5107.421000,14582.057057,1762.019645
175.941525,-5329.482782,13989.892304,766.095498
175.941846,-4071.132681,13101.645173,919.314598
175.942167,-2960.823768,12287.418637,1915.238745
175.942487,-3923.091493,11843.295072,2604.724693
175.942808,-3256.906145,13545.768739,2374.896044
175.943129,-2738.761985,13249.686362,919.314598
175.943449,-1258.350101,11251.130318,842.705048
175.943770,1554.432478,10214.842000,1915.238745
175.944091,1850.514855,10510.924376,1915.238745
175.944412,1406.391290,9104.533087,0.000000
175.944732,4737.318029,7772.162391,-536.266849
175.945053,6217.729913,6217.729913,-1072.533697
175.945374,8142.265362,6809.894666,-1302.362347
175.945694,11103.089130,6883.915261,-995.924147
175.946015,9326.594869,6365.771101,-3217.601092
175.946336,7772.162391,6217.729913,-3983.696590
175.946657,10362.883188,7328.038826,-2834.553343
175.946977,10732.986159,7624.121203,-2451.505594
175.947298,8660.409521,7179.997637,-2834.553343
175.947619,8956.491898,7254.018232,-3064.381992
175.947939,5477.523971,7550.100608,-3447.429741
175.948260,4219.173869,8068.244768,-3370.820191
175.948581,3849.070898,8512.368333,76.609550
175.948902,2442.679609,8364.327145,2681.334243
175.949222,2220.617826,8808.450710,4290.134789
175.949543,1406.391290,10362.883188,4443.353888
175.949864,-1110.308913,9548.656652,1225.752797
175.950184,-518.144159,9844.739029,689.485948
175.950505,814.226536,10214.842000,2834.553343
175.950826,444.123565,9104.533087,3294.210641
175.951147,1998.556043,8068.244768,3064.381992
175.951467,1998.556043,6809.894666,2911.162892
175.951788,1184.329507,7550.100608,2451.505594
175.952109,3256.906145,7328.038826,2987.772442
175.952429,5921.647536,7550.100608,306.438199
175.952750,7179.997637,6735.874072,-1991.848295
175.953071,9548.656652,7105.977043,0.000000
175.953392,10066.800811,7994.224174,459.657299
175.953712,10288.862594,7179.997637,-1915.238745
175.954033,10436.903782,6513.812290,-3370.820191
175.954354,11843.295072,6365.771101,-3677.258390
175.954674,10658.965565,5329.482782,-3064.381992
175.954995,9696.697840,5551.544565,-2298.286494
175.955316,9030.512492,6069.688724,-2068.457845
175.955637,8882.471304,7105.977043,-1685.410096
175.955957,7772.162391,7179.997637,-612.876398
175.956278,5995.668130,5995.668130,-1072.533697
175.956599,4589.276840,5847.626942,-2374.896044
175.956919,3997.112087,7105.977043,-995.924147
175.957240,2294.638420,9178.553681,1608.800546
175.957561,2220.617826,9178.553681,2451.505594
175.957882,2738.761985,9770.718434,1378.971896
175.958202,1184.329507,9474.636058,383.047749
175.958523,370.102971,10510.924376,0.000000
175.958844,-148.041188,11695.253884,1685.410096
175.959164,0.000000,10658.965565,689.485948
175.959485,1702.473667,9252.574275,76.609550
175.959806,2590.720797,8734.430116,919.314598
175.960127,814.226536,8882.471304,1072.533697
175.960447,1110.308913,9030.512492,1915.238745
175.960768,2442.679609,8734.430116,766.095498
175.961089,3627.009116,8216.285956,-153.219100
175.961409,5773.606348,7920.203579,-689.485948
175.961730,8956.491898,7772.162391,-766.095498
175.962051,7550.100608,7254.018232,-2374.896044
175.962372,7402.059420,6661.853478,-2221.676944
175.962692,8290.306550,6143.709319,-1608.800546
175.963013,9622.677246,6883.915261,-2145.067394
175.963334,8438.347739,6957.935855,-2374.896044
175.963654,9844.739029,7254.018232,-2757.943793
175.963975,9474.636058,8142.265362,-3064.381992
175.964296,8364.327145,9400.615463,-1608.800546
175.964617,7105.977043,7550.100608,-1532.190996
175.964937,7254.018232,6809.894666,-2068.457845
175.965258,6069.688724,6587.832884,0.000000
175.965579,5403.503377,7624.121203,1378.971896
175.965899,3997.112087,7550.100608,536.266849
175.966220,1924.535449,7550.100608,-1378.971896
175.966541,2886.803174,9400.615463,306.438199
175.966862,2738.761985,9400.615463,3064.381992
175.967182,3108.864956,9326.594869,2987.772442
175.967503,3108.864956,9622.677246,76.609550
175.967824,1258.350101,9548.656652,-1991.848295
175.968144,814.226536,9474.636058,-766.095498
175.968465,3404.947333,9474.636058,2528.115143
175.968786,3849.070898,8734.430116,3140.991542
175.969107,4441.235652,7846.182985,2374.896044
175.969427,3923.091493,8660.409521,1455.581446
175.969748,3701.029710,10066.800811,-1225.752797
175.970069,3256.906145,7994.224174,-2068.457845
175.970389,7105.977043,6365.771101,-1225.752797
175.970710,8216.285956,5921.647536,383.047749
175.971031,7624.121203,6143.709319,1455.581446
175.971352,6735.874072,4811.338623,689.485948
175.971672,6957.935855,5773.606348,-2145.067394
175.971993,6365.771101,7031.956449,-2374.896044
175.972314,8216.285956,7550.100608,-1532.190996
175.972634,10510.924376,6957.935855,-1608.800546
175.972955,9622.677246,7105.977043,-2221.676944
175.973276,8068.244768,7328.038826,-1378.971896
175.973597,6513.812290,7105.977043,-1378.971896
175.973917,4737.318029,5847.626942,-1378.971896
175.974238,4589.276840,6365.771101,0.000000
175.974559,6439.791695,8068.244768,459.657299
175.974879,4515.256246,8512.368333,459.657299
175.975200,3923.091493,9474.636058,76.609550
175.975521,2812.782580,9622.677246,766.095498
175.975842,1998.556043,8290.306550,1378.971896
175.976162,1924.535449,7772.162391,2374.896044
175.976483,3034.844362,7920.203579,2221.676944
175.976804,2590.720797,8290.306550,1149.143247
175.977124,3256.906145,9178.553681,689.485948
175.977445,3182.885551,9622.677246,1302.362347
175.977766,4515.256246,8808.450710,919.314598
175.978087,6217.729913,7254.018232,306.438199
175.978407,6291.750507,7105.977043,0.000000
175.978728,5625.565159,8512.368333,-1225.752797
175.979049,4663.297435,8808.450710,-995.924147
175.979369,5995.668130,7550.100608,-1378.971896
175.979690,9326.594869,8290.306550,-766.095498
175.980011,9104.533087,8512.368333,459.657299
175.980332,7105.977043,8586.388927,-536.266849
175.980652,6365.771101,8068.244768,-2221.676944
175.980973,6809.894666,8068.244768,-2604.724693
175.981294,5847.626942,6217.729913,-842.705048
175.981614,7254.018232,5477.523971,689.485948
175.981935,8068.244768,5477.523971,919.314598
175.982256,5255.462188,5329.482782,612.876398
175.982577,4441.235652,7328.038826,229.828649
175.982897,4515.256246,9252.574275,-689.485948
175.983218,3108.864956,8956.491898,-1532.190996
175.983539,5699.585753,8216.285956,-1072.533697
175.983859,6439.791695,7624.121203,-229.828649
175.984180,3849.070898,7994.224174,0.000000
175.984501,3627.009116,8956.491898,229.828649
175.984822,2812.782580,9474.636058,76.609550
175.985142,1924.535449,8216.285956,-1072.533697
175.985463,4145.153275,8734.430116,689.485948
175.985784,5107.421000,9030.512492,1072.533697
175.986104,4293.194464,8734.430116,-536.266849
175.986425,4663.297435,8734.430116,-459.657299
175.986746,3627.009116,8364.327145,-689.485948
175.987067,3775.050304,6883.915261,229.828649
175.987387,5403.503377,6291.750507,1915.238745
175.987708,6661.853478,7402.059420,1072.533697
175.988029,3775.050304,9252.574275,-689.485948
175.988349,4737.318029,10732.986159,-1302.362347
175.988670,5329.482782,8882.471304,-1838.629195
175.988991,6365.771101,6439.791695,-306.438199
175.989312,7031.956449,6661.853478,1225.752797
175.989632,5329.482782,6513.812290,-383.047749
175.989953,3627.009116,7254.018232,-2757.943793
175.990274,6365.771101,9178.553681,-1915.238745
175.990594,6439.791695,9178.553681,0.000000
175.990915,7179.997637,7994.224174,76.609550
175.991236,7254.018232,7402.059420,-459.657299
175.991557,5625.565159,7328.038826,-1149.143247
175.991877,4737.318029,8660.409521,-383.047749
175.992198,4071.132681,7920.203579,383.047749
175.992519,5403.503377,6809.894666,-689.485948
175.992839,7105.977043,7402.059420,919.314598
175.993160,6143.709319,8808.450710,1532.190996
175.993481,3552.988522,8808.450710,76.609550
175.993802,3775.050304,8882.471304,-612.876398
175.994122,3478.967927,8364.327145,-536.266849
175.994443,4219.173869,8068.244768,689.485948
175.994764,4367.215058,7550.100608,1685.410096
175.995084,4441.235652,9326.594869,459.657299
175.995405,4145.153275,10214.842000,76.609550
175.995726,3997.112087,10288.862594,-1072.533697
175.996047,3182.885551,9178.553681,-919.314598
175.996367,2664.741391,7624.121203,0.000000
175.996688,4441.235652,8586.388927,1072.533697
175.997009,3997.112087,8882.471304,1149.143247
175.997329,2886.803174,8364.327145,-306.438199
175.997650,4737.318029,8882.471304,-766.095498
175.997971,4663.297435,7772.162391,0.000000
175.998292,4959.379811,7846.182985,229.828649
175.998612,6291.750507,7698.141797,842.705048
175.998933,5625.565159,7624.121203,536.266849
175.999254,6069.688724,7254.018232,383.047749
175.999574,6513.812290,7550.100608,306.438199
175.999895,5403.503377,7550.100608,-1225.752797
176.000216,5995.668130,6957.935855,-1378.971896
176.000537,7994.224174,6069.688724,-995.924147
176.000857,7105.977043,5625.565159,-1455.581446
176.001178,7105.977043,6735.874072,-1072.533697
176.001499,6439.791695,7402.059420,-536.266849
176.001819,6143.709319,7994.224174,-919.314598
176.002140,6661.853478,7994.224174,229.828649
176.002461,6291.750507,7254.018232,229.828649
176.002782,4737.318029,6143.709319,-1302.362347
176.003102,4959.379811,6957.935855,-919.314598
176.003423,6143.709319,7920.203579,153.219100
176.003744,6069.688724,8142.265362,612.876398
176.004064,4885.359217,7105.977043,-306.438199
176.004385,5181.441594,7254.018232,-1608.800546
176.004706,4811.338623,8364.327145,0.000000
176.005027,4219.173869,9178.553681,2145.067394
176.005347,4589.276840,8882.471304,1302.362347
176.005668,5403.503377,8142.265362,-995.924147
176.005989,6513.812290,9104.533087,-1225.752797
176.006309,5403.503377,9326.594869,-76.609550
176.006630,3034.844362,7920.203579,459.657299
176.006951,4515.256246,8142.265362,1302.362347
176.007272,5181.441594,8586.388927,1072.533697
176.007592,3849.070898,8660.409521,-229.828649
176.007913,4515.256246,8290.306550,-459.657299
176.008234,3849.070898,8142.265362,-689.485948
176.008554,4515.256246,8660.409521,-306.438199
176.008875,5477.523971,8290.306550,0.000000
176.009196,4885.359217,7402.059420,153.219100
176.009517,4589.276840,8068.244768,-229.828649
176.009837,5107.421000,9030.512492,0.000000
176.010158,4589.276840,9770.718434,-1072.533697
176.010479,4441.235652,8882.471304,-2298.286494
176.010799,3923.091493,9622.677246,-1685.410096
176.011120,4811.338623,9326.594869,-612.876398
176.011441,4293.194464,8660.409521,153.219100
176.011762,3923.091493,8512.368333,229.828649
176.012082,2368.659014,8660.409521,-153.219100
176.012403,2294.638420,9844.739029,-383.047749
176.012724,3478.967927,10288.862594,459.657299
176.013044,3182.885551,8660.409521,153.219100
176.013365,3182.885551,7328.038826,689.485948
176.013686,4145.153275,8290.306550,1225.752797
176.014007,1480.411884,8586.388927,76.609550
176.014327,1036.288319,7994.224174,-1072.533697
176.014648,3997.112087,9252.574275,-536.266849
176.014969,4885.359217,8882.471304,383.047749
176.015289,5477.523971,8956.491898,995.924147
176.015610,5699.585753,8216.285956,-306.438199
176.015931,3256.906145,7105.977043,-995.924147
176.016252,4219.173869,7476.080014,-689.485948
176.016572,6513.812290,8438.347739,612.876398
176.016893,6143.709319,7179.997637,-76.609550
176.017214,7254.018232,5699.585753,-1225.752797
176.017534,7550.100608,6735.874072,-689.485948
176.017855,5995.668130,7105.977043,-842.705048
176.018176,5921.647536,7105.977043,0.000000
176.018497,7550.100608,7105.977043,536.266849
176.018817,7402.059420,6661.853478,459.657299
176.019138,7846.182985,7920.203579,766.095498
176.019459,6143.709319,7772.162391,-1149.143247
176.019779,4885.359217,7476.080014,-2221.676944
176.020100,5033.400406,7920.203579,0.000000
176.020421,6439.791695,8808.450710,1532.190996
176.020742,5773.606348,7772.162391,383.047749
176.021062,4293.194464,6735.874072,0.000000
176.021383,3404.947333,8216.285956,-306.438199
176.021704,2442.679609,9474.636058,306.438199
176.022024,3034.844362,9030.512492,1225.752797
176.022345,4737.318029,7476.080014,1072.533697
176.022666,5255.462188,6809.894666,612.876398
176.022987,4219.173869,8290.306550,1149.143247
176.023307,2220.617826,9400.615463,-536.266849
176.023628,1850.514855,8290.306550,-1762.019645
176.023949,5773.606348,8438.347739,-459.657299
176.024269,6587.832884,8364.327145,919.314598
176.024590,5773.606348,7772.162391,76.609550
176.024911,5847.626942,8586.388927,-842.705048
176.025232,5033.400406,9178.553681,-1302.362347
176.025552,5033.400406,8808.450710,-383.047749
176.025873,6957.935855,7179.997637,153.219100
176.026194,6587.832884,6809.894666,-536.266849
176.026514,6217.729913,6217.729913,153.219100
176.026835,4811.338623,8142.265362,-612.876398
176.027156,4663.297435,8808.450710,-1915.238745
176.027477,3627.009116,8290.306550,-2681.334243
176.027797,5477.523971,8142.265362,-995.924147
176.028118,6143.709319,9104.533087,919.314598
176.028439,4811.338623,9030.512492,1225.752797
176.028759,3182.885551,9400.615463,306.438199
176.029080,2960.823768,9178.553681,-1072.533697
176.029401,2960.823768,8512.368333,-1378.971896
176.029722,3330.926739,8512.368333,383.047749
176.030042,4219.173869,8660.409521,383.047749
176.030363,3330.926739,8956.491898,229.828649
176.030684,3552.988522,9770.718434,842.705048
176.031005,2812.782580,8734.430116,0.000000
176.031325,2442.679609,7031.956449,-612.876398
176.031646,4293.194464,7698.141797,1072.533697
176.031967,5477.523971,10510.924376,2451.505594
176.032288,3849.070898,9844.739029,995.924147
176.032608,4885.359217,7624.121203,-1225.752797
176.032929,6661.853478,6291.750507,-995.924147
176.033250,4811.338623,7179.997637,76.609550
176.033571,5551.544565,8512.368333,1072.533697
176.033891,5921.647536,9400.615463,-1072.533697
176.034212,5699.585753,7698.141797,-2987.772442
176.034533,7254.018232,7698.141797,-1378.971896
176.034854,7179.997637,7105.977043,383.047749
176.035174,4441.235652,6439.791695,-1149.143247
176.035495,5921.647536,7994.224174,0.000000
176.035816,7254.018232,9770.718434,-153.219100
176.036137,4441.235652,8142.265362,-919.314598
176.036457,4219.173869,6365.771101,-766.095498
176.036778,4885.359217,7031.956449,-536.266849
176.037099,3552.988522,7698.141797,1302.362347
176.037420,4515.256246,7846.182985,2221.676944
176.037740,4959.379811,7698.141797,76.609550
176.038061,4367.215058,8660.409521,-1302.362347
176.038382,4663.297435,9918.759623,153.219100
176.038703,3182.885551,9548.656652,383.047749
176.039023,4441.235652,7550.100608,-536.266849
176.039344,5329.482782,7105.977043,0.000000
176.039665,4811.338623,6291.750507,229.828649
176.039986,3849.070898,7328.038826,153.219100
176.040306,3627.009116,10214.842000,1072.533697
176.040627,3627.009116,10584.944971,-766.095498
176.040948,5329.482782,8882.471304,-1378.971896
176.041269,7105.977043,7328.038826,153.219100
176.041589,5625.565159,7105.977043,766.095498
176.041910,5181.441594,7476.080014,1685.410096
176.042231,4737.318029,7550.100608,459.657299
176.042552,4367.215058,7105.977043,-1378.971896
176.042872,5551.544565,5847.626942,-1225.752797
176.043193,7698.141797,6513.812290,-459.657299
176.043514,7179.997637,7698.141797,-306.438199
176.043835,7328.038826,8808.450710,0.000000
176.044155,6883.915261,7994.224174,-1378.971896
176.044476,6069.688724,7179.997637,-1838.629195
176.044797,5847.626942,6513.812290,-459.657299
176.045118,5921.647536,7846.182985,306.438199
176.045438,4737.318029,9030.512492,-612.876398
176.045759,4737.318029,9622.677246,-1072.533697
176.046080,5847.626942,9178.553681,-1149.143247
176.046401,6143.709319,7105.977043,-459.657299
176.046721,4219.173869,6587.832884,1685.410096
176.047042,4219.173869,8068.244768,2221.676944
176.047363,3182.885551,9178.553681,1302.362347
176.047684,1776.494261,8216.285956,76.609550
176.048004,4737.318029,7179.997637,0.000000
176.048325,5477.523971,7105.977043,229.828649
176.048646,4071.132681,8364.327145,0.000000
176.048967,4589.276840,8512.368333,-306.438199
176.049287,4219.173869,9030.512492,-612.876398
176.049608,4293.194464,8216.285956,-919.314598
176.049929,5625.565159,8142.265362,76.609550
176.050250,5625.565159,7772.162391,0.000000
176.050570,5329.482782,8142.265362,-766.095498
176.050891,6291.750507,10214.842000,0.000000
176.051212,6883.915261,9918.759623,0.000000
176.051533,6069.688724,7476.080014,-842.705048
176.051853,5329.482782,5329.482782,0.000000
176.052174,4959.379811,5921.647536,229.828649
176.052495,4811.338623,7624.121203,76.609550
176.052816,4959.379811,7179.997637,-306.438199
176.053136,5921.647536,7698.141797,-766.095498
176.053457,6365.771101,9104.533087,0.000000
176.053778,4885.359217,9474.636058,383.047749
176.054099,3775.050304,8512.368333,-383.047749
176.054419,5403.503377,7402.059420,-1072.533697
176.054740,6439.791695,8290.306550,612.876398
176.055061,5255.462188,7328.038826,229.828649
176.055382,4663.297435,7402.059420,-1225.752797
176.055702,4959.379811,8142.265362,-1072.533697
176.056023,2960.823768,8882.471304,-229.828649
176.056344,4219.173869,8882.471304,0.000000
176.056665,5625.565159,7920.203579,76.609550
176.056985,4737.318029,7254.018232,0.000000
176.057306,6217.729913,7624.121203,1378.971896
176.057627,4811.338623,8216.285956,919.314598
176.057948,3404.947333,6661.853478,-1149.143247
176.058268,4737.318029,7031.956449,-919.314598
176.058589,6365.771101,7550.100608,306.438199
176.058910,5255.462188,8512.368333,306.438199
176.059231,6587.832884,9104.533087,766.095498
176.059551,5995.668130,8216.285956,-306.438199
176.059872,5403.503377,7476.080014,-1455.581446
176.060193,4737.318029,7105.977043,229.828649
176.060514,4811.338623,7772.162391,-229.828649
176.060834,5255.462188,7698.141797,-536.266849
176.061155,4885.359217,7328.038826,-306.438199
176.061476,5921.647536,8142.265362,-76.609550
176.061797,6587.832884,8734.430116,-689.485948
176.062117,4145.153275,7476.080014,-995.924147
176.062438,5107.421000,7550.100608,0.000000
176.062759,6291.750507,8808.450710,995.924147
176.063080,4589.276840,9104.533087,995.924147
176.063400,5329.482782,7476.080014,-919.314598
176.063721,6735.874072,5477.523971,-229.828649
176.064042,5107.421000,6957.935855,-306.438199
176.064363,5847.626942,7994.224174,-612.876398
176.064683,5625.565159,7476.080014,-383.047749
176.065004,6291.750507,7550.100608,0.000000
176.065325,7105.977043,8438.347739,1302.362347
176.065645,5699.585753,8882.471304,536.266849
176.065966,3997.112087,7846.182985,-2068.457845
176.066287,4959.379811,7772.162391,-1762.019645
176.066608,6365.771101,7994.224174,-229.828649
176.066928,5847.626942,7920.203579,536.266849
176.067249,5033.400406,7550.100608,0.000000
176.067570,4441.235652,7772.162391,-919.314598
176.067891,3627.009116,8364.327145,229.828649
176.068211,3923.091493,8882.471304,1762.019645
176.068532,3997.112087,8216.285956,-459.657299
176.068853,4293.194464,6143.709319,-612.876398
176.069174,5329.482782,7772.162391,459.657299
176.069494,3923.091493,8882.471304,1149.143247
176.069815,2960.823768,8586.388927,0.000000
176.070136,4663.297435,8216.285956,-1072.533697
176.070457,5699.585753,8808.450710,-766.095498
176.070777,5847.626942,8734.430116,-612.876398
176.071098,5403.503377,8882.471304,-459.657299
176.071419,4071.132681,7994.224174,-1685.410096
176.071740,5551.544565,9104.533087,-1072.533697
176.072060,4663.297435,8808.450710,1302.362347
176.072381,4885.359217,8808.450710,536.266849
176.072702,5847.626942,8438.347739,536.266849
176.073023,4959.379811,8512.368333,612.876398
176.073343,4367.215058,7624.121203,306.438199
176.073664,4441.235652,6735.874072,459.657299
176.073985,4145.153275,5921.647536,-153.219100
176.074306,4589.276840,6957.935855,-153.219100
176.074626,4441.235652,7994.224174,0.000000
176.074947,4959.379811,9326.594869,-459.657299
176.075268,5329.482782,9696.697840,-766.095498
176.075589,4811.338623,8438.347739,-1072.533697
176.075909,5329.482782,7772.162391,-153.219100
176.076230,5255.462188,7994.224174,306.438199
176.076551,4737.318029,8660.409521,76.609550
176.076872,5773.606348,8216.285956,383.047749
176.077192,6513.812290,6587.832884,-306.438199
176.077513,6291.750507,6883.915261,-1302.362347
176.077834,5625.565159,6291.750507,-689.485948
176.078155,6513.812290,7031.956449,229.828649
176.078475,6809.894666,7550.100608,919.314598
176.078796,6143.709319,6957.935855,1072.533697
176.079117,6661.853478,6957.935855,229.828649
176.079438,4885.359217,6883.915261,-1149.143247
176.079758,4811.338623,7402.059420,-612.876398
176.080079,5033.400406,8290.306550,612.876398
176.080400,5107.421000,7476.080014,-383.047749
176.080721,5995.668130,7624.121203,-1915.238745
176.081041,6143.709319,9252.574275,-1378.971896
176.081362,2368.659014,8956.491898,-1378.971896
176.081683,3256.906145,9474.636058,-383.047749
176.082004,4441.235652,8734.430116,842.705048
176.082324,4737.318029,7402.059420,612.876398
176.082645,5255.462188,7550.100608,995.924147
176.082966,3552.988522,8512.368333,-842.705048
176.083287,2368.659014,9104.533087,-1762.019645
176.083607,3404.947333,9474.636058,0.000000
176.083928,5181.441594,8956.491898,766.095498
176.084249,4071.132681,8216.285956,383.047749
176.084570,4071.132681,8364.327145,1302.362347
176.084890,3997.112087,9400.615463,383.047749
176.085211,3256.906145,9178.553681,-612.876398
176.085532,4737.318029,9178.553681,-459.657299
176.085853,6439.791695,9548.656652,-766.095498
176.086173,5181.441594,9696.697840,-689.485948
176.086494,5329.482782,9326.594869,919.314598
176.086815,5033.400406,8882.471304,995.924147
176.087136,4441.235652,7772.162391,459.657299
176.087456,3997.112087,7402.059420,-612.876398
176.087777,4367.215058,6143.709319,-2374.896044
176.088098,4885.359217,7402.059420,-1072.533697
176.088419,5699.585753,9252.574275,919.314598
176.088739,5181.441594,9252.574275,536.266849
176.089060,5181.441594,8512.368333,-766.095498
176.089381,4589.276840,8142.265362,-459.657299
176.089702,4367.215058,7920.203579,306.438199
176.090022,5255.462188,7624.121203,995.924147
176.090343,5107.421000,6291.750507,306.438199
176.090664,4811.338623,7105.977043,-1072.533697
176.090985,5181.441594,7846.182985,-1072.533697
176.091305,5255.462188,8808.450710,-689.485948
176.091626,5403.503377,9104.533087,229.828649
176.091947,5477.523971,8290.306550,919.314598
176.092268,4441.235652,8216.285956,306.438199
176.092588,5403.503377,6883.915261,536.266849
176.092909,4737.318029,5107.421000,842.705048
176.093230,4145.153275,4515.256246,0.000000
176.093551,5921.647536,7254.018232,-459.657299
176.093871,5551.544565,9992.780217,-995.924147
176.094192,4811.338623,8882.471304,-2604.724693
176.094513,7402.059420,6957.935855,-2145.067394
176.094834,7328.038826,6143.709319,0.000000
176.095154,5329.482782,6957.935855,766.095498
176.095475,5181.441594,7994.224174,612.876398
176.095796,5033.400406,7994.224174,-1225.752797
176.096117,4441.235652,8216.285956,-2068.457845
176.096437,6587.832884,9548.656652,-919.314598
176.096758,4737.318029,8512.368333,-1608.800546
176.097079,5033.400406,8290.306550,-1455.581446
176.097400,5625.565159,8586.388927,536.266849
176.097720,4663.297435,8586.388927,153.219100
176.098041,3849.070898,7105.977043,306.438199
176.098362,4293.194464,7031.956449,76.609550
176.098683,3404.947333,8882.471304,-919.314598
176.099003,3256.906145,10214.842000,1225.752797
176.099324,4959.379811,10807.006753,1302.362347
176.099645,5107.421000,9844.739029,76.609550
176.099966,4737.318029,9918.759623,766.095498
176.100286,3108.864956,10955.047942,0.000000
176.100607,222.061783,9844.739029,-1762.019645
176.100928,2072.576638,8290.306550,-1532.190996
176.101249,4293.194464,8216.285956,306.438199
176.101569,4293.194464,8808.450710,306.438199
176.101890,3478.967927,9918.759623,0.000000
176.102211,2812.782580,10584.944971,-689.485948
176.102532,3404.947333,10362.883188,-995.924147
176.102852,4145.153275,9030.512492,459.657299
176.103173,5181.441594,7624.121203,1225.752797
176.103494,4959.379811,7105.977043,766.095498
176.103815,4589.276840,7179.997637,689.485948
176.104135,4145.153275,7254.018232,-459.657299
176.104456,5181.441594,7550.100608,-2221.676944
176.104777,4959.379811,7328.038826,-2221.676944
176.105098,6513.812290,8216.285956,-612.876398
176.105418,7105.977043,8142.265362,1455.581446
176.105739,7031.956449,7772.162391,76.609550
176.106060,6217.729913,7179.997637,-1532.190996
176.106381,5625.565159,5995.668130,-1915.238745
176.106701,5181.441594,6809.894666,-1838.629195
176.107022,4515.256246,8364.327145,0.000000
176.107343,4663.297435,8808.450710,383.047749
176.107664,4885.359217,8734.430116,153.219100
176.107984,6439.791695,8142.265362,612.876398
176.108305,4071.132681,6957.935855,0.000000
176.108626,2368.659014,5995.668130,-383.047749
176.108947,3552.988522,7550.100608,612.876398
176.109267,3108.864956,7772.162391,1455.581446
176.109588,3552.988522,7105.977043,919.314598
176.109909,5995.668130,6957.935855,919.314598
176.110230,5033.400406,7254.018232,-306.438199
176.110550,5329.482782,7994.224174,-1762.019645
176.110871,7624.121203,9918.759623,-766.095498
176.111192,6587.832884,8956.491898,-766.095498
176.111513,6513.812290,6513.812290,-536.266849
176.111833,8438.347739,6143.709319,995.924147
176.112154,6809.894666,5773.606348,-229.828649
176.112475,5255.462188,7031.956449,-1608.800546
176.112796,6217.729913,8956.491898,-995.924147
176.113116,7179.997637,9474.636058,-1685.410096
176.113437,7328.038826,9326.594869,0.000000
176.113758,5995.668130,8808.450710,536.266849
176.114079,4293.194464,7772.162391,-919.314598
176.114399,3182.885551,7698.141797,306.438199
176.114720,4589.276840,8068.244768,1072.533697
176.115041,3034.844362,8068.244768,306.438199
176.115362,2886.803174,9326.594869,689.485948
176.115682,3923.091493,11399.171507,766.095498
176.116003,2294.638420,11991.336260,0.000000
176.116324,2590.720797,10510.924376,-536.266849
176.116645,3330.926739,7328.038826,-689.485948
176.116965,3108.864956,6365.771101,0.000000
176.117286,3701.029710,7624.121203,1915.238745
176.117607,2368.659014,9992.780217,1455.581446
176.117928,2146.597232,9770.718434,-1149.143247
176.118248,5477.523971,10584.944971,-995.924147
176.118569,5699.585753,9400.615463,0.000000
176.118890,5403.503377,7550.100608,1072.533697
176.119211,7031.956449,8068.244768,1149.143247
176.119531,5625.565159,7402.059420,0.000000
176.119852,3108.864956,6661.853478,-1915.238745
176.120173,6735.874072,6365.771101,-1302.362347
176.120494,6143.709319,7254.018232,-919.314598
176.120814,5181.441594,7476.080014,459.657299
176.121135,6809.894666,8068.244768,995.924147
176.121456,6365.771101,9030.512492,-153.219100
176.121777,4811.338623,6883.915261,-1762.019645
176.122097,5699.585753,5995.668130,-459.657299
176.122418,6069.688724,5255.462188,-536.266849
176.122739,4441.235652,7105.977043,-229.828649
176.123060,5255.462188,9326.594869,76.609550
176.123380,5403.503377,9326.594869,-1149.143247
176.123701,5329.482782,8808.450710,-842.705048
176.124022,4959.379811,7698.141797,536.266849
176.124343,5033.400406,7254.018232,153.219100
176.124663,2886.803174,6735.874072,0.000000
176.124984,3478.967927,6957.935855,229.828649
176.125305,5551.544565,7772.162391,1225.752797
176.125626,5181.441594,8586.388927,1532.190996
176.125946,4589.276840,9400.615463,76.609550
176.126267,4663.297435,9104.533087,-1608.800546
176.126588,4367.215058,8512.368333,-995.924147
176.126909,4219.173869,8364.327145,919.314598
176.127229,6217.729913,7254.018232,1915.238745
176.127550,5995.668130,6513.812290,229.828649
176.127871,4515.256246,6587.832884,-766.095498
176.128192,3775.050304,9030.512492,-1608.800546
176.128512,4737.318029,10066.800811,-1378.971896
176.128833,4515.256246,8586.388927,-612.876398
176.129154,7179.997637,7105.977043,459.657299
176.129475,6735.874072,7179.997637,842.705048
176.129795,4589.276840,7624.121203,-842.705048
176.130116,3404.947333,8068.244768,-2451.505594
176.130437,5033.400406,8808.450710,-1991.848295
176.130758,6069.688724,8734.430116,0.000000
176.131078,6809.894666,8956.491898,612.876398
176.131399,5033.400406,7328.038826,-1532.190996
176.131720,4071.132681,7920.203579,-2604.724693
176.132041,4367.215058,8586.388927,-459.657299
176.132361,3849.070898,7846.182985,1302.362347
176.132682,5921.647536,7179.997637,1455.581446
176.133003,7179.997637,7179.997637,1072.533697
176.133324,5329.482782,8808.450710,-306.438199
176.133644,3478.967927,9030.512492,459.657299
176.133965,3478.967927,7105.977043,0.000000
176.134286,5403.503377,5995.668130,-1532.190996
176.134607,6957.935855,6661.853478,-383.047749
176.134927,5255.462188,9400.615463,-306.438199
176.135248,4811.338623,10732.986159,-2374.896044
176.135569,3552.988522,9696.697840,-2451.505594
176.135890,4367.215058,8364.327145,-995.924147
176.136210,6513.812290,7179.997637,919.314598
176.136531,6513.812290,8216.285956,2221.676944
176.136852,4441.235652,8882.471304,842.705048
176.137173,4737.318029,8956.491898,-995.924147
176.137493,4959.379811,8586.388927,-1762.019645
176.137814,5625.565159,7328.038826,-1072.533697
176.138135,5995.668130,6365.771101,612.876398
176.138456,6587.832884,7031.956449,1302.362347
176.138776,6143.709319,7920.203579,919.314598
176.139097,5255.462188,8364.327145,383.047749
176.139418,4737.318029,7402.059420,-306.438199
176.139739,5107.421000,7031.956449,-306.438199
176.140059,6143.709319,8142.265362,536.266849
176.140380,6439.791695,9178.553681,536.266849
176.140701,6069.688724,8290.306550,-76.609550
176.141022,4737.318029,7920.203579,-919.314598
176.141342,5033.400406,8364.327145,-229.828649
176.141663,3552.988522,8586.388927,-229.828649
176.141984,3997.112087,8290.306550,-76.609550
176.142305,5403.503377,7105.977043,229.828649
176.142625,7179.997637,8068.244768,1532.190996
176.142946,5921.647536,9178.553681,612.876398
176.143267,3552.988522,7920.203579,-1149.143247
176.143588,3182.885551,6217.729913,-1608.800546
176.143908,5551.544565,7402.059420,383.047749
176.144229,5921.647536,8734.430116,2451.505594
176.144550,4811.338623,7105.977043,0.000000
176.144871,5921.647536,7328.038826,-2068.457845
176.145191,5403.503377,8364.327145,-1149.143247
176.145512,3775.050304,8512.368333,1072.533697
176.145833,5921.647536,8290.306550,1532.190996
176.146154,5995.668130,6513.812290,306.438199
176.146474,4811.338623,6513.812290,0.000000
176.146795,5181.441594,7698.141797,842.705048
176.147116,2368.659014,7254.018232,-1225.752797
176.147437,3182.885551,7105.977043,-3217.601092
176.147757,5773.606348,6957.935855,-919.314598
176.148078,6365.771101,8438.347739,0.000000
176.148399,5625.565159,9030.512492,-612.876398
176.148720,4959.379811,7920.203579,-842.705048
176.149040,3182.885551,7698.141797,-1608.800546
176.149361,4219.173869,8586.388927,229.828649
176.149682,5329.482782,8734.430116,1608.800546
176.150003,5033.400406,8216.285956,0.000000
176.150323,5403.503377,7105.977043,-842.705048
176.150644,4737.318029,8216.285956,-536.266849
176.150965,4071.132681,8290.306550,-995.924147
176.151286,4071.132681,7550.100608,-842.705048
176.151606,6513.812290,7920.203579,383.047749
176.151927,6883.915261,7402.059420,1225.752797
176.152248,5773.606348,7846.182985,1685.410096
176.152569,5255.462188,8882.471304,766.095498
176.152889,3478.967927,8216.285956,-612.876398
176.153210,5551.544565,8586.388927,-766.095498
176.153531,6735.874072,7550.100608,-995.924147
176.153852,6143.709319,6661.853478,-1225.752797
176.154172,6809.894666,7179.997637,-689.485948
176.154493,5551.544565,8882.471304,-383.047749
176.154814,3108.864956,9622.677246,-1225.752797
176.155135,4293.194464,10881.027347,-766.095498
176.155455,6439.791695,8956.491898,995.924147
176.155776,6661.853478,8956.491898,1149.143247
176.156097,6291.750507,9326.594869,1838.629195
176.156418,2886.803174,8808.450710,-536.266849
176.156738,3478.967927,7476.080014,-1608.800546
176.157059,5477.523971,5995.668130,612.876398
176.157380,5995.668130,6587.832884,1302.362347
176.157701,6513.812290,7476.080014,842.705048
176.158021,5181.441594,8660.409521,76.609550
176.158342,5329.482782,8808.450710,0.000000
176.158663,6587.832884,7328.038826,842.705048
176.158984,6883.915261,5477.523971,1225.752797
176.159304,6587.832884,6217.729913,-229.828649
176.159625,5699.585753,7105.977043,-995.924147
176.159946,5033.400406,8290.306550,-689.485948
176.160267,6957.935855,8216.285956,-1302.362347
176.160587,6513.812290,7328.038826,-1608.800546
176.160908,5551.544565,7254.018232,-1072.533697
176.161229,6291.750507,8068.244768,689.485948
176.161550,4441.235652,8438.347739,1532.190996
176.161870,4219.173869,7772.162391,766.095498
176.162191,3923.091493,6809.894666,536.266849
176.162512,3775.050304,6217.729913,-536.266849
176.162833,3849.070898,7698.141797,-689.485948
176.163153,3108.864956,9104.533087,153.219100
176.163474,4071.132681,9326.594869,0.000000
176.163795,4515.256246,8068.244768,536.266849
176.164116,3997.112087,8142.265362,459.657299
176.164436,3182.885551,9400.615463,0.000000
176.164757,2664.741391,9030.512492,-76.609550
176.165078,3701.029710,8882.471304,995.924147
176.165399,3627.009116,9178.553681,1762.019645
176.165719,2738.761985,8512.368333,1302.362347
176.166040,3552.988522,9104.533087,-76.609550
176.166361,3182.885551,8808.450710,-306.438199
176.166682,3849.070898,8216.285956,-536.266849
176.167002,5033.400406,8142.265362,-459.657299
176.167323,5181.441594,7105.977043,0.000000
176.167644,4515.256246,7328.038826,995.924147
176.167965,6291.750507,8586.388927,2528.115143
176.168285,4811.338623,9178.553681,1149.143247
176.168606,4811.338623,8882.471304,-1532.190996
176.168927,5403.503377,7105.977043,-2528.115143
176.169248,6883.915261,6809.894666,-2221.676944
176.169568,6513.812290,7105.977043,-689.485948
176.169889,6587.832884,7772.162391,76.609550
176.170210,6513.812290,7698.141797,-2068.457845
176.170531,6217.729913,7846.182985,-1532.190996
176.170851,5255.462188,9030.512492,-689.485948
176.171172,4737.318029,8734.430116,76.609550
176.171493,5477.523971,8512.368333,306.438199
176.171814,6291.750507,8290.306550,689.485948
176.172134,4737.318029,6809.894666,-459.657299
176.172455,4071.132681,6217.729913,-919.314598
176.172776,2368.659014,6513.812290,-1149.143247
176.173097,2368.659014,7105.977043,-612.876398
176.173417,4959.379811,9400.615463,1302.362347
176.173738,5773.606348,11029.068536,1072.533697
176.174059,4293.194464,10288.862594,-995.924147
176.174380,4811.338623,7402.059420,-76.609550
176.174700,4737.318029,7328.038826,0.000000
176.175021,4663.297435,7328.038826,536.266849
176.175342,4737.318029,7328.038826,76.609550
176.175663,6069.688724,7105.977043,-2145.067394
176.175983,7031.956449,7698.141797,-1838.629195
176.176304,5477.523971,8142.265362,-306.438199
176.176625,5773.606348,8068.244768,459.657299
176.176946,7031.956449,7031.956449,76.609550
176.177266,6957.935855,6809.894666,-689.485948
176.177587,6661.853478,7179.997637,-306.438199
176.177908,6587.832884,7698.141797,0.000000
176.178229,5551.544565,7550.100608,-536.266849
176.178549,5551.544565,8808.450710,-536.266849
176.178870,5625.565159,10066.800811,-1225.752797
176.179191,4737.318029,9474.636058,-1532.190996
176.179512,3701.029710,7624.121203,-689.485948
176.179832,4663.297435,8734.430116,536.266849
176.180153,3478.967927,9622.677246,1532.190996
176.180474,1850.514855,9770.718434,919.314598
176.180795,1924.535449,9326.594869,612.876398
176.181115,2664.741391,8660.409521,1302.362347
176.181436,2294.638420,9030.512492,2221.676944
176.181757,2294.638420,9252.574275,1455.581446
176.182078,1628.453072,9326.594869,-919.314598
176.182398,2368.659014,9030.512492,-536.266849
176.182719,4515.256246,7476.080014,919.314598
176.183040,4663.297435,7179.997637,919.314598
176.183361,4589.276840,7994.224174,1455.581446
176.183681,4071.132681,9252.574275,536.266849
176.184002,4589.276840,9030.512492,-842.705048
176.184323,5995.668130,7624.121203,-995.924147
176.184644,9030.512492,7550.100608,306.438199
176.184964,7920.203579,6587.832884,536.266849
176.185285,7105.977043,5921.647536,-153.219100
176.185606,6365.771101,6439.791695,-612.876398
176.185927,6217.729913,5625.565159,-1302.362347
176.186247,7031.956449,5625.565159,-459.657299
176.186568,8660.409521,6439.791695,76.609550
176.186889,6365.771101,7179.997637,-995.924147
176.187210,3923.091493,7698.141797,-995.924147
176.187530,4145.153275,6587.832884,-383.047749
176.187851,5625.565159,7031.956449,612.876398
176.188172,4959.379811,7179.997637,1225.752797
176.188493,3256.906145,8364.327145,-1072.533697
176.188813,3701.029710,9178.553681,-3140.991542
176.189134,4145.153275,8438.347739,-612.876398
176.189455,4515.256246,8956.491898,1302.362347
176.189776,5181.441594,9104.533087,2374.896044
176.190096,3478.967927,7698.141797,842.705048
176.190417,2960.823768,6661.853478,-153.219100
176.190738,3849.070898,7328.038826,306.438199
176.191059,4293.194464,8956.491898,612.876398
176.191379,4293.194464,8660.409521,-306.438199
176.191700,6365.771101,8142.265362,-536.266849
176.192021,7105.977043,8808.450710,153.219100
176.192342,5773.606348,8660.409521,689.485948
176.192662,3775.050304,7772.162391,0.000000
176.192983,4219.173869,8734.430116,-306.438199
176.193304,4811.338623,10066.800811,0.000000
176.193625,6291.750507,9622.677246,459.657299
176.193945,6883.915261,8290.306550,-919.314598
176.194266,5329.482782,7328.038826,-2757.943793
176.194587,3997.112087,7920.203579,-1915.238745
176.194908,3034.844362,9104.533087,-766.095498
176.195228,4441.235652,9178.553681,-1302.362347
176.195549,5847.626942,8956.491898,-229.828649
176.195870,5551.544565,9770.718434,0.000000
176.196191,4663.297435,10214.842000,-459.657299
176.196511,1850.514855,10362.883188,-766.095498
176.196832,2664.741391,7698.141797,-766.095498
176.197153,4737.318029,6439.791695,383.047749
176.197474,4959.379811,7328.038826,919.314598
176.197794,3404.947333,9326.594869,229.828649
176.198115,3256.906145,9918.759623,-229.828649
176.198436,4367.215058,8956.491898,-306.438199
176.198757,5477.523971,8290.306550,536.266849
176.199077,5181.441594,7179.997637,1302.362347
176.199398,5107.421000,7105.977043,459.657299
176.199719,4071.132681,7328.038826,76.609550
176.200040,3627.009116,7994.224174,306.438199
176.200360,4811.338623,7994.224174,-842.705048
176.200681,6587.832884,7031.956449,-1608.800546
176.201002,6365.771101,6957.935855,-1302.362347
176.201323,6809.894666,8290.306550,-842.705048
176.201643,5847.626942,9030.512492,229.828649
176.201964,5255.462188,8438.347739,-153.219100
176.202285,5403.503377,6513.812290,76.609550
176.202606,7624.121203,6661.853478,-306.438199
176.202926,6291.750507,6957.935855,536.266849
176.203247,5921.647536,6809.894666,-536.266849
176.203568,5995.668130,6735.874072,-1378.971896
176.203889,6291.750507,5625.565159,-306.438199
176.204209,6365.771101,6143.709319,689.485948
176.204530,6217.729913,6513.812290,689.485948
176.204851,6217.729913,7105.977043,0.000000
176.205172,6143.709319,9030.512492,-306.438199
176.205492,6587.832884,8660.409521,-689.485948
176.205813,5773.606348,8142.265362,0.000000
176.206134,5847.626942,7846.182985,459.657299
176.206455,5403.503377,7476.080014,842.705048
176.206775,4885.359217,9400.615463,1072.533697
176.207096,2368.659014,9696.697840,536.266849
176.207417,1702.473667,8660.409521,-689.485948
176.207738,3034.844362,7550.100608,306.438199
176.208058,2886.803174,7772.162391,2068.457845
176.208379,3256.906145,9030.512492,2604.724693
176.208700,3404.947333,8586.388927,306.438199
176.209021,1850.514855,8142.265362,-2298.286494
176.209341,3034.844362,9918.759623,-1072.533697
176.209662,3923.091493,10732.986159,536.266849
176.209983,3775.050304,9548.656652,-153.219100
176.210304,4959.379811,7698.141797,-1149.143247
176.210624,6217.729913,8216.285956,-306.438199
176.210945,4441.235652,8512.368333,-459.657299
176.211266,4145.153275,8734.430116,-459.657299
176.211587,4663.297435,9104.533087,-459.657299
176.211907,6587.832884,9400.615463,-153.219100
176.212228,6809.894666,8808.450710,536.266849
176.212549,5699.585753,7624.121203,-536.266849
176.212870,3701.029710,7105.977043,-995.924147
176.213190,3997.112087,7772.162391,919.314598
176.213511,4811.338623,7624.121203,1072.533697
176.213832,4885.359217,7624.121203,-766.095498
176.214153,4367.215058,7772.162391,-1302.362347
176.214473,4441.235652,9030.512492,-1302.362347
176.214794,3775.050304,9326.594869,229.828649
176.215115,4737.318029,9622.677246,1302.362347
176.215436,3775.050304,9474.636058,153.219100
176.215756,3701.029710,7550.100608,-1225.752797
176.216077,2516.700203,7846.182985,-459.657299
176.216398,3404.947333,8586.388927,153.219100
176.216719,4145.153275,7698.141797,-536.266849
176.217039,7105.977043,6291.750507,-995.924147
176.217360,7550.100608,6513.812290,-1378.971896
176.217681,6365.771101,7846.182985,-459.657299
176.218002,5181.441594,7254.018232,229.828649
176.218322,6291.750507,6587.832884,-689.485948
176.218643,7920.203579,7105.977043,-1072.533697
176.218964,8438.347739,7920.203579,-383.047749
176.219285,7846.182985,8068.244768,-1991.848295
176.219605,7105.977043,7031.956449,-2221.676944
176.219926,7698.141797,6661.853478,-766.095498
176.220247,8364.327145,6809.894666,1378.971896
176.220568,6513.812290,6883.915261,689.485948
176.220888,5847.626942,6957.935855,-842.705048
176.221209,5921.647536,7550.100608,-689.485948
176.221530,6069.688724,7476.080014,536.266849
176.221851,4737.318029,6365.771101,689.485948
176.222171,5107.421000,7031.956449,-689.485948
176.222492,4589.276840,8216.285956,-2451.505594
176.222813,4885.359217,9844.739029,-1838.629195
176.223134,4219.173869,10140.821405,-459.657299
176.223454,4145.153275,9474.636058,306.438199
176.223775,3478.967927,8956.491898,919.314598
176.224096,2368.659014,9030.512492,842.705048
176.224417,3330.926739,9844.739029,383.047749
176.224737,4145.153275,9992.780217,919.314598
176.225058,3404.947333,8438.347739,0.000000
176.225379,4145.153275,7698.141797,-229.828649
176.225700,4293.194464,9918.759623,383.047749
176.226020,2886.803174,9622.677246,306.438199
176.226341,3849.070898,7698.141797,-153.219100
176.226662,8068.244768,7105.977043,919.314598
176.226983,4811.338623,8512.368333,459.657299
176.227303,1924.535449,7994.224174,-459.657299
176.227624,3997.112087,8142.265362,-612.876398
176.227945,6217.729913,9474.636058,229.828649
176.228266,6291.750507,9770.718434,919.314598
176.228586,6365.771101,9030.512492,-459.657299
176.228907,3849.070898,7105.977043,-2757.943793
176.229228,3849.070898,8290.306550,-1378.971896
176.229549,3552.988522,8882.471304,1378.971896
176.229869,4885.359217,7698.141797,229.828649
176.230190,6661.853478,6661.853478,-689.485948
176.230511,5921.647536,8068.244768,-995.924147
176.230832,3182.885551,8216.285956,-153.219100
176.231152,3923.091493,7550.100608,766.095498
176.231473,4737.318029,6513.812290,995.924147
176.231794,4959.379811,6439.791695,306.438199
176.232115,5255.462188,7031.956449,-536.266849
176.232435,5329.482782,8882.471304,-1225.752797
176.232756,4811.338623,9252.574275,-1378.971896
176.233077,5625.565159,8142.265362,0.000000
176.233397,6217.729913,6957.935855,383.047749
176.233718,5625.565159,6735.874072,689.485948
176.234039,5255.462188,8216.285956,2145.067394
176.234359,4367.215058,8660.409521,1915.238745
176.234680,4959.379811,7402.059420,-229.828649
176.235001,4663.297435,6217.729913,-842.705048
176.235321,4589.276840,6365.771101,-1225.752797
176.235642,5403.503377,5995.668130,229.828649
176.235963,7105.977043,6661.853478,842.705048
176.236283,5699.585753,8068.244768,-612.876398
176.236604,5107.421000,8068.244768,-1685.410096
176.236924,5329.482782,7698.141797,-1225.752797
176.237245,7179.997637,7994.224174,-536.266849
176.237566,7624.121203,8290.306550,689.485948
176.237886,8734.430116,7920.203579,383.047749
176.238207,7105.977043,6883.915261,-2145.067394
176.238528,6365.771101,6513.812290,-3217.601092
176.238848,6957.935855,7328.038826,-1762.019645
176.239169,6587.832884,7772.162391,153.219100
176.239490,5847.626942,7105.977043,-612.876398
176.239810,7698.141797,8068.244768,536.266849
176.240131,6957.935855,7550.100608,1991.848295
176.240451,3849.070898,7476.080014,1225.752797
176.240772,3330.926739,8142.265362,459.657299
176.241093,4145.153275,9992.780217,-842.705048
176.241413,2886.803174,9622.677246,-766.095498
176.241734,4367.215058,8512.368333,-995.924147
176.242055,4811.338623,7920.203579,-1378.971896
176.242375,1924.535449,8438.347739,-1532.190996
176.242696,1924.535449,10140.821405,76.609550
176.243017,1406.391290,11325.150913,383.047749
176.243337,2368.659014,10807.006753,0.000000
176.243658,4885.359217,11251.130318,1072.533697
176.243979,4367.215058,10288.862594,1225.752797
176.244299,2368.659014,8364.327145,-919.314598
176.244620,4071.132681,8364.327145,76.609550
176.244940,3404.947333,7031.956449,-842.705048
176.245261,5551.544565,7105.977043,-1302.362347
176.245582,6661.853478,7328.038826,76.609550
176.245902,4811.338623,9400.615463,-1302.362347
176.246223,5255.462188,9844.739029,-536.266849
176.246544,6883.915261,10140.821405,1455.581446
176.246864,7179.997637,8956.491898,766.095498
176.247185,6069.688724,7328.038826,612.876398
176.247506,5329.482782,7550.100608,76.609550
176.247826,3552.988522,8290.306550,-2068.457845
176.248147,2960.823768,7698.141797,-1532.190996
176.248468,4441.235652,7402.059420,-459.657299
176.248788,4663.297435,6883.915261,0.000000
176.249109,5033.400406,7994.224174,1455.581446
176.249429,4367.215058,9992.780217,1685.410096
176.249750,1702.473667,9770.718434,536.266849
176.250071,1850.514855,7105.977043,306.438199
176.250391,3923.091493,6143.709319,1072.533697
176.250712,5773.606348,6069.688724,1455.581446
176.251033,5477.523971,7328.038826,1608.800546
176.251353,4441.235652,9178.553681,-306.438199
176.251674,4071.132681,8364.327145,-1915.238745
176.251995,6883.915261,6661.853478,-995.924147
176.252315,7105.977043,5773.606348,306.438199
176.252636,7179.997637,6143.709319,229.828649
176.252956,6883.915261,6217.729913,229.828649
176.253277,7846.182985,6809.894666,-229.828649
176.253598,6957.935855,6661.853478,-766.095498
176.253918,6957.935855,6365.771101,-76.609550
176.254239,5995.668130,6735.874072,-1532.190996
176.254560,7105.977043,6957.935855,-1378.971896
176.254880,5551.544565,7550.100608,612.876398
176.255201,8290.306550,8142.265362,1838.629195
176.255522,5699.585753,5699.585753,995.924147
176.255842,3701.029710,5033.400406,-612.876398
176.256163,3701.029710,7402.059420,306.438199
176.256484,4589.276840,9030.512492,612.876398
176.256804,3478.967927,7772.162391,76.609550
176.257125,9104.533087,7698.141797,-536.266849
176.257445,7698.141797,8142.265362,-1532.190996
176.257766,3034.844362,8660.409521,-2374.896044
176.258087,3330.926739,7550.100608,0.000000
176.258407,5699.585753,8068.244768,306.438199
176.258728,6587.832884,9178.553681,0.000000
176.259049,5255.462188,10436.903782,-306.438199
176.259369,3627.009116,10362.883188,-3140.991542
176.259690,4145.153275,10955.047942,-2604.724693
176.260011,5329.482782,10955.047942,1225.752797
176.260331,4219.173869,8586.388927,1532.190996
176.260652,4293.194464,7550.100608,766.095498
176.260973,2886.803174,7624.121203,919.314598
176.261293,666.185348,9178.553681,153.219100
176.261614,888.247130,9104.533087,1455.581446
176.261934,4071.132681,9548.656652,995.924147
176.262255,4367.215058,8882.471304,-1149.143247
176.262576,4071.132681,8586.388927,-1149.143247
176.262896,4515.256246,10140.821405,-766.095498
176.263217,2072.576638,10658.965565,-1608.800546
176.263538,1924.535449,10214.842000,-459.657299
176.263858,5033.400406,9548.656652,0.000000
176.264179,4441.235652,8808.450710,-1149.143247
176.264500,4219.173869,9548.656652,-919.314598
176.264820,4663.297435,9622.677246,0.000000
176.265141,4071.132681,8808.450710,-995.924147
176.265462,4737.318029,8068.244768,-459.657299
176.265782,5255.462188,7550.100608,459.657299
176.266103,5625.565159,7624.121203,-153.219100
176.266423,6217.729913,7550.100608,1149.143247
176.266744,5181.441594,7698.141797,1302.362347
176.267065,4367.215058,7105.977043,153.219100
176.267385,4885.359217,6661.853478,-306.438199
176.267706,4737.318029,6809.894666,-383.047749
176.268027,5699.585753,7550.100608,-459.657299
176.268347,5995.668130,8512.368333,0.000000
176.268668,5773.606348,8364.327145,-919.314598
176.268989,5477.523971,7476.080014,-1378.971896
176.269309,6217.729913,6735.874072,-1072.533697
176.269630,5033.400406,7105.977043,383.047749
176.269950,5255.462188,7328.038826,1915.238745
176.270271,4885.359217,7476.080014,1762.019645
176.270592,7772.162391,8216.285956,995.924147
176.270912,5625.565159,5625.565159,0.000000
176.271233,3701.029710,4959.379811,-1378.971896
176.271554,5625.565159,5551.544565,0.000000
176.271874,7402.059420,7031.956449,1302.362347
176.272195,5995.668130,6661.853478,76.609550
176.272516,7624.121203,6809.894666,-1225.752797
176.272836,7328.038826,7031.956449,-1991.848295
176.273157,6365.771101,8290.306550,-842.705048
176.273478,6217.729913,8364.327145,1225.752797
176.273798,6883.915261,8216.285956,1225.752797
176.274119,6439.791695,7254.018232,-306.438199
176.274439,5773.606348,7031.956449,-995.924147
176.274760,4589.276840,6365.771101,-1378.971896
176.275081,3775.050304,7402.059420,-1762.019645
176.275401,4663.297435,8068.244768,536.266849
176.275722,4959.379811,8734.430116,306.438199
176.276043,5995.668130,8068.244768,459.657299
176.276363,5033.400406,8438.347739,689.485948
176.276684,3034.844362,8734.430116,0.000000
176.277005,2442.679609,8142.265362,0.000000
176.277325,4145.153275,8512.368333,76.609550
176.277646,3997.112087,9474.636058,153.219100
176.277967,4367.215058,9770.718434,0.000000
176.278287,4589.276840,10140.821405,-766.095498
176.278608,3849.070898,10584.944971,-1532.190996
176.278928,2442.679609,10214.842000,-1685.410096
176.279249,4293.194464,9622.677246,-306.438199
176.279570,4441.235652,8660.409521,76.609550
176.279890,5181.441594,8142.265362,1991.848295
176.280211,3256.906145,9326.594869,2528.115143
176.280532,2516.700203,9622.677246,76.609550
176.280852,2072.576638,9400.615463,-2298.286494
176.281173,4441.235652,8808.450710,-2221.676944
176.281494,5551.544565,9104.533087,-1455.581446
176.281814,5403.503377,9696.697840,0.000000
176.282135,3701.029710,8586.388927,536.266849
176.282455,3849.070898,8882.471304,-536.266849
176.282776,3256.906145,8734.430116,-612.876398
176.283097,4737.318029,9770.718434,229.828649
176.283417,5255.462188,9252.574275,842.705048
176.283738,5921.647536,8586.388927,459.657299
176.284059,5255.462188,7550.100608,76.609550
176.284379,5033.400406,7105.977043,-536.266849
176.284700,5255.462188,6735.874072,-995.924147
176.285021,4959.379811,6291.750507,-1455.581446
176.285341,6809.894666,7179.997637,-459.657299
176.285662,6217.729913,9326.594869,306.438199
176.285983,7105.977043,9474.636058,1378.971896
176.286303,7328.038826,7105.977043,1532.190996
176.286624,7179.997637,5255.462188,383.047749
176.286944,4959.379811,4737.318029,-383.047749
176.287265,5699.585753,6809.894666,459.657299
176.287586,3701.029710,6291.750507,-612.876398
176.287906,5255.462188,4811.338623,-1378.971896
176.288227,9252.574275,6291.750507,0.000000
176.288548,5847.626942,7698.141797,-459.657299
176.288868,4811.338623,6513.812290,-1838.629195
176.289189,7550.100608,7105.977043,-229.828649
176.289510,7105.977043,7994.224174,0.000000
176.289830,6587.832884,7624.121203,842.705048
176.290151,5995.668130,6143.709319,995.924147
176.290472,5477.523971,6069.688724,-1532.190996
176.290792,5995.668130,7994.224174,-459.657299
176.291113,5107.421000,9252.574275,306.438199
176.291433,5551.544565,7920.203579,-995.924147
176.291754,6661.853478,7105.977043,383.047749
176.292075,4737.318029,7402.059420,689.485948
176.292395,2886.803174,8290.306550,842.705048
176.292716,2886.803174,7402.059420,1915.238745
176.293037,4737.318029,8290.306550,1915.238745
176.293357,4145.153275,8364.327145,1838.629195
176.293678,2886.803174,7994.224174,-229.828649
176.293999,3034.844362,9178.553681,-1455.581446
176.294319,2738.761985,8586.388927,-1455.581446
176.294640,4959.379811,8586.388927,-919.314598
176.294961,5847.626942,9030.512492,-1072.533697
176.295281,4959.379811,9918.759623,-2068.457845
176.295602,4885.359217,11029.068536,-766.095498
176.295922,3997.112087,10140.821405,842.705048
176.296243,2960.823768,9326.594869,995.924147
176.296564,5255.462188,8956.491898,1302.362347
176.296884,5033.400406,7994.224174,153.219100
176.297205,5329.482782,7402.059420,-1149.143247
176.297526,4367.215058,7031.956449,-612.876398
176.297846,3330.926739,7698.141797,-1072.533697
176.298167,4589.276840,7105.977043,0.000000
176.298488,6069.688724,7920.203579,383.047749
176.298808,6735.874072,9474.636058,153.219100
176.299129,5107.421000,10436.903782,0.000000
176.299449,3627.009116,9548.656652,-153.219100
176.299770,4293.194464,8364.327145,229.828649
176.300091,5551.544565,7328.038826,0.000000
176.300411,4071.132681,6809.894666,-995.924147
176.300732,4737.318029,6957.935855,-2298.286494
176.301053,5181.441594,7179.997637,-1838.629195
176.301373,5329.482782,7698.141797,306.438199
176.301694,6069.688724,8512.368333,1225.752797
176.302015,5625.565159,7920.203579,536.266849
176.302335,5107.421000,6439.791695,-459.657299
176.302656,6365.771101,7031.956449,-306.438199
176.302977,5847.626942,7846.182985,536.266849
176.303297,3849.070898,6069.688724,-1225.752797
176.303618,6439.791695,4811.338623,-1991.848295
176.303938,7772.162391,7254.018232,-1378.971896
176.304259,5477.523971,9474.636058,-842.705048
176.304580,6809.894666,10140.821405,689.485948
176.304900,6735.874072,9400.615463,-919.314598
176.305221,6291.750507,8216.285956,-1302.362347
176.305542,5773.606348,7476.080014,842.705048
176.305862,5181.441594,6513.812290,1378.971896
176.306183,4441.235652,7402.059420,689.485948
176.306504,4441.235652,8290.306550,2145.067394
176.306824,3256.906145,8068.244768,0.000000
176.307145,3775.050304,8364.327145,-1072.533697
176.307466,3775.050304,8142.265362,229.828649
176.307786,3849.070898,8364.327145,383.047749
176.308107,4441.235652,7476.080014,919.314598
176.308427,5181.441594,8882.471304,1149.143247
176.308748,4071.132681,8364.327145,76.609550
176.309069,4145.153275,7402.059420,-766.095498
176.309389,5773.606348,8808.450710,-766.095498
176.309710,5403.503377,9844.739029,-536.266849
176.310031,4293.194464,8290.306550,-536.266849
176.310351,8216.285956,7105.977043,-919.314598
176.310672,7698.141797,7105.977043,-842.705048
176.310993,5181.441594,7550.100608,-536.266849
176.311313,4737.318029,6735.874072,-76.609550
176.311634,5403.503377,6661.853478,-536.266849
176.311954,7328.038826,7476.080014,919.314598
176.312275,6883.915261,9178.553681,2221.676944
176.312596,5255.462188,9326.594869,-229.828649
176.312916,3701.029710,7994.224174,-1072.533697
176.313237,3923.091493,7994.224174,153.219100
176.313558,2590.720797,7254.018232,76.609550
176.313878,2664.741391,7846.182985,76.609550
176.314199,2960.823768,7920.203579,-689.485948
176.314520,3627.009116,9030.512492,-1302.362347
176.314840,3034.844362,10510.924376,-153.219100
176.315161,3775.050304,10510.924376,0.000000
176.315482,4219.173869,10362.883188,153.219100
176.315802,3849.070898,9104.533087,536.266849
176.316123,3182.885551,8438.347739,919.314598
176.316443,3552.988522,7772.162391,919.314598
176.316764,3552.988522,6587.832884,0.000000
176.317085,5477.523971,5921.647536,-689.485948
176.317405,6291.750507,7624.121203,-1608.800546
176.317726,6513.812290,9992.780217,-1532.190996
176.318047,8290.306550,9474.636058,0.000000
176.318367,8438.347739,7920.203579,612.876398
176.318688,7624.121203,6661.853478,1149.143247
176.319009,7328.038826,7624.121203,1302.362347
176.319329,5847.626942,8142.265362,-612.876398
176.319650,5773.606348,6735.874072,-2145.067394
176.319971,8216.285956,5773.606348,-1302.362347
176.320291,6513.812290,5921.647536,-842.705048
176.320612,4145.153275,6957.935855,-1302.362347
176.320932,4589.276840,8290.306550,459.657299
176.321253,6143.709319,9474.636058,76.609550
176.321574,5551.544565,8734.430116,-229.828649
176.321894,4959.379811,8216.285956,0.000000
176.322215,3404.947333,6735.874072,-689.485948
176.322536,3108.864956,6809.894666,-536.266849
176.322856,3034.844362,7846.182985,766.095498
176.323177,4737.318029,9474.636058,0.000000
176.323498,4441.235652,9252.574275,-689.485948
176.323818,4959.379811,8734.430116,-1378.971896
176.324139,4071.132681,8586.388927,-1532.190996
176.324460,2442.679609,8068.244768,306.438199
176.324780,4145.153275,7105.977043,1378.971896
176.325101,6439.791695,7550.100608,1072.533697
176.325421,5551.544565,7698.141797,383.047749
176.325742,3997.112087,9622.677246,-306.438199
176.326063,3849.070898,10658.965565,-919.314598
176.326383,5403.503377,9252.574275,-1532.190996
176.326704,6661.853478,7476.080014,0.000000
176.327025,6513.812290,6439.791695,383.047749
176.327345,5477.523971,6513.812290,-1225.752797
176.327666,3627.009116,6069.688724,-612.876398
176.327987,3923.091493,8734.430116,-229.828649
176.328307,5403.503377,10362.883188,-383.047749
176.328628,5033.400406,10658.965565,-306.438199
176.328948,5995.668130,9918.759623,229.828649
176.329269,6069.688724,8512.368333,842.705048
176.329590,2960.823768,5699.585753,306.438199
176.329910,2442.679609,5107.421000,-383.047749
176.330231,2664.741391,6587.832884,-842.705048
176.330552,4885.359217,9252.574275,-1532.190996
176.330872,5033.400406,11029.068536,-459.657299
176.331193,5329.482782,11621.233289,612.876398
176.331514,5181.441594,9918.759623,229.828649
176.331834,4589.276840,8142.265362,919.314598
176.332155,2960.823768,7624.121203,-383.047749
176.332475,3627.009116,8438.347739,-1149.143247
176.332796,3849.070898,7772.162391,-306.438199
176.333117,4959.379811,8660.409521,76.609550
176.333437,4515.256246,8438.347739,1838.629195
176.333758,3552.988522,8808.450710,766.095498
176.334078,4811.338623,9104.533087,689.485948
176.334399,5181.441594,7846.182985,153.219100
176.334720,4959.379811,6069.688724,153.219100
176.335040,5255.462188,6735.874072,0.000000
176.335361,4663.297435,7920.203579,-383.047749
176.335681,4293.194464,7994.224174,-1302.362347
176.336002,6735.874072,7846.182985,-459.657299
176.336323,8660.409521,8364.327145,-306.438199
176.336643,7105.977043,7624.121203,-919.314598
176.336964,5255.462188,6143.709319,-1915.238745
176.337284,5625.565159,7031.956449,-1762.019645
176.337605,6883.915261,8142.265362,383.047749
176.337926,6439.791695,7254.018232,2068.457845
176.338246,7920.203579,5699.585753,383.047749
176.338567,7920.203579,6587.832884,-1532.190996
176.338887,3775.050304,8364.327145,-1915.238745
176.339208,2812.782580,8216.285956,-995.924147
176.339529,4737.318029,6883.915261,0.000000
176.339849,7402.059420,7402.059420,536.266849
176.340170,5699.585753,8438.347739,383.047749
176.340490,2294.638420,8882.471304,-1225.752797
176.340811,1702.473667,9696.697840,-1915.238745
176.341132,3108.864956,10584.944971,-76.609550
176.341452,4071.132681,9326.594869,1915.238745
176.341773,5255.462188,9030.512492,1225.752797
176.342093,3997.112087,8882.471304,76.609550
176.342414,1924.535449,9104.533087,-1302.362347
176.342735,2442.679609,7846.182985,306.438199
176.343055,4145.153275,7624.121203,612.876398
176.343376,4959.379811,7179.997637,0.000000
176.343696,5995.668130,8290.306550,76.609550
176.344017,5921.647536,9548.656652,153.219100
176.344338,4367.215058,9992.780217,-536.266849
176.344658,4663.297435,8512.368333,536.266849
176.344979,5921.647536,6735.874072,76.609550
176.345299,6587.832884,6365.771101,-1149.143247
176.345620,5699.585753,7698.141797,-383.047749
176.345940,6069.688724,9696.697840,-1072.533697
176.346261,5477.523971,9474.636058,-2221.676944
176.346582,5625.565159,8882.471304,-2451.505594
176.346902,5995.668130,8364.327145,-689.485948
176.347223,6069.688724,8956.491898,459.657299
176.347543,3775.050304,7772.162391,1072.533697
176.347864,3552.988522,6291.750507,536.266849
176.348185,3256.906145,7179.997637,153.219100
176.348505,3701.029710,8882.471304,-612.876398
176.348826,2738.761985,8142.265362,-995.924147
176.349146,5551.544565,8364.327145,-1072.533697
176.349467,6365.771101,9030.512492,-306.438199
176.349788,4367.215058,9770.718434,689.485948
176.350108,2664.741391,8438.347739,-536.266849
176.350429,4885.359217,8438.347739,-1302.362347
176.350749,4737.318029,8216.285956,-153.219100
176.351070,4737.318029,8660.409521,459.657299
176.351391,5107.421000,7105.977043,766.095498
176.351711,6513.812290,7698.141797,919.314598
176.352032,6291.750507,7402.059420,1149.143247
176.352352,4737.318029,7179.997637,383.047749
176.352673,4367.215058,5995.668130,-1608.800546
176.352994,5921.647536,7031.956449,-919.314598
176.353314,7105.977043,7624.121203,1532.190996
176.353635,6143.709319,7994.224174,689.485948
176.353955,7846.182985,6957.935855,-536.266849
176.354276,6587.832884,7624.121203,-1838.629195
176.354597,5625.565159,7624.121203,-1149.143247
176.354917,4515.256246,7031.956449,-689.485948
176.355238,6735.874072,6513.812290,-1685.410096
176.355558,7698.141797,6883.915261,-689.485948
176.355879,7031.956449,8660.409521,-689.485948
176.356200,3552.988522,8882.471304,-1991.848295
176.356520,3923.091493,9326.594869,-1149.143247
176.356841,4367.215058,9252.574275,0.000000
176.357161,5255.462188,8290.306550,1225.752797
176.357482,4737.318029,7328.038826,1378.971896
176.357803,4219.173869,8364.327145,-383.047749
176.358123,1332.370696,8512.368333,-612.876398
176.358444,1406.391290,7920.203579,459.657299
176.358764,4811.338623,8734.430116,1838.629195
176.359085,4737.318029,10510.924376,1762.019645
176.359406,2664.741391,11399.171507,153.219100
176.359726,2072.576638,11325.150913,-1225.752797
176.360047,2072.576638,9474.636058,-689.485948
176.360367,3701.029710,8586.388927,1149.143247
176.360688,4367.215058,7476.080014,2145.067394
176.361008,4071.132681,7550.100608,-842.705048
176.361329,4145.153275,9844.739029,-1455.581446
176.361650,1924.535449,10881.027347,0.000000
176.361970,3108.864956,9992.780217,1149.143247
176.362291,6069.688724,6661.853478,1455.581446
176.362611,7179.997637,6291.750507,153.219100
176.362932,5403.503377,7179.997637,-919.314598
176.363253,4293.194464,7328.038826,-1149.143247
176.363573,4219.173869,7328.038826,-2298.286494
176.363894,6587.832884,7105.977043,-842.705048
176.364214,7846.182985,8216.285956,229.828649
176.364535,8068.244768,9400.615463,0.000000
176.364856,6365.771101,8364.327145,-1532.190996
176.365176,6957.935855,6661.853478,-1532.190996
176.365497,6439.791695,5773.606348,-306.438199
176.365817,6365.771101,5699.585753,766.095498
176.366138,5847.626942,6365.771101,306.438199
176.366459,5847.626942,7994.224174,-1072.533697
176.366779,5773.606348,8142.265362,-536.266849
176.367100,5699.585753,9030.512492,1225.752797
176.367420,5477.523971,6957.935855,1149.143247
176.367741,5477.523971,5921.647536,919.314598
176.368062,2812.782580,5107.421000,0.000000
176.368382,2886.803174,7105.977043,0.000000
176.368703,4071.132681,7772.162391,1608.800546
176.369023,4293.194464,7254.018232,1072.533697
176.369344,7105.977043,7920.203579,-1225.752797
176.369665,6957.935855,9770.718434,-2528.115143
176.369985,4737.318029,9622.677246,-2681.334243
176.370306,5255.462188,7328.038826,-612.876398
176.370626,7031.956449,5181.441594,1072.533697
176.370947,6957.935855,6291.750507,612.876398
176.371268,5921.647536,7920.203579,0.000000
176.371588,4145.153275,8586.388927,-2145.067394
176.371909,6143.709319,9844.739029,-2221.676944
176.372229,6513.812290,10510.924376,459.657299
176.372550,5921.647536,8882.471304,536.266849
176.372871,5329.482782,6735.874072,-153.219100
176.373191,4885.359217,6883.915261,-536.266849
176.373512,3034.844362,9622.677246,-383.047749
176.373832,2368.659014,9918.759623,0.000000
176.374153,4367.215058,8956.491898,-306.438199
176.374474,6217.729913,9326.594869,306.438199
176.374794,4071.132681,10066.800811,1685.410096
176.375115,1998.556043,10732.986159,459.657299
176.375435,2442.679609,9252.574275,-842.705048
176.375756,2368.659014,9474.636058,0.000000
176.376077,3701.029710,7698.141797,459.657299
176.376397,4293.194464,7254.018232,76.609550
176.376718,3849.070898,9030.512492,-612.876398
176.377038,3552.988522,10584.944971,76.609550
176.377359,3627.009116,10732.986159,459.657299
176.377679,4811.338623,8512.368333,-153.219100
176.378000,5403.503377,7476.080014,-536.266849
176.378321,4885.359217,7846.182985,-612.876398
176.378641,4885.359217,7920.203579,-1532.190996
176.378962,4663.297435,8216.285956,-842.705048
176.379282,5477.523971,7920.203579,-229.828649
176.379603,6957.935855,7105.977043,229.828649
176.379924,6439.791695,7254.018232,76.609550
176.380244,5033.400406,8438.347739,-995.924147
176.380565,5551.544565,8512.368333,-1072.533697
176.380885,5699.585753,6809.894666,-459.657299
176.381206,7105.977043,5403.503377,0.000000
176.381527,6143.709319,6513.812290,919.314598
176.381847,5181.441594,7920.203579,612.876398
176.382168,4441.235652,8956.491898,-766.095498
176.382488,6291.750507,7846.182985,-689.485948
176.382809,5847.626942,7179.997637,-766.095498
176.383130,5995.668130,7105.977043,306.438199
176.383450,4663.297435,6291.750507,612.876398
176.383771,6365.771101,7402.059420,1225.752797
176.384091,7328.038826,7550.100608,1608.800546
176.384412,6957.935855,6513.812290,1072.533697
176.384733,6069.688724,5403.503377,-459.657299
176.385053,8586.388927,6957.935855,612.876398
176.385374,7994.224174,7179.997637,1838.629195
176.385694,9178.553681,5403.503377,1149.143247
176.386015,11325.150913,3701.029710,-153.219100
176.386336,10510.924376,3034.844362,-1225.752797
176.386656,9104.533087,3182.885551,-1072.533697
176.386977,10214.842000,3552.988522,0.000000
176.387297,12065.356855,5181.441594,306.438199
176.387618,13027.624579,5551.544565,-229.828649
176.387939,12139.377449,5847.626942,-995.924147
176.388259,10436.903782,5255.462188,-2528.115143
176.388580,8290.306550,5477.523971,-1762.019645
176.388900,8882.471304,5403.503377,-306.438199
176.389221,9622.677246,5921.647536,-459.657299
176.389542,8216.285956,5403.503377,-919.314598
176.389862,7550.100608,7772.162391,-995.924147
176.390183,5329.482782,7846.182985,-459.657299
176.390503,4589.276840,6735.874072,306.438199
176.390824,5921.647536,5995.668130,1608.800546
176.391145,6809.894666,6957.935855,2451.505594
176.391465,6439.791695,8364.327145,2298.286494
176.391786,6143.709319,7698.141797,1149.143247
176.392106,6143.709319,5477.523971,-306.438199
176.392427,8290.306550,4367.215058,1072.533697
176.392747,9474.636058,5255.462188,1762.019645
176.393068,9844.739029,4441.235652,-306.438199
176.393389,9770.718434,4663.297435,-1225.752797
176.393709,11621.233289,5033.400406,0.000000
176.394030,12731.542202,6513.812290,1378.971896
176.394350,11621.233289,6661.853478,229.828649
176.394671,11621.233289,4885.359217,-2604.724693
176.394992,12287.418637,3478.967927,-3600.648841
176.395312,11843.295072,3701.029710,-919.314598
176.395633,11473.192101,3775.050304,1072.533697
176.395953,10140.821405,4145.153275,76.609550
176.396274,9178.553681,5625.565159,-3064.381992
176.396595,8808.450710,6957.935855,-2681.334243
176.396915,9474.636058,7476.080014,-536.266849
176.397236,9178.553681,6957.935855,0.000000
176.397556,7031.956449,5773.606348,459.657299
176.397877,6513.812290,5329.482782,229.828649
176.398198,5995.668130,6291.750507,0.000000
176.398518,6365.771101,6883.915261,153.219100
176.398839,6735.874072,7402.059420,306.438199
176.399159,7179.997637,7402.059420,0.000000
176.399480,7328.038826,6291.750507,1378.971896
176.399801,9252.574275,5921.647536,2298.286494
176.400121,9548.656652,5329.482782,995.924147
176.400442,9696.697840,5847.626942,-229.828649
176.400762,9252.574275,4737.318029,229.828649
176.401083,9918.759623,2960.823768,1455.581446
176.401404,12287.418637,2294.638420,2834.553343
176.401724,12435.459826,2738.761985,689.485948
176.402045,12139.377449,3849.070898,-1838.629195
176.402365,12213.398043,5107.421000,-2374.896044
176.402686,11991.336260,4145.153275,-1915.238745
176.403007,13471.748144,3182.885551,-1225.752797
176.403327,14137.933492,3256.906145,-1762.019645
176.403648,11843.295072,4885.359217,-2298.286494
176.403968,10362.883188,7105.977043,-1915.238745
176.404289,9770.718434,7105.977043,-766.095498
176.404610,8660.409521,4737.318029,0.000000
176.404930,8956.491898,3182.885551,306.438199
176.405251,8364.327145,5107.421000,459.657299
176.405571,5625.565159,6661.853478,76.609550
176.405892,3701.029710,6291.750507,0.000000
176.406213,5329.482782,4885.359217,0.000000
176.406533,7105.977043,4737.318029,1225.752797
176.406854,6217.729913,6587.832884,2451.505594
176.407174,5403.503377,8882.471304,1072.533697
176.407495,6217.729913,9992.780217,-1532.190996
176.407816,6809.894666,8512.368333,-229.828649
176.408136,8586.388927,5699.585753,1991.848295
176.408457,9252.574275,4071.132681,3140.991542
176.408777,8734.430116,5107.421000,1532.190996
176.409098,8512.368333,7179.997637,-1072.533697
176.409418,8956.491898,6439.791695,-2987.772442
176.409739,10658.965565,3849.070898,-1915.238745
176.410060,12805.562797,3330.926739,1532.190996
176.410380,12361.439231,3404.947333,2451.505594
176.410701,11547.212695,4293.194464,-306.438199
176.411021,11399.171507,5107.421000,-2528.115143
176.411342,11103.089130,5847.626942,-3217.601092
176.411663,11843.295072,6291.750507,-1608.800546
176.411983,11547.212695,6365.771101,0.000000
176.412304,10955.047942,7031.956449,-612.876398
176.412624,8956.491898,7105.977043,-459.657299
176.412945,7402.059420,6217.729913,-612.876398
176.413266,6883.915261,4885.359217,-459.657299
176.413586,7328.038826,5625.565159,-459.657299
176.413907,7624.121203,7402.059420,306.438199
176.414227,7105.977043,8438.347739,1225.752797
176.414548,6365.771101,7920.203579,1762.019645
176.414869,5921.647536,5921.647536,1915.238745
176.415189,5329.482782,3627.009116,1685.410096
176.415510,5477.523971,2960.823768,1225.752797
176.415830,7550.100608,4589.276840,76.609550
176.416151,9326.594869,6957.935855,-612.876398
176.416472,10362.883188,7994.224174,-842.705048
176.416792,11547.212695,7179.997637,-459.657299
176.417113,12435.459826,5477.523971,153.219100
176.417433,12583.501014,3552.988522,1838.629195
176.417754,11843.295072,1036.288319,612.876398
176.418075,11547.212695,0.000000,-2068.457845
176.418395,12361.439231,666.185348,-1838.629195
176.418716,14211.954086,3108.864956,-1149.143247
176.419036,14359.995275,5181.441594,-536.266849
176.419357,14285.974681,5995.668130,-1991.848295
176.419678,13027.624579,6069.688724,-3370.820191
176.419998,10362.883188,4959.379811,-2757.943793
176.420319,8734.430116,3182.885551,-153.219100
176.420639,9178.553681,3701.029710,1685.410096
176.420960,8216.285956,5107.421000,766.095498
176.421281,7328.038826,7105.977043,-1149.143247
176.421601,7105.977043,8882.471304,-2298.286494
176.421922,6587.832884,9030.512492,-1225.752797
176.422242,6809.894666,8068.244768,1378.971896
176.422563,6661.853478,6217.729913,3140.991542
176.422884,6291.750507,5181.441594,3370.820191
176.423204,5255.462188,5033.400406,2374.896044
176.423525,4959.379811,5255.462188,1685.410096
176.423845,5699.585753,5625.565159,919.314598
176.424166,8068.244768,5477.523971,536.266849
176.424486,9992.780217,6143.709319,0.000000
176.424807,10881.027347,6957.935855,-1302.362347
176.425128,11547.212695,7550.100608,-1991.848295
176.425448,11695.253884,6957.935855,-689.485948
176.425769,11547.212695,5181.441594,1072.533697
176.426089,11695.253884,4367.215058,1762.019645
176.426410,11399.171507,4663.297435,0.000000
176.426731,9696.697840,5255.462188,-2757.943793
176.427051,9918.759623,5625.565159,-3524.039291
176.427372,10510.924376,5033.400406,-2221.676944
176.427692,10807.006753,4737.318029,-1532.190996
176.428013,10140.821405,4071.132681,-612.876398
176.428334,9104.533087,5181.441594,0.000000
176.428654,7624.121203,6217.729913,459.657299
176.428975,7476.080014,6217.729913,1838.629195
176.429295,8586.388927,5625.565159,1149.143247
176.429616,8808.450710,4811.338623,0.000000
176.429937,8068.244768,6069.688724,-1072.533697
176.430257,7698.141797,7179.997637,-995.924147
176.430578,7550.100608,7402.059420,-459.657299
176.430898,8068.244768,6587.832884,0.000000
176.431219,8586.388927,5625.565159,536.266849
176.431540,8290.306550,5181.441594,919.314598
176.431860,7846.182985,5403.503377,1072.533697
176.432181,8364.327145,4589.276840,1072.533697
176.432501,9770.718434,3330.926739,842.705048
176.432822,11029.068536,3034.844362,459.657299
176.433143,10510.924376,3256.906145,0.000000
176.433463,10288.862594,4737.318029,-1149.143247
176.433784,11473.192101,5773.606348,-2221.676944
176.434104,12509.480420,5995.668130,-1838.629195
176.434425,12805.562797,5551.544565,-919.314598
176.434746,12139.377449,4959.379811,-383.047749
176.435066,11177.109724,4885.359217,-229.828649
176.435387,9548.656652,5329.482782,536.266849
176.435707,9770.718434,4811.338623,919.314598
176.436028,10140.821405,4145.153275,229.828649
176.436349,10436.903782,4441.235652,-842.705048
176.436669,9400.615463,4663.297435,-306.438199
176.436990,9030.512492,4441.235652,-306.438199
176.437311,9104.533087,4663.297435,-383.047749
176.437631,8808.450710,5181.441594,0.000000
176.437952,8956.491898,6809.894666,-612.876398
176.438272,8956.491898,7550.100608,-306.438199
176.438593,9400.615463,8068.244768,459.657299
176.438914,9326.594869,7179.997637,1762.019645
176.439234,9178.553681,5847.626942,1685.410096
176.439555,8808.450710,5107.421000,1685.410096
176.439875,8216.285956,4737.318029,1072.533697
176.440196,7846.182985,3997.112087,383.047749
176.440517,8290.306550,3330.926739,0.000000
176.440837,9326.594869,3256.906145,153.219100
176.441158,9400.615463,4663.297435,153.219100
176.441479,9844.739029,6439.791695,-229.828649
176.441799,9918.759623,7994.224174,-842.705048
176.442120,9622.677246,8512.368333,-612.876398
176.442440,8586.388927,7846.182985,383.047749
176.442761,7476.080014,6809.894666,459.657299
176.443082,6587.832884,6957.935855,306.438199
176.443402,5329.482782,6217.729913,229.828649
176.443723,5255.462188,5921.647536,-995.924147
176.444043,5847.626942,6069.688724,-995.924147
176.444364,5329.482782,7031.956449,-229.828649
176.444685,4737.318029,8216.285956,842.705048
176.445005,5107.421000,9474.636058,1532.190996
176.445326,5699.585753,10510.924376,2374.896044
176.445647,6069.688724,10362.883188,3140.991542
176.445967,5921.647536,9622.677246,3294.210641
176.446288,5107.421000,9178.553681,3064.381992
176.446608,4737.318029,8882.471304,3600.648841
176.446929,4589.276840,9104.533087,3830.477490
176.447250,5033.400406,9178.553681,3983.696590
176.447570,5699.585753,9474.636058,4136.915689
176.447891,6143.709319,9104.533087,4290.134789
176.448211,5773.606348,8290.306550,5209.449386
176.448532,5551.544565,7698.141797,5362.668486
176.448853,5847.626942,7624.121203,5439.278036
176.449173,6661.853478,8142.265362,5592.497135
176.449494,7105.977043,8364.327145,5592.497135
176.449815,7105.977043,9178.553681,5439.278036
176.450135,7624.121203,9178.553681,5975.544884
176.450456,7476.080014,8956.491898,6205.373534
176.450776,7402.059420,8216.285956,6588.421283
176.451097,7105.977043,7476.080014,6281.983084
176.451418,6957.935855,6587.832884,6052.154434
176.451738,6365.771101,5699.585753,5822.325785
176.452059,5995.668130,5181.441594,6511.811733
176.452380,6587.832884,5181.441594,6741.640382
176.452700,7179.997637,6587.832884,6971.469032
176.453021,6143.709319,7476.080014,7048.078582
176.453341,5625.565159,7179.997637,6588.421283
176.453662,5477.523971,6587.832884,6818.249932
176.453983,5033.400406,6143.709319,7354.516781
176.454303,4441.235652,5477.523971,7584.345430
176.454624,3701.029710,5107.421000,7048.078582
176.454944,3034.844362,5773.606348,6358.592633
176.455265,2590.720797,6069.688724,6052.154434
176.455586,2146.597232,6069.688724,6358.592633
176.455906,2442.679609,6069.688724,6052.154434
176.456227,2664.741391,6587.832884,7124.688131
176.456548,2812.782580,7476.080014,7124.688131
176.456868,2960.823768,7772.162391,7354.516781
176.457189,3182.885551,8216.285956,7277.907231
176.457509,3404.947333,8216.285956,6741.640382
176.457830,3478.967927,7920.203579,6358.592633
176.458151,3404.947333,7254.018232,5515.887586
176.458471,3330.926739,5921.647536,5056.230287
176.458792,3034.844362,5181.441594,5056.230287
176.459112,3034.844362,4959.379811,5132.839837
176.459433,2886.803174,4293.194464,4443.353888
176.459754,2590.720797,4811.338623,2911.162892
176.460074,4293.194464,6513.812290,1991.848295
176.460395,5477.523971,8216.285956,2068.457845
176.460716,6217.729913,9992.780217,2374.896044
176.461036,7328.038826,11399.171507,2451.505594
176.461357,7031.956449,11917.315666,2298.286494
176.461677,6957.935855,11695.253884,2911.162892
176.461998,6661.853478,9770.718434,4519.963438
176.462319,6587.832884,9474.636058,5898.935335
176.462639,5107.421000,10140.821405,6588.421283
176.462960,4293.194464,9992.780217,6052.154434
176.463280,3552.988522,8512.368333,4749.792088
176.463601,3182.885551,5477.523971,3753.867940
176.463922,2738.761985,2294.638420,2681.334243
176.464242,3775.050304,1406.391290,2145.067394
176.464563,5847.626942,4737.318029,1455.581446
176.464884,6957.935855,10510.924376,459.657299
176.465204,8512.368333,14878.139434,-766.095498
176.465525,10881.027347,17542.880825,-995.924147
176.465845,11177.109724,17468.860231,689.485948
176.466166,9326.594869,15174.221811,3677.258390
176.466487,7994.224174,11325.150913,4979.620737
176.466807,6217.729913,7846.182985,5592.497135
176.467128,6069.688724,6365.771101,6358.592633
176.467448,2442.679609,6735.874072,5822.325785
176.467769,2072.576638,6809.894666,3907.087040
176.468090,1924.535449,5847.626942,3064.381992
176.468410,3404.947333,5921.647536,4136.915689
176.468731,4663.297435,5107.421000,4596.572988
176.469052,6217.729913,7179.997637,4826.401637
176.469372,5773.606348,10658.965565,3370.820191
176.469693,5033.400406,14211.954086,2451.505594
176.470013,6143.709319,15026.180623,2221.676944
176.470334,9400.615463,15026.180623,2528.115143
176.470655,7772.162391,13693.809927,3830.477490
176.470975,4589.276840,8734.430116,4826.401637
176.471296,4219.173869,5625.565159,6052.154434
176.471617,1998.556043,4293.194464,7354.516781
176.471937,518.144159,4885.359217,6588.421283
176.472258,2886.803174,6365.771101,4903.011187
176.472578,5255.462188,7105.977043,4366.744339
176.472899,3478.967927,6587.832884,6052.154434
176.473220,4515.256246,6069.688724,9269.755526
176.473540,6661.853478,7846.182985,10495.508323
176.473861,5181.441594,10584.944971,8427.050478
176.474181,1332.370696,10140.821405,4903.011187
176.474502,2886.803174,8142.265362,3140.991542
176.474823,5699.585753,6661.853478,4443.353888
176.475143,4959.379811,5329.482782,7967.393179
176.475464,5921.647536,7698.141797,9576.193725
176.475785,2294.638420,9252.574275,6435.202183
176.476105,962.267725,9992.780217,3907.087040
176.476426,2368.659014,6883.915261,4979.620737
176.476746,4885.359217,2886.803174,6435.202183
176.477067,3478.967927,296.082377,7048.078582
176.477388,5329.482782,3627.009116,6358.592633
176.477708,6513.812290,8808.450710,4979.620737
176.478029,4293.194464,11843.295072,4060.306139
176.478349,4811.338623,10584.944971,5362.668486
176.478670,6143.709319,7550.100608,5515.887586
176.478991,3256.906145,5847.626942,6894.859482
176.479311,1406.391290,3330.926739,9806.022374
176.479632,5477.523971,5033.400406,10265.679673
176.479953,4293.194464,8216.285956,8427.050478
176.480273,2368.659014,11695.253884,5439.278036
176.480594,3108.864956,11547.212695,3217.601092
176.480914,5329.482782,9178.553681,2681.334243
176.481235,3330.926739,5551.544565,5515.887586
176.481556,4145.153275,3256.906145,7277.907231
176.481876,5773.606348,3997.112087,7048.078582
176.482197,4441.235652,7328.038826,6358.592633
176.482517,2664.741391,8364.327145,5209.449386
176.482838,5255.462188,9548.656652,3294.210641
176.483159,6439.791695,11547.212695,2987.772442
176.483479,4737.318029,11843.295072,4903.011187
176.483800,6439.791695,10732.986159,5669.106685
176.484121,8068.244768,9474.636058,4060.306139
176.484441,5921.647536,8216.285956,2298.286494
176.484762,3775.050304,5551.544565,1608.800546
176.485082,5921.647536,6217.729913,3064.381992
176.485403,4885.359217,7920.203579,5515.887586
176.485724,4441.235652,10288.862594,6435.202183
176.486044,7402.059420,11769.274478,5439.278036
176.486365,8290.306550,12361.439231,4213.525239
176.486685,5847.626942,11621.233289,4366.744339
176.487006,4663.297435,9400.615463,5975.544884
176.487327,3923.091493,6883.915261,5669.106685
176.487647,3775.050304,6735.874072,5056.230287
176.487968,4885.359217,8660.409521,5822.325785
176.488289,5551.544565,9696.697840,3677.258390
176.488609,5329.482782,10658.965565,3140.991542
176.488930,5625.565159,11621.233289,4443.353888
176.489250,5477.523971,10436.903782,5975.544884
176.489571,5847.626942,8364.327145,6358.592633
176.489892,4737.318029,7254.018232,4979.620737
176.490212,4441.235652,7920.203579,3830.477490
176.490533,4737.318029,7994.224174,3447.429741
176.490854,6069.688724,7920.203579,4366.744339
176.491174,7179.997637,8438.347739,4979.620737
176.491495,6513.812290,9400.615463,4673.182538
176.491815,4071.132681,7994.224174,3677.258390
176.492136,3997.112087,7105.977043,3600.648841
176.492457,5033.400406,7772.162391,5439.278036
176.492777,4885.359217,7179.997637,7277.907231
176.493098,4811.338623,5773.606348,5056.230287
176.493418,5477.523971,6957.935855,4136.915689
176.493739,3923.091493,8956.491898,5056.230287
176.494060,2368.659014,8290.306550,5132.839837
176.494380,3256.906145,5699.585753,4060.306139
176.494701,3775.050304,5699.585753,3677.258390
176.495022,5255.462188,6883.915261,4596.572988
176.495342,5329.482782,8512.368333,5898.935335
176.495663,3701.029710,8956.491898,3983.696590
176.495983,3108.864956,9400.615463,3600.648841
176.496304,2738.761985,6439.791695,5286.058936
176.496625,4589.276840,4219.173869,5669.106685
176.496945,5995.668130,6587.832884,5515.887586
176.497266,5551.544565,10436.903782,4979.620737
176.497586,3552.988522,10214.842000,3600.648841
176.497907,5477.523971,7476.080014,4060.306139
176.498228,5847.626942,5921.647536,5439.278036
176.498548,4219.173869,6957.935855,6665.030833
176.498869,4367.215058,8438.347739,5439.278036
176.499190,2812.782580,8956.491898,2834.553343
176.499510,2960.823768,6365.771101,3447.429741
176.499831,5477.523971,3627.009116,4826.401637
176.500151,5921.647536,4219.173869,3140.991542
176.500472,2812.782580,6143.709319,1991.848295
176.500793,2664.741391,8734.430116,1685.410096
176.501113,6809.894666,10066.800811,919.314598
176.501434,8290.306550,10140.821405,1762.019645
176.501754,6957.935855,10140.821405,3370.820191
176.502075,7994.224174,11695.253884,4443.353888
176.502396,5181.441594,10955.047942,4290.134789
176.502716,2368.659014,7402.059420,3447.429741
176.503037,4737.318029,4811.338623,1838.629195
176.503358,5551.544565,4959.379811,2068.457845
176.503678,3034.844362,6513.812290,3447.429741
176.503999,2738.761985,8364.327145,3294.210641
176.504319,4663.297435,9474.636058,1302.362347
176.504640,3775.050304,9104.533087,383.047749
176.504961,3182.885551,7328.038826,1532.190996
176.505281,4589.276840,8290.306550,2221.676944
176.505602,4959.379811,10955.047942,2911.162892
176.505922,5699.585753,13397.727550,2145.067394
176.506243,7624.121203,14211.954086,-229.828649
176.506564,6883.915261,12731.542202,689.485948
176.506884,5921.647536,11769.274478,4749.792088
176.507205,4737.318029,9104.533087,6818.249932
176.507526,2738.761985,5773.606348,4136.915689
176.507846,1702.473667,2368.659014,1532.190996
176.508167,3108.864956,1332.370696,76.609550
176.508487,5181.441594,3404.947333,766.095498
176.508808,5773.606348,6439.791695,229.828649
176.509129,7254.018232,8290.306550,-1302.362347
176.509449,8586.388927,9918.759623,-2145.067394
176.509770,9252.574275,11325.150913,-766.095498
176.510091,7031.956449,9918.759623,-1302.362347
176.510411,7254.018232,8660.409521,-2911.162892
176.510732,8512.368333,6291.750507,-1838.629195
176.511052,7846.182985,6587.832884,-612.876398
176.511373,7105.977043,9326.594869,-612.876398
176.511694,5847.626942,11843.295072,-2528.115143
176.512014,3627.009116,11251.130318,-1685.410096
176.512335,2886.803174,7402.059420,1608.800546
176.512655,3701.029710,4071.132681,3830.477490
176.512976,2664.741391,2072.576638,3064.381992
176.513297,2072.576638,3108.864956,459.657299
176.513617,962.267725,5181.441594,-1378.971896
176.513938,1554.432478,6735.874072,-612.876398
176.514259,4959.379811,10140.821405,689.485948
176.514579,7994.224174,12953.603985,-76.609550
176.514900,5033.400406,11769.274478,-1685.410096
176.515220,4737.318029,9474.636058,-1225.752797
176.515541,5773.606348,9178.553681,0.000000
176.515862,5181.441594,8808.450710,0.000000
176.516182,4145.153275,6957.935855,-383.047749
176.516503,6291.750507,6735.874072,-1532.190996
176.516823,6143.709319,7846.182985,-1455.581446
176.517144,4959.379811,7698.141797,76.609550
176.517465,5477.523971,6143.709319,-459.657299
176.517785,7105.977043,5699.585753,-1762.019645
176.518106,4885.359217,6143.709319,-689.485948
176.518427,6439.791695,7920.203579,0.000000
176.518747,6809.894666,8068.244768,-1685.410096
176.519068,5625.565159,8586.388927,-1915.238745
176.519388,6513.812290,8882.471304,-383.047749
176.519709,7772.162391,11769.274478,-995.924147
176.520030,5477.523971,12435.459826,-3140.991542
176.520350,4737.318029,11399.171507,-2834.553343
176.520671,6365.771101,9992.780217,-995.924147
176.520991,4737.318029,8882.471304,1762.019645
176.521312,2442.679609,7772.162391,2221.676944
176.521633,2664.741391,6735.874072,76.609550
176.521953,2442.679609,5329.482782,-1915.238745
176.522274,2590.720797,5847.626942,689.485948
176.522595,5181.441594,8216.285956,2068.457845
176.522915,4737.318029,9030.512492,306.438199
176.523236,3849.070898,8808.450710,-1685.410096
176.523556,4589.276840,8956.491898,-1762.019645
176.523877,4959.379811,7920.203579,-612.876398
176.524198,4811.338623,6957.935855,1072.533697
176.524518,6365.771101,7105.977043,-1225.752797
176.524839,5847.626942,8290.306550,-3753.867940
176.525159,4811.338623,9696.697840,-2681.334243
176.525480,5773.606348,9696.697840,-383.047749
176.525801,6957.935855,8660.409521,306.438199
176.526121,5329.482782,6291.750507,0.000000
176.526442,3997.112087,6439.791695,-1302.362347
176.526763,3701.029710,6291.750507,-2681.334243
176.527083,4589.276840,4737.318029,-1455.581446
176.527404,5847.626942,4737.318029,-1225.752797
176.527724,7179.997637,7031.956449,-2987.772442
176.528045,4737.318029,8290.306550,-2604.724693
176.528366,4959.379811,8882.471304,459.657299
176.528686,8512.368333,9992.780217,1838.629195
176.529007,7550.100608,10658.965565,612.876398
176.529328,4441.235652,8586.388927,-919.314598
176.529648,4293.194464,6143.709319,-1532.190996
176.529969,6661.853478,5107.421000,306.438199
176.530289,5773.606348,7402.059420,1838.629195
176.530610,4959.379811,7772.162391,-536.266849
176.530931,5107.421000,7846.182985,-3830.477490
176.531251,4885.359217,8438.347739,-919.314598
176.531572,4811.338623,8586.388927,3064.381992
176.531892,5033.400406,7550.100608,2451.505594
176.532213,4441.235652,6439.791695,-1149.143247
176.532534,3775.050304,7476.080014,-2145.067394
176.532854,4515.256246,8956.491898,-1072.533697
176.533175,5329.482782,10436.903782,-919.314598
176.533496,4589.276840,9178.553681,-2221.676944
176.533816,5699.585753,9326.594869,-1685.410096
176.534137,5107.421000,9992.780217,153.219100
176.534458,4589.276840,10732.986159,1072.533697
176.534778,2738.761985,7920.203579,-536.266849
176.535099,3775.050304,5403.503377,-1991.848295
176.535420,4515.256246,4811.338623,-383.047749
176.535740,4663.297435,7772.162391,-459.657299
176.536061,5033.400406,9474.636058,-1685.410096
176.536382,5403.503377,8216.285956,-4213.525239
176.536702,5329.482782,7031.956449,-3140.991542
176.537023,6809.894666,8512.368333,612.876398
176.537344,4959.379811,8364.327145,2221.676944
176.537664,4737.318029,7994.224174,-383.047749
176.537985,6143.709319,8956.491898,-1991.848295
176.538306,5551.544565,9696.697840,-612.876398
176.538626,4811.338623,8956.491898,459.657299
176.538947,5921.647536,7698.141797,153.219100
176.539268,5699.585753,7254.018232,-1455.581446
176.539588,4145.153275,6513.812290,-1378.971896
176.539909,5329.482782,6365.771101,-153.219100
176.540230,4959.379811,5699.585753,612.876398
176.540551,4515.256246,5773.606348,229.828649
176.540871,5107.421000,8068.244768,-1685.410096
176.541192,5329.482782,9770.718434,-3064.381992
176.541513,4293.194464,8660.409521,-1532.190996
176.541833,7772.162391,9326.594869,-383.047749
176.542154,8142.265362,9252.574275,-1762.019645
176.542475,4145.153275,8438.347739,-2987.772442
176.542795,3182.885551,7402.059420,-1685.410096
176.543116,5403.503377,7031.956449,229.828649
176.543437,6365.771101,8290.306550,1455.581446
176.543757,5551.544565,10362.883188,0.000000
176.544078,2738.761985,7920.203579,-3294.210641
176.544399,4145.153275,7179.997637,-1685.410096
176.544719,5847.626942,7476.080014,2681.334243
176.545040,5107.421000,7846.182985,1302.362347
176.545361,3034.844362,6883.915261,-2221.676944
176.545682,3552.988522,7179.997637,-1991.848295
176.546002,5329.482782,8290.306550,689.485948
176.546323,5921.647536,9844.739029,1532.190996
176.546644,4367.215058,8512.368333,-1378.971896
176.546964,5625.565159,8512.368333,-4213.525239
176.547285,6365.771101,10510.924376,-1072.533697
176.547606,4145.153275,10066.800811,2145.067394
176.547926,4071.132681,7920.203579,383.047749
176.548247,4811.338623,6883.915261,-1532.190996
176.548568,3775.050304,7105.977043,-766.095498
176.548888,3034.844362,7920.203579,229.828649
176.549209,4737.318029,7476.080014,-612.876398
176.549530,5403.503377,6883.915261,-2145.067394
176.549850,5107.421000,6439.791695,-1915.238745
176.550171,5477.523971,8660.409521,-229.828649
176.550492,5625.565159,10288.862594,919.314598
176.550812,5107.421000,9622.677246,919.314598
176.551133,7846.182985,8290.306550,-383.047749
176.551454,6439.791695,7624.121203,-153.219100
176.551775,5181.441594,8290.306550,306.438199
176.552095,4811.338623,7476.080014,-459.657299
176.552416,6365.771101,7105.977043,-1838.629195
176.552737,5625.565159,7105.977043,-1378.971896
176.553057,5699.585753,8512.368333,306.438199
176.553378,4145.153275,8142.265362,1838.629195
176.553699,3256.906145,6069.688724,1762.019645
176.554019,4071.132681,6217.729913,612.876398
176.554340,5403.503377,7772.162391,-1302.362347
176.554661,4293.194464,8142.265362,-1378.971896
176.554981,5625.565159,9252.574275,0.000000
176.555302,6587.832884,9918.759623,0.000000
176.555623,5255.462188,9474.636058,229.828649
176.555943,3552.988522,7920.203579,689.485948
176.556264,4737.318029,7254.018232,306.438199
176.556585,4959.379811,7476.080014,842.705048
176.556906,3404.947333,7772.162391,536.266849
176.557226,4959.379811,7994.224174,-995.924147
176.557547,4663.297435,7105.977043,-995.924147
176.557868,5921.647536,7772.162391,153.219100
176.558188,5625.565159,9474.636058,-766.095498
176.558509,4737.318029,8512.368333,-2451.505594
176.558830,3108.864956,5773.606348,-1532.190996
176.559150,6809.894666,6883.915261,1532.190996
176.559471,6809.894666,9400.615463,2528.115143
176.559792,4145.153275,10066.800811,383.047749
176.560112,3330.926739,9178.553681,-2221.676944
176.560433,7105.977043,9770.718434,-2068.457845
176.560754,4737.318029,8956.491898,1149.143247
176.561074,3701.029710,7105.977043,2451.505594
176.561395,4145.153275,5255.462188,0.000000
176.561716,3997.112087,5995.668130,-766.095498
176.562037,3478.967927,7846.182985,306.438199
176.562357,3478.967927,8364.327145,-689.485948
176.562678,3552.988522,8290.306550,-1915.238745
176.562999,6439.791695,8956.491898,0.000000
176.563319,6587.832884,8956.491898,1455.581446
176.563640,4959.379811,8586.388927,-612.876398
176.563961,3478.967927,7105.977043,-2374.896044
176.564281,4071.132681,7179.997637,-3600.648841
176.564602,5477.523971,7920.203579,-766.095498
176.564923,6735.874072,10214.842000,1302.362347
176.565243,7254.018232,11695.253884,76.609550
176.565564,5847.626942,10955.047942,-1302.362347
176.565885,5625.565159,7994.224174,-459.657299
176.566205,4737.318029,6587.832884,1378.971896
176.566526,5551.544565,6365.771101,2298.286494
176.566847,4367.215058,5329.482782,766.095498
176.567167,5255.462188,5625.565159,-1762.019645
176.567488,4959.379811,8512.368333,-766.095498
176.567809,4663.297435,9622.677246,919.314598
176.568130,4959.379811,9178.553681,153.219100
176.568450,7328.038826,9770.718434,-1072.533697
176.568771,5181.441594,10140.821405,-383.047749
176.569092,4663.297435,8660.409521,1532.190996
176.569412,4885.359217,6957.935855,1991.848295
176.569733,5033.400406,7920.203579,1532.190996
176.570054,4219.173869,9104.533087,1225.752797
176.570374,4885.359217,9918.759623,0.000000
176.570695,5329.482782,9548.656652,-306.438199
176.571016,6143.709319,9104.533087,2374.896044
176.571336,5551.544565,7254.018232,2451.505594
176.571657,3627.009116,5847.626942,459.657299
176.571978,3108.864956,5847.626942,153.219100
176.572298,5033.400406,7550.100608,0.000000
176.572619,5625.565159,8438.347739,-536.266849
176.572940,5033.400406,7920.203579,229.828649
176.573261,6291.750507,9696.697840,2145.067394
176.573581,6439.791695,11177.109724,2528.115143
176.573902,3997.112087,8956.491898,1302.362347
176.574223,3256.906145,7179.997637,76.609550
176.574543,4737.318029,6439.791695,306.438199
176.574864,3256.906145,5477.523971,2604.724693
176.575185,3552.988522,5255.462188,2298.286494
176.575505,3552.988522,6587.832884,-766.095498
176.575826,2146.597232,7402.059420,-2834.553343
176.576147,2442.679609,6735.874072,-995.924147
176.576467,5699.585753,7476.080014,842.705048
176.576788,4885.359217,7476.080014,1685.410096
176.577109,3552.988522,7476.080014,689.485948
176.577429,3849.070898,7105.977043,-1762.019645
176.577750,5033.400406,9030.512492,-1149.143247
176.578071,5329.482782,10955.047942,1378.971896
176.578391,6883.915261,10658.965565,612.876398
176.578712,6365.771101,8290.306550,-2451.505594
176.579033,4663.297435,7476.080014,-1302.362347
176.579354,4367.215058,7105.977043,1685.410096
176.579674,5181.441594,6809.894666,3140.991542
176.579995,3701.029710,6661.853478,2451.505594
176.580316,3849.070898,6513.812290,306.438199
176.580636,4885.359217,7031.956449,-995.924147
176.580957,5329.482782,7772.162391,306.438199
176.581278,3627.009116,6735.874072,995.924147
176.581598,6143.709319,7550.100608,-995.924147
176.581919,7846.182985,9252.574275,-3294.210641
176.582240,5033.400406,9844.739029,-2221.676944
176.582560,6291.750507,10066.800811,383.047749
176.582881,7698.141797,10066.800811,1455.581446
176.583202,6513.812290,9992.780217,919.314598
176.583522,5033.400406,10288.862594,229.828649
176.583843,6069.688724,10214.842000,-1225.752797
176.584164,4885.359217,8216.285956,-229.828649
176.584485,5107.421000,7624.121203,1072.533697
176.584805,5329.482782,8068.244768,76.609550
176.585126,3552.988522,7994.224174,-306.438199
176.585447,2220.617826,7550.100608,1532.190996
176.585767,5477.523971,7920.203579,2145.067394
176.586088,4737.318029,8882.471304,1302.362347
176.586409,4367.215058,8734.430116,689.485948
176.586729,4959.379811,9326.594869,459.657299
176.587050,6957.935855,11177.109724,0.000000
176.587371,5033.400406,11029.068536,1072.533697
176.587691,4959.379811,9326.594869,995.924147
176.588012,4589.276840,6143.709319,153.219100
176.588333,4589.276840,5255.462188,1225.752797
176.588653,3404.947333,5329.482782,842.705048
176.588974,4219.173869,5995.668130,-2528.115143
176.589295,4145.153275,6735.874072,-3294.210641
176.589615,5551.544565,8216.285956,-612.876398
176.589936,5773.606348,7772.162391,1762.019645
176.590257,5181.441594,7402.059420,1225.752797
176.590578,5181.441594,6809.894666,459.657299
176.590898,4663.297435,6143.709319,-995.924147
176.591219,4293.194464,5403.503377,-2757.943793
176.591540,4589.276840,7031.956449,-2221.676944
176.591860,6365.771101,8586.388927,-842.705048
176.592181,6365.771101,7920.203579,-459.657299
176.592502,5995.668130,7550.100608,-1149.143247
176.592822,3552.988522,7920.203579,-2221.676944
176.593143,3034.844362,8364.327145,-689.485948
176.593464,3775.050304,6217.729913,2145.067394
176.593784,6661.853478,6143.709319,1915.238745
176.594105,6143.709319,8068.244768,0.000000
176.594426,3182.885551,8512.368333,-2221.676944
176.594746,2072.576638,5551.544565,-3370.820191
176.595067,6365.771101,6143.709319,-1149.143247
176.595388,7031.956449,9326.594869,1915.238745
176.595709,5107.421000,10140.821405,842.705048
176.596029,4663.297435,9030.512492,-1455.581446
176.596350,5625.565159,10288.862594,0.000000
176.596671,4219.173869,9918.759623,2451.505594
176.596991,5477.523971,9474.636058,919.314598
176.597312,6143.709319,8956.491898,-2145.067394
176.597633,4737.318029,8438.347739,-3140.991542
176.597953,5181.441594,8364.327145,-1378.971896
176.598274,6217.729913,8068.244768,-229.828649
176.598595,5107.421000,8142.265362,459.657299
176.598915,5329.482782,9844.739029,1149.143247
176.599236,6957.935855,11399.171507,-383.047749
176.599557,4219.173869,10066.800811,-1532.190996
176.599877,3775.050304,8438.347739,919.314598
176.600198,6513.812290,8142.265362,2681.334243
176.600519,6291.750507,7402.059420,919.314598
176.600840,3478.967927,8512.368333,-1455.581446
176.601160,5329.482782,9770.718434,-2911.162892
176.601481,5403.503377,9030.512492,-995.924147
176.601802,5995.668130,7550.100608,2681.334243
176.602122,5625.565159,7328.038826,3294.210641
176.602443,4811.338623,8142.265362,306.438199
176.602764,4071.132681,8216.285956,-1915.238745
176.603084,5551.544565,7994.224174,-2145.067394
176.603405,5329.482782,6513.812290,-306.438199
176.603726,5551.544565,7402.059420,2221.676944
176.604046,5551.544565,8438.347739,2451.505594
176.604367,4589.276840,7920.203579,-536.266849
176.604688,2886.803174,6069.688724,-2145.067394
176.605008,4367.215058,5847.626942,-919.314598
176.605329,4885.359217,5403.503377,0.000000
176.605650,4959.379811,6735.874072,536.266849
176.605970,5699.585753,9104.533087,-536.266849
176.606291,5033.400406,10955.047942,-2451.505594
176.606612,3923.091493,8586.388927,-689.485948
176.606933,4441.235652,5995.668130,536.266849
176.607253,5699.585753,5255.462188,766.095498
176.607574,4663.297435,7254.018232,76.609550
176.607895,4515.256246,8290.306550,-1302.362347
176.608215,5107.421000,7994.224174,-2145.067394
176.608536,5921.647536,8512.368333,459.657299
176.608857,5773.606348,8808.450710,3983.696590
176.609177,4737.318029,7624.121203,2681.334243
176.609498,3182.885551,6143.709319,-383.047749
176.609819,4367.215058,5921.647536,-1149.143247
176.610139,5255.462188,6587.832884,-536.266849
176.610460,5847.626942,7550.100608,0.000000
176.610781,5033.400406,7846.182985,306.438199
176.611101,5921.647536,10140.821405,-1072.533697
176.611422,5773.606348,10436.903782,-1302.362347
176.611743,4293.194464,8808.450710,383.047749
176.612064,4071.132681,6069.688724,1378.971896
176.612384,6143.709319,7550.100608,76.609550
176.612705,5033.400406,8512.368333,-1608.800546
176.613026,4145.153275,9326.594869,-1991.848295
176.613346,5403.503377,7624.121203,-1762.019645
176.613667,7476.080014,7846.182985,-612.876398
176.613988,5255.462188,7994.224174,1225.752797
176.614308,3552.988522,7698.141797,-459.657299
176.614629,3997.112087,6809.894666,-2451.505594
176.614950,5107.421000,6587.832884,-2145.067394
176.615270,6217.729913,7105.977043,-842.705048
176.615591,6291.750507,9622.677246,-1532.190996
176.615912,4367.215058,10732.986159,-2604.724693
176.616232,4071.132681,10436.903782,-1608.800546
176.616553,6735.874072,9474.636058,-1072.533697
176.616874,5995.668130,8364.327145,-153.219100
176.617194,4515.256246,6809.894666,459.657299
176.617515,3552.988522,6365.771101,-919.314598
176.617836,3997.112087,7476.080014,-2451.505594
176.618157,3404.947333,7994.224174,-1838.629195
176.618477,5625.565159,8734.430116,-612.876398
176.618798,7624.121203,9548.656652,-76.609550
176.619119,6587.832884,10288.862594,0.000000
176.619439,3849.070898,9252.574275,76.609550
176.619760,4367.215058,7328.038826,-842.705048
176.620081,4589.276840,6661.853478,-459.657299
176.620401,5181.441594,7031.956449,229.828649
176.620722,5181.441594,7402.059420,-2451.505594
176.621043,5699.585753,9992.780217,-4136.915689
176.621363,5033.400406,10584.944971,-2145.067394
176.621684,5921.647536,9474.636058,383.047749
176.622005,6809.894666,8438.347739,1072.533697
176.622325,4959.379811,9178.553681,1072.533697
176.622646,3108.864956,7476.080014,-459.657299
176.622967,3997.112087,5847.626942,-1455.581446
176.623288,5699.585753,6587.832884,-1149.143247
176.623608,4737.318029,8438.347739,306.438199
176.623929,6513.812290,10362.883188,919.314598
176.624250,6661.853478,10140.821405,-995.924147
176.624570,4737.318029,8660.409521,-1762.019645
176.624891,2960.823768,5625.565159,-689.485948
176.625212,4663.297435,5403.503377,-1225.752797
176.625532,4515.256246,7031.956449,153.219100
176.625853,5329.482782,9474.636058,1149.143247
176.626174,7550.100608,11399.171507,-1072.533697
176.626494,5551.544565,10955.047942,-2221.676944
176.626815,3330.926739,8512.368333,689.485948
176.627136,6587.832884,7254.018232,3217.601092
176.627456,5329.482782,6217.729913,2298.286494
176.627777,1924.535449,4441.235652,612.876398
176.628098,3404.947333,3775.050304,-1072.533697
176.628418,6217.729913,5551.544565,-1072.533697
176.628739,3997.112087,7476.080014,536.266849
176.629060,4663.297435,9474.636058,-459.657299
176.629381,7105.977043,10584.944971,-2374.896044
176.629701,5995.668130,9548.656652,-1762.019645
176.630022,4737.318029,6661.853478,919.314598
176.630343,6217.729913,6217.729913,1838.629195
176.630663,5181.441594,7846.182985,689.485948
176.630984,1924.535449,8956.491898,-766.095498
176.631305,4885.359217,9770.718434,-1838.629195
176.631625,6365.771101,10584.944971,-689.485948
176.631946,4737.318029,8660.409521,2681.334243
176.632267,4441.235652,6513.812290,2451.505594
176.632587,4737.318029,6143.709319,0.000000
176.632908,1850.514855,6365.771101,-612.876398
176.633229,2590.720797,6809.894666,1302.362347
176.633549,6439.791695,6513.812290,2451.505594
176.633870,6735.874072,8512.368333,2528.115143
176.634191,4515.256246,10140.821405,1072.533697
176.634512,4219.173869,9918.759623,-2145.067394
176.634832,5403.503377,8586.388927,-2604.724693
176.635153,6883.915261,7402.059420,-383.047749
176.635474,6661.853478,6957.935855,689.485948
176.635794,5329.482782,7994.224174,-919.314598
176.636115,3478.967927,9474.636058,-1225.752797
176.636436,4367.215058,9326.594869,-1455.581446
176.636756,5255.462188,8364.327145,-919.314598
176.637077,6291.750507,8142.265362,0.000000
176.637398,4589.276840,7328.038826,0.000000
176.637719,4663.297435,6883.915261,-1378.971896
176.638039,4589.276840,6957.935855,-1378.971896
176.638360,4663.297435,7179.997637,-306.438199
176.638681,5033.400406,7254.018232,153.219100
176.639002,6513.812290,8956.491898,0.000000
176.639322,4959.379811,9474.636058,-612.876398
176.639643,4219.173869,9030.512492,-766.095498
176.639964,4219.173869,7846.182985,-1685.410096
176.640285,5551.544565,7920.203579,-1608.800546
176.640605,6217.729913,8734.430116,0.000000
176.640926,5847.626942,9770.718434,-1455.581446
176.641247,3552.988522,8068.244768,-2757.943793
176.641568,3923.091493,7550.100608,-2221.676944
176.641888,5847.626942,7624.121203,1378.971896
176.642209,5847.626942,7994.224174,2604.724693
176.642530,5107.421000,8586.388927,153.219100
176.642851,5033.400406,8956.491898,-2451.505594
176.643171,4737.318029,8660.409521,-2221.676944
176.643492,4515.256246,7105.977043,1149.143247
176.643813,6217.729913,8068.244768,2757.943793
176.644134,6883.915261,9992.780217,689.485948
176.644454,5181.441594,9474.636058,-2911.162892
176.644775,3849.070898,7550.100608,-3907.087040
176.645096,5995.668130,7328.038826,-919.314598
176.645417,6809.894666,10066.800811,2068.457845
176.645737,6587.832884,11695.253884,1072.533697
176.646058,4959.379811,10362.883188,-1072.533697
176.646379,4811.338623,9474.636058,0.000000
176.646700,4737.318029,7994.224174,3217.601092
176.647020,4515.256246,6883.915261,2987.772442
176.647341,3034.844362,5847.626942,766.095498
176.647662,4737.318029,7772.162391,-536.266849
176.647983,6291.750507,8882.471304,306.438199
176.648303,5921.647536,7550.100608,1838.629195
176.648624,5921.647536,6735.874072,2298.286494
176.648945,6143.709319,8586.388927,3064.381992
176.649266,3552.988522,8364.327145,2757.943793
176.649586,3701.029710,6587.832884,689.485948
176.649907,5699.585753,4515.256246,-1455.581446
176.650228,4885.359217,4663.297435,-1302.362347
176.650549,4071.132681,5847.626942,-766.095498
176.650869,5255.462188,9326.594869,-2221.676944
176.651190,4367.215058,10214.842000,-2911.162892
176.651511,4145.153275,9252.574275,-612.876398
176.651832,6069.688724,8068.244768,2068.457845
176.652152,3627.009116,6291.750507,2911.162892
176.652473,1184.329507,5181.441594,2298.286494
176.652794,3034.844362,6587.832884,-153.219100
176.653115,3923.091493,7550.100608,-2911.162892
176.653435,2220.617826,6809.894666,-1762.019645
176.653756,5403.503377,7254.018232,153.219100
176.654077,5403.503377,7624.121203,919.314598
176.654398,2294.638420,7328.038826,-153.219100
176.654718,2886.803174,6217.729913,-1991.848295
176.655039,4071.132681,5995.668130,-2451.505594
176.655360,5995.668130,7402.059420,0.000000
176.655681,7624.121203,11399.171507,1532.190996
176.656001,5773.606348,11843.295072,-1838.629195
176.656322,5107.421000,10881.027347,-3294.210641
176.656643,7105.977043,9326.594869,-306.438199
176.656964,6365.771101,7105.977043,2221.676944
176.657284,5033.400406,4737.318029,2374.896044
176.657605,6143.709319,5699.585753,229.828649
176.657926,4737.318029,7105.977043,-2145.067394
176.658247,4293.194464,9400.615463,-459.657299
176.658567,7328.038826,10955.047942,1762.019645
176.658888,7550.100608,11251.130318,383.047749
176.659209,6587.832884,10362.883188,612.876398
176.659530,6291.750507,10881.027347,76.609550
176.659851,5403.503377,9918.759623,-1532.190996
176.660171,3404.947333,7994.224174,-766.095498
176.660492,5329.482782,8364.327145,842.705048
176.660813,6661.853478,10066.800811,1302.362347
176.661134,5329.482782,12657.521608,1455.581446
176.661454,4367.215058,12731.542202,153.219100
176.661775,3997.112087,9918.759623,-1378.971896
176.662096,4367.215058,7698.141797,2298.286494
176.662417,4663.297435,6735.874072,5898.935335
176.662737,4293.194464,5699.585753,3753.867940
176.663058,4293.194464,5477.523971,76.609550
176.663379,3627.009116,6513.812290,-1302.362347
176.663700,3997.112087,7254.018232,-1608.800546
176.664020,5699.585753,8290.306550,612.876398
176.664341,7105.977043,9770.718434,1991.848295
176.664662,6513.812290,9400.615463,536.266849
176.664983,5033.400406,8882.471304,-153.219100
176.665303,3627.009116,7031.956449,1149.143247
176.665624,3330.926739,5551.544565,995.924147
176.665945,4959.379811,5255.462188,-153.219100
176.666266,3552.988522,5403.503377,-1455.581446
176.666586,3330.926739,5699.585753,-2221.676944
176.666907,5329.482782,6513.812290,-995.924147
176.667228,5255.462188,5921.647536,153.219100
176.667549,1924.535449,3997.112087,-536.266849
176.667869,3552.988522,4959.379811,-1149.143247
176.668190,3997.112087,7402.059420,-995.924147
176.668511,4663.297435,7105.977043,76.609550
176.668832,6069.688724,7698.141797,153.219100
176.669152,5995.668130,9474.636058,-2298.286494
176.669473,2590.720797,8216.285956,-2604.724693
176.669794,5107.421000,6883.915261,-995.924147
176.670115,6439.791695,7105.977043,0.000000
176.670435,5625.565159,7402.059420,1072.533697
176.670756,4145.153275,7105.977043,459.657299
176.671077,5181.441594,7698.141797,-153.219100
176.671398,4071.132681,8142.265362,459.657299
176.671718,5181.441594,10140.821405,1608.800546
176.672039,5995.668130,8956.491898,-612.876398
176.672360,4219.173869,7476.080014,-2298.286494
176.672681,5255.462188,9178.553681,0.000000
176.673001,5181.441594,10807.006753,919.314598
176.673322,3478.967927,9178.553681,-919.314598
176.673643,5403.503377,8956.491898,-2068.457845
176.673964,6809.894666,10881.027347,-306.438199
176.674284,6217.729913,12583.501014,1685.410096
176.674605,5773.606348,11991.336260,842.705048
176.674926,4589.276840,8808.450710,-2528.115143
176.675247,5773.606348,7624.121203,-1991.848295
176.675567,7105.977043,9770.718434,1608.800546
176.675888,5995.668130,10066.800811,995.924147
176.676209,3478.967927,6735.874072,-1225.752797
176.676530,5847.626942,6587.832884,-1608.800546
176.676850,5329.482782,7994.224174,-1608.800546
176.677171,5033.400406,9474.636058,536.266849
176.677492,6587.832884,9992.780217,842.705048
176.677813,7920.203579,10288.862594,-1608.800546
176.678133,5699.585753,10362.883188,-1378.971896
176.678454,4663.297435,9770.718434,1991.848295
176.678775,3404.947333,7105.977043,1991.848295
176.679096,4811.338623,6439.791695,766.095498
176.679416,4293.194464,6809.894666,383.047749
176.679737,3034.844362,5625.565159,-2221.676944
176.680058,4441.235652,5107.421000,-2451.505594
176.680379,6143.709319,7105.977043,153.219100
176.680699,4515.256246,7624.121203,1685.410096
176.681020,4959.379811,8660.409521,306.438199
176.681341,4293.194464,7254.018232,-766.095498
176.681662,3034.844362,4811.338623,-1302.362347
176.681982,5847.626942,4367.215058,1302.362347
176.682303,5699.585753,7031.956449,306.438199
176.682624,4219.173869,7846.182985,-3983.696590
176.682945,5625.565159,8882.471304,-4596.572988
176.683265,6661.853478,9252.574275,-2451.505594
176.683586,5847.626942,8586.388927,1532.190996
176.683907,6217.729913,7031.956449,4979.620737
176.684228,4589.276840,5329.482782,2068.457845
176.684548,2590.720797,5033.400406,-995.924147
176.684869,2960.823768,6735.874072,-536.266849
176.685190,4071.132681,7624.121203,383.047749
176.685511,6217.729913,7402.059420,459.657299
176.685831,6513.812290,8808.450710,766.095498
176.686152,4737.318029,9178.553681,-459.657299
176.686473,2960.823768,7846.182985,-689.485948
176.686794,3108.864956,7254.018232,766.095498
176.687114,4885.359217,7550.100608,2604.724693
176.687435,5699.585753,9844.739029,3140.991542
176.687756,5699.585753,13027.624579,383.047749
176.688077,3775.050304,11547.212695,-1991.848295
176.688397,4367.215058,8734.430116,-919.314598
176.688718,6217.729913,7698.141797,1378.971896
176.689039,5477.523971,7698.141797,383.047749
176.689360,1554.432478,4885.359217,-1072.533697
176.689680,3552.988522,3849.070898,-2221.676944
176.690001,6069.688724,6069.688724,-459.657299
176.690322,5847.626942,10362.883188,1149.143247
176.690643,5921.647536,11103.089130,76.609550
176.690963,7031.956449,11399.171507,-2834.553343
176.691284,7105.977043,11547.212695,-2451.505594
176.691605,5403.503377,9252.574275,-766.095498
176.691926,5107.421000,4959.379811,-766.095498
