#time,accel_x,accel_y,accel_z
131.064964,5033.400406,8216.285956,-459.657299
131.065285,4811.338623,7994.224174,0.000000
131.065605,5255.462188,8068.244768,0.000000
131.065926,4885.359217,8142.265362,0.000000
131.066247,5033.400406,8364.327145,-383.047749
131.066567,5107.421000,8142.265362,-383.047749
131.066888,5033.400406,7846.182985,0.000000
131.067209,4959.379811,7920.203579,-229.828649
131.067529,5033.400406,7994.224174,0.000000
131.067850,4885.359217,7920.203579,-306.438199
131.068171,4811.338623,8068.244768,-306.438199
131.068491,4959.379811,7920.203579,0.000000
131.068812,4885.359217,8068.244768,-229.828649
131.069133,5255.462188,8364.327145,-153.219100
131.069453,5033.400406,8142.265362,-306.438199
131.069774,4959.379811,7920.203579,-153.219100
131.070095,4959.379811,7920.203579,-229.828649
131.070416,4959.379811,8068.244768,0.000000
131.070736,4959.379811,7846.182985,-306.438199
131.071057,4959.379811,8068.244768,-153.219100
131.071378,5033.400406,7920.203579,-306.438199
131.071698,4959.379811,7994.224174,0.000000
131.072019,5033.400406,7846.182985,0.000000
131.072340,4885.359217,8364.327145,-153.219100
131.072660,5181.441594,8068.244768,-153.219100
131.072981,4737.318029,7772.162391,-306.438199
131.073302,4959.379811,7772.162391,0.000000
131.073622,4959.379811,7994.224174,-536.266849
131.073943,4885.359217,7846.182985,-306.438199
131.074264,4811.338623,7698.141797,-459.657299
131.074584,4441.235652,7550.100608,-536.266849
131.074905,4071.132681,7624.121203,0.000000
131.075226,4293.194464,8512.368333,-229.828649
131.075546,4367.215058,9844.739029,-689.485948
131.075867,4441.235652,9918.759623,-1149.143247
131.076188,4589.276840,9696.697840,-1149.143247
131.076508,4145.153275,9326.594869,-306.438199
131.076829,3330.926739,8808.450710,153.219100
131.077150,3034.844362,9104.533087,995.924147
131.077470,2590.720797,9400.615463,689.485948
131.077791,2516.700203,8882.471304,0.000000
131.078112,2516.700203,8216.285956,-536.266849
131.078432,3330.926739,8734.430116,-383.047749
131.078753,3182.885551,9474.636058,0.000000
131.079074,2886.803174,9326.594869,306.438199
131.079395,2664.741391,8882.471304,383.047749
131.079715,2368.659014,9030.512492,0.000000
131.080036,2368.659014,10140.821405,0.000000
131.080357,2146.597232,11251.130318,-689.485948
131.080677,1776.494261,11621.233289,-1378.971896
131.080998,1702.473667,11843.295072,-919.314598
131.081319,1332.370696,11029.068536,-612.876398
131.081639,148.041188,11177.109724,-1302.362347
131.081960,-296.082377,11399.171507,-1302.362347
131.082281,-1110.308913,12213.398043,-689.485948
131.082601,-1258.350101,12879.583391,306.438199
131.082922,-1184.329507,12065.356855,1149.143247
131.083243,-666.185348,12065.356855,1072.533697
131.083563,-1184.329507,12213.398043,1608.800546
131.083884,-2146.597232,12509.480420,1225.752797
131.084205,-2738.761985,11325.150913,229.828649
131.084525,-1776.494261,10214.842000,-1225.752797
131.084846,-1332.370696,9770.718434,-229.828649
131.085167,-1110.308913,10288.862594,459.657299
131.085487,-518.144159,10436.903782,919.314598
131.085808,-222.061783,10807.006753,-153.219100
131.086129,444.123565,11399.171507,-1225.752797
131.086449,1480.411884,11251.130318,-1225.752797
131.086770,2072.576638,10732.986159,-306.438199
131.087091,3034.844362,10955.047942,153.219100
131.087411,2812.782580,10807.006753,0.000000
131.087732,2294.638420,9770.718434,-2374.896044
131.088053,2146.597232,9178.553681,-2757.943793
131.088374,1850.514855,9400.615463,-1532.190996
131.088694,1998.556043,9696.697840,-229.828649
131.089015,1924.535449,9992.780217,-306.438199
131.089336,1554.432478,10732.986159,-612.876398
131.089656,740.205942,11399.171507,-306.438199
131.089977,148.041188,11251.130318,766.095498
131.090298,-296.082377,10288.862594,306.438199
131.090618,0.000000,9548.656652,229.828649
131.090939,148.041188,9622.677246,689.485948
131.091260,0.000000,10362.883188,1149.143247
131.091580,-296.082377,11251.130318,1302.362347
131.091901,74.020594,11325.150913,1149.143247
131.092222,1036.288319,11547.212695,1072.533697
131.092542,1332.370696,10881.027347,842.705048
131.092863,962.267725,10658.965565,-153.219100
131.093184,1036.288319,10140.821405,-689.485948
131.093504,1184.329507,9696.697840,-689.485948
131.093825,1480.411884,9178.553681,-383.047749
131.094146,1184.329507,8290.306550,229.828649
131.094466,2220.617826,8734.430116,229.828649
131.094787,2442.679609,10584.944971,-459.657299
131.095108,2294.638420,11251.130318,-306.438199
131.095428,2664.741391,11325.150913,-766.095498
131.095749,3404.947333,10658.965565,-1149.143247
131.096070,3478.967927,9696.697840,-842.705048
131.096390,3182.885551,9252.574275,-383.047749
131.096711,2368.659014,9474.636058,-1378.971896
131.097032,2146.597232,10881.027347,-842.705048
131.097352,1702.473667,11769.274478,-153.219100
131.097673,1332.370696,11695.253884,-383.047749
131.097994,1702.473667,11399.171507,-1378.971896
131.098315,0.000000,9918.759623,-1838.629195
131.098635,-1184.329507,8956.491898,-612.876398
131.098956,-1702.473667,8216.285956,153.219100
131.099277,-1702.473667,8956.491898,1072.533697
131.099597,-518.144159,10658.965565,1838.629195
131.099918,222.061783,12879.583391,1532.190996
131.100239,444.123565,14804.118840,459.657299
131.100559,222.061783,14434.015869,153.219100
131.100880,1406.391290,13323.706956,0.000000
131.101201,1406.391290,11399.171507,-383.047749
131.101521,962.267725,10362.883188,76.609550
131.101842,74.020594,9400.615463,-306.438199
131.102163,-518.144159,9178.553681,-1685.410096
131.102483,-1628.453072,9030.512492,-1532.190996
131.102804,-1480.411884,10066.800811,-1532.190996
131.103125,-592.164754,11325.150913,306.438199
131.103445,666.185348,12139.377449,0.000000
131.103766,1258.350101,13175.665768,0.000000
131.104087,222.061783,13249.686362,-306.438199
131.104407,518.144159,13471.748144,-919.314598
131.104728,1036.288319,12731.542202,-536.266849
131.105049,1110.308913,10881.027347,-842.705048
131.105369,1480.411884,8734.430116,-766.095498
131.105690,1406.391290,7476.080014,-766.095498
131.106011,1110.308913,9326.594869,153.219100
131.106331,74.020594,11177.109724,766.095498
131.106652,-296.082377,11399.171507,76.609550
131.106973,296.082377,9548.656652,-153.219100
131.107294,1036.288319,8660.409521,153.219100
131.107614,222.061783,9178.553681,1225.752797
131.107935,518.144159,10140.821405,842.705048
131.108256,0.000000,11843.295072,-383.047749
131.108576,0.000000,12731.542202,-1685.410096
131.108897,666.185348,12361.439231,-2221.676944
131.109218,1776.494261,13027.624579,-1225.752797
131.109538,1110.308913,13027.624579,-76.609550
131.109859,592.164754,11917.315666,383.047749
131.110180,962.267725,9992.780217,1608.800546
131.110500,888.247130,8512.368333,1991.848295
131.110821,222.061783,7920.203579,2298.286494
131.111142,-592.164754,7920.203579,995.924147
131.111462,-296.082377,7624.121203,536.266849
131.111783,888.247130,7476.080014,-536.266849
131.112104,3256.906145,7920.203579,0.000000
131.112424,5107.421000,9696.697840,229.828649
131.112745,5181.441594,12065.356855,76.609550
131.113066,4145.153275,11399.171507,-1149.143247
131.113386,3997.112087,9104.533087,-2451.505594
131.113707,4737.318029,6069.688724,-2451.505594
131.114028,5625.565159,5255.462188,0.000000
131.114348,6883.915261,8068.244768,2221.676944
131.114669,4811.338623,10881.027347,229.828649
131.114990,3627.009116,11473.192101,-2834.553343
131.115310,4367.215058,9918.759623,-3677.258390
131.115631,3923.091493,7920.203579,-2221.676944
131.115952,2812.782580,5773.606348,0.000000
131.116273,2812.782580,5551.544565,612.876398
131.116593,3552.988522,8142.265362,306.438199
131.116914,2368.659014,11769.274478,995.924147
131.117235,1628.453072,13175.665768,766.095498
131.117555,2590.720797,11769.274478,459.657299
131.117876,3478.967927,10881.027347,1378.971896
131.118197,2886.803174,10584.944971,2298.286494
131.118517,2368.659014,8660.409521,689.485948
131.118838,3478.967927,7550.100608,-919.314598
131.119159,3108.864956,6809.894666,153.219100
131.119479,3552.988522,6365.771101,459.657299
131.119800,4885.359217,5625.565159,1455.581446
131.120121,5995.668130,6069.688724,1685.410096
131.120441,7254.018232,9030.512492,1532.190996
131.120762,7254.018232,9622.677246,0.000000
131.121083,8586.388927,8364.327145,-1991.848295
131.121403,9400.615463,6883.915261,-2604.724693
131.121724,8882.471304,5847.626942,-2145.067394
131.122045,7698.141797,6291.750507,-2298.286494
131.122365,6217.729913,7994.224174,-2374.896044
131.122686,4885.359217,9548.656652,-2681.334243
131.123007,4811.338623,9326.594869,-1302.362347
131.123327,5033.400406,8290.306550,0.000000
131.123648,5329.482782,8364.327145,612.876398
131.123969,4145.153275,8438.347739,383.047749
131.124289,3552.988522,8512.368333,76.609550
131.124610,2812.782580,8142.265362,689.485948
131.124931,2812.782580,6513.812290,1149.143247
131.125252,2886.803174,5773.606348,1302.362347
131.125572,3627.009116,7328.038826,766.095498
131.125893,3849.070898,10584.944971,536.266849
131.126214,3552.988522,11399.171507,842.705048
131.126534,3478.967927,10436.903782,76.609550
131.126855,4959.379811,9696.697840,842.705048
131.127176,3775.050304,7846.182985,1608.800546
131.127497,3034.844362,5551.544565,306.438199
131.127817,3849.070898,5107.421000,0.000000
131.128138,5181.441594,6291.750507,229.828649
131.128459,6809.894666,7254.018232,459.657299
131.128779,7105.977043,8068.244768,536.266849
131.129100,6291.750507,8512.368333,-1608.800546
131.129421,6365.771101,7994.224174,-2911.162892
131.129742,7476.080014,7698.141797,-2221.676944
131.130062,7920.203579,6809.894666,-1838.629195
131.130383,8290.306550,6439.791695,-612.876398
131.130704,7476.080014,7402.059420,-153.219100
131.131025,5551.544565,9474.636058,-842.705048
131.131345,3701.029710,9992.780217,-995.924147
131.131666,3701.029710,8808.450710,-2068.457845
131.131987,3849.070898,6439.791695,-1685.410096
131.132307,4663.297435,5551.544565,0.000000
131.132628,4589.276840,7328.038826,1225.752797
131.132949,3478.967927,8956.491898,1149.143247
131.133270,2960.823768,10436.903782,1225.752797
131.133590,2738.761985,9992.780217,1685.410096
131.133911,2738.761985,9104.533087,1378.971896
131.134232,2812.782580,8882.471304,1225.752797
131.134552,3775.050304,9696.697840,0.000000
131.134873,3552.988522,10658.965565,-306.438199
131.135194,3552.988522,10362.883188,0.000000
131.135515,3849.070898,9918.759623,-153.219100
131.135835,3552.988522,9178.553681,0.000000
131.136156,2664.741391,8216.285956,153.219100
131.136477,3849.070898,7254.018232,842.705048
131.136797,4737.318029,7105.977043,689.485948
131.137118,6365.771101,7328.038826,459.657299
131.137439,7476.080014,8438.347739,229.828649
131.137760,6587.832884,8956.491898,-612.876398
131.138080,5625.565159,8808.450710,-1149.143247
131.138401,5773.606348,7624.121203,-1608.800546
131.138722,5699.585753,5921.647536,-2374.896044
131.139042,6513.812290,5551.544565,-1532.190996
131.139363,7402.059420,7550.100608,-842.705048
131.139684,7031.956449,9400.615463,-536.266849
131.140005,5847.626942,9918.759623,-612.876398
131.140325,5477.523971,9400.615463,-1225.752797
131.140646,5551.544565,7179.997637,-995.924147
131.140967,4737.318029,5699.585753,153.219100
131.141287,5773.606348,5699.585753,1072.533697
131.141608,6365.771101,6365.771101,306.438199
131.141929,5995.668130,7105.977043,306.438199
131.142250,4441.235652,7772.162391,0.000000
131.142570,3034.844362,7772.162391,1072.533697
131.142891,3034.844362,7772.162391,842.705048
131.143212,3923.091493,8290.306550,0.000000
131.143533,5181.441594,8808.450710,0.000000
131.143853,5847.626942,9326.594869,-689.485948
131.144174,5107.421000,9326.594869,-153.219100
131.144495,4737.318029,8956.491898,383.047749
131.144815,4293.194464,8290.306550,1072.533697
131.145136,4441.235652,7698.141797,459.657299
131.145457,4737.318029,7105.977043,-612.876398
131.145778,6143.709319,7698.141797,-995.924147
131.146098,7624.121203,7698.141797,0.000000
131.146419,6809.894666,7846.182985,536.266849
131.146740,5995.668130,7476.080014,842.705048
131.147060,5033.400406,7179.997637,459.657299
131.147381,3923.091493,6809.894666,-306.438199
131.147702,4145.153275,6661.853478,-1302.362347
131.148023,6661.853478,8512.368333,-1149.143247
131.148343,7105.977043,9918.759623,-612.876398
131.148664,6143.709319,10214.842000,-383.047749
131.148985,5921.647536,9696.697840,153.219100
131.149305,4441.235652,8660.409521,612.876398
131.149626,2886.803174,7105.977043,1532.190996
131.149947,3478.967927,6291.750507,1225.752797
131.150268,4885.359217,6513.812290,76.609550
131.150588,6587.832884,7254.018232,0.000000
131.150909,5995.668130,7772.162391,766.095498
131.151230,4737.318029,7179.997637,536.266849
131.151550,3849.070898,7105.977043,1072.533697
131.151871,2812.782580,6809.894666,76.609550
131.152192,3701.029710,6439.791695,-1762.019645
131.152513,6957.935855,7328.038826,-1225.752797
131.152833,7105.977043,9104.533087,0.000000
131.153154,6291.750507,9696.697840,0.000000
131.153475,5773.606348,9622.677246,76.609550
131.153796,4071.132681,8512.368333,-536.266849
131.154116,4441.235652,7105.977043,0.000000
131.154437,6143.709319,6439.791695,1149.143247
131.154758,6513.812290,6069.688724,-459.657299
131.155078,6661.853478,6365.771101,-766.095498
131.155399,6735.874072,7105.977043,536.266849
131.155720,5921.647536,7328.038826,459.657299
131.156041,5181.441594,6143.709319,766.095498
131.156361,4293.194464,5255.462188,-1685.410096
131.156682,4959.379811,7105.977043,-2911.162892
131.157003,6143.709319,9622.677246,-1302.362347
131.157323,6809.894666,11177.109724,-612.876398
131.157644,6291.750507,10362.883188,-153.219100
131.157965,5995.668130,9252.574275,383.047749
131.158286,4441.235652,8734.430116,612.876398
131.158606,3108.864956,7550.100608,229.828649
131.158927,3330.926739,7402.059420,-536.266849
131.159248,5181.441594,7179.997637,-766.095498
131.159568,7105.977043,7624.121203,612.876398
131.159889,7031.956449,7624.121203,2221.676944
131.160210,5181.441594,7402.059420,1455.581446
131.160531,3182.885551,7105.977043,-153.219100
131.160851,2886.803174,7476.080014,-1608.800546
131.161172,4811.338623,7254.018232,-1608.800546
131.161493,6809.894666,7994.224174,-919.314598
131.161813,8216.285956,9178.553681,-612.876398
131.162134,6439.791695,10214.842000,-689.485948
131.162455,4737.318029,9992.780217,-1378.971896
131.162776,3997.112087,8438.347739,-1455.581446
131.163096,4219.173869,6883.915261,-1149.143247
131.163417,5995.668130,6439.791695,-229.828649
131.163738,7402.059420,7105.977043,-459.657299
131.164058,6587.832884,7550.100608,-612.876398
131.164379,6513.812290,7105.977043,0.000000
131.164700,5921.647536,6365.771101,153.219100
131.165021,4367.215058,5329.482782,-229.828649
131.165341,4737.318029,5847.626942,-1838.629195
131.165662,6217.729913,8142.265362,-1838.629195
131.165983,6883.915261,9622.677246,-1838.629195
131.166304,7105.977043,9326.594869,-536.266849
131.166624,6809.894666,8882.471304,0.000000
131.166945,5033.400406,9326.594869,306.438199
131.167266,3478.967927,9474.636058,229.828649
131.167586,2812.782580,8512.368333,76.609550
131.167907,3701.029710,7994.224174,0.000000
131.168228,6069.688724,8734.430116,1455.581446
131.168549,6069.688724,8438.347739,1532.190996
131.168869,4589.276840,7698.141797,1455.581446
131.169190,3330.926739,7402.059420,1532.190996
131.169511,2368.659014,6883.915261,689.485948
131.169831,2072.576638,6883.915261,-306.438199
131.170152,4589.276840,8438.347739,-919.314598
131.170473,5995.668130,10214.842000,-536.266849
131.170794,6587.832884,10510.924376,306.438199
131.171114,5921.647536,9770.718434,766.095498
131.171435,4441.235652,8956.491898,-306.438199
131.171756,3182.885551,7624.121203,0.000000
131.172076,3552.988522,6957.935855,459.657299
131.172397,5181.441594,7105.977043,153.219100
131.172718,7031.956449,7698.141797,-229.828649
131.173039,7550.100608,7994.224174,306.438199
131.173359,5699.585753,6957.935855,229.828649
131.173680,4367.215058,5625.565159,689.485948
131.174001,3627.009116,4441.235652,76.609550
131.174321,4441.235652,4737.318029,-1378.971896
131.174642,6069.688724,6661.853478,-2145.067394
131.174963,7179.997637,8660.409521,-689.485948
131.175284,6365.771101,9622.677246,-612.876398
131.175604,5255.462188,9400.615463,-919.314598
131.175925,5329.482782,8808.450710,-229.828649
131.176246,5181.441594,7550.100608,459.657299
131.176566,3478.967927,6217.729913,0.000000
131.176887,4441.235652,5995.668130,-306.438199
131.177208,7031.956449,7550.100608,-229.828649
131.177529,6365.771101,8216.285956,1225.752797
131.177849,5329.482782,7031.956449,842.705048
131.178170,5773.606348,5995.668130,0.000000
131.178491,3478.967927,6217.729913,-1302.362347
131.178812,3775.050304,7254.018232,-1455.581446
131.179132,5699.585753,8808.450710,-766.095498
131.179453,6735.874072,8882.471304,-229.828649
131.179774,7254.018232,9918.759623,0.000000
131.180094,5773.606348,10955.047942,-766.095498
131.180415,3256.906145,9918.759623,-2221.676944
131.180736,2960.823768,9326.594869,-1072.533697
131.181057,3923.091493,8586.388927,536.266849
131.181377,5181.441594,7772.162391,536.266849
131.181698,6809.894666,7994.224174,919.314598
131.182019,6513.812290,8808.450710,536.266849
131.182339,3775.050304,9030.512492,536.266849
131.182660,2516.700203,7920.203579,76.609550
131.182981,2886.803174,7179.997637,-1225.752797
131.183302,3701.029710,7254.018232,-1302.362347
131.183622,5255.462188,9326.594869,-383.047749
131.183943,7105.977043,11769.274478,-229.828649
131.184264,4959.379811,11399.171507,-1762.019645
131.184584,3775.050304,10881.027347,-1838.629195
131.184905,3997.112087,9918.759623,-995.924147
131.185226,3627.009116,8586.388927,536.266849
131.185547,3923.091493,8216.285956,1225.752797
131.185867,4885.359217,7179.997637,612.876398
131.186188,5551.544565,6513.812290,-536.266849
131.186509,5107.421000,6661.853478,229.828649
131.186829,4071.132681,7476.080014,1149.143247
131.187150,3627.009116,6883.915261,76.609550
131.187471,3701.029710,6143.709319,-1225.752797
131.187792,5477.523971,6957.935855,-1762.019645
131.188112,6143.709319,8660.409521,-1072.533697
131.188433,6069.688724,9548.656652,-383.047749
131.188754,5033.400406,10214.842000,-1072.533697
131.189074,5107.421000,10288.862594,-1225.752797
131.189395,4145.153275,9474.636058,-689.485948
131.189716,3330.926739,7624.121203,-612.876398
131.190037,3701.029710,6883.915261,153.219100
131.190357,4885.359217,7476.080014,76.609550
131.190678,5403.503377,7550.100608,689.485948
131.190999,5107.421000,6143.709319,1378.971896
131.191320,5181.441594,5773.606348,1225.752797
131.191640,4293.194464,6809.894666,1378.971896
131.191961,3404.947333,6587.832884,-536.266849
131.192282,4959.379811,7624.121203,-1302.362347
131.192602,7402.059420,8956.491898,-383.047749
131.192923,6957.935855,9918.759623,306.438199
131.193244,6291.750507,9548.656652,459.657299
131.193565,3997.112087,9918.759623,-1072.533697
131.193885,2664.741391,9918.759623,-995.924147
131.194206,3034.844362,9326.594869,0.000000
131.194527,4441.235652,7624.121203,612.876398
131.194847,5625.565159,7254.018232,1302.362347
131.195168,5773.606348,7476.080014,1685.410096
131.195489,4367.215058,7994.224174,1532.190996
131.195810,3330.926739,7550.100608,612.876398
131.196130,2960.823768,6661.853478,0.000000
131.196451,4441.235652,5477.523971,-689.485948
131.196772,5403.503377,6587.832884,-1072.533697
131.197092,5921.647536,8734.430116,-306.438199
131.197413,5403.503377,10955.047942,0.000000
131.197734,5033.400406,10658.965565,-1149.143247
131.198055,4737.318029,9252.574275,-1532.190996
131.198375,4663.297435,8142.265362,-306.438199
131.198696,3849.070898,7698.141797,153.219100
131.199017,4441.235652,8586.388927,-306.438199
131.199337,5403.503377,8808.450710,-536.266849
131.199658,5699.585753,7994.224174,-536.266849
131.199979,5403.503377,7105.977043,383.047749
131.200300,4885.359217,5847.626942,612.876398
131.200620,3256.906145,5995.668130,612.876398
131.200941,2960.823768,6661.853478,-919.314598
131.201262,4367.215058,7624.121203,-1225.752797
131.201582,6513.812290,9326.594869,-306.438199
131.201903,6661.853478,9400.615463,0.000000
131.202224,5403.503377,9992.780217,-919.314598
131.202545,4071.132681,10362.883188,-1455.581446
131.202865,2664.741391,10510.924376,-1378.971896
131.203186,2442.679609,8660.409521,-612.876398
131.203507,4663.297435,7846.182985,0.000000
131.203828,7105.977043,6809.894666,995.924147
131.204148,5847.626942,7698.141797,689.485948
131.204469,4071.132681,8438.347739,-229.828649
131.204790,3034.844362,8068.244768,-919.314598
131.205110,2368.659014,7179.997637,-536.266849
131.205431,4737.318029,7105.977043,0.000000
131.205752,6587.832884,8216.285956,306.438199
131.206073,6291.750507,10288.862594,-842.705048
131.206393,4885.359217,11177.109724,-1838.629195
131.206714,4145.153275,11103.089130,-1685.410096
131.207035,4441.235652,9622.677246,153.219100
131.207355,4959.379811,8142.265362,1225.752797
131.207676,4071.132681,7179.997637,-76.609550
131.207997,4737.318029,8142.265362,-1608.800546
131.208318,5255.462188,8660.409521,-612.876398
131.208638,5181.441594,7772.162391,306.438199
131.208959,4959.379811,5995.668130,1762.019645
131.209280,4737.318029,6143.709319,1532.190996
131.209600,3552.988522,7105.977043,-536.266849
131.209921,3849.070898,8142.265362,-2298.286494
131.210242,6217.729913,9252.574275,-2451.505594
131.210563,7254.018232,10288.862594,-1149.143247
131.210883,6735.874072,9548.656652,306.438199
131.211204,6439.791695,9622.677246,383.047749
131.211525,3997.112087,8882.471304,-229.828649
131.211845,3330.926739,7920.203579,-766.095498
131.212166,3701.029710,7105.977043,76.609550
131.212487,5107.421000,7105.977043,612.876398
131.212808,5995.668130,7624.121203,842.705048
131.213128,5921.647536,7254.018232,842.705048
131.213449,4737.318029,6587.832884,1302.362347
131.213770,3849.070898,6069.688724,1685.410096
131.214090,3108.864956,5995.668130,229.828649
131.214411,4071.132681,6513.812290,-995.924147
131.214732,6143.709319,8290.306550,-842.705048
131.215053,7254.018232,10140.821405,153.219100
131.215373,6143.709319,9918.759623,0.000000
131.215694,4367.215058,9474.636058,-1072.533697
131.216015,3182.885551,8882.471304,-1685.410096
131.216336,3404.947333,8216.285956,-229.828649
131.216656,4663.297435,7105.977043,229.828649
131.216977,6069.688724,6661.853478,536.266849
131.217298,5921.647536,7179.997637,536.266849
131.217618,5625.565159,7772.162391,1072.533697
131.217939,4441.235652,7550.100608,1225.752797
131.218260,4219.173869,6587.832884,-383.047749
131.218581,4737.318029,5625.565159,-1455.581446
131.218901,5477.523971,6661.853478,-1378.971896
131.219222,5033.400406,8734.430116,-689.485948
131.219543,5625.565159,9992.780217,-306.438199
131.219863,5921.647536,10362.883188,76.609550
131.220184,4885.359217,10362.883188,0.000000
131.220505,3330.926739,8660.409521,-842.705048
131.220826,3182.885551,8216.285956,-995.924147
131.221146,3108.864956,8956.491898,-766.095498
131.221467,5255.462188,8808.450710,383.047749
131.221788,6587.832884,8142.265362,842.705048
131.222108,6217.729913,7179.997637,842.705048
131.222429,4219.173869,7328.038826,1302.362347
131.222750,3034.844362,7920.203579,536.266849
131.223071,2516.700203,7624.121203,-1149.143247
131.223391,4589.276840,7402.059420,-842.705048
131.223712,7179.997637,8142.265362,0.000000
131.224033,7179.997637,8808.450710,306.438199
131.224354,5255.462188,9844.739029,0.000000
131.224674,3330.926739,10214.842000,-766.095498
131.224995,3256.906145,9770.718434,-1302.362347
131.225316,4367.215058,7550.100608,-842.705048
131.225637,5625.565159,7328.038826,-689.485948
131.225957,7105.977043,8586.388927,0.000000
131.226278,6587.832884,8438.347739,995.924147
131.226599,4515.256246,8956.491898,459.657299
131.226920,3034.844362,7254.018232,306.438199
131.227240,3182.885551,6957.935855,0.000000
131.227561,4145.153275,6365.771101,0.000000
131.227882,4515.256246,7254.018232,-919.314598
131.228203,5625.565159,8438.347739,-766.095498
131.228523,5773.606348,10214.842000,-153.219100
131.228844,4515.256246,9474.636058,0.000000
131.229165,4071.132681,8512.368333,0.000000
131.229486,5181.441594,7179.997637,306.438199
131.229806,3849.070898,7179.997637,229.828649
131.230127,5033.400406,6365.771101,-459.657299
131.230448,7402.059420,6587.832884,-306.438199
131.230769,7698.141797,7105.977043,306.438199
131.231089,7772.162391,7624.121203,919.314598
131.231410,7105.977043,7179.997637,459.657299
131.231731,5033.400406,5921.647536,-1762.019645
131.232052,4885.359217,5255.462188,-1991.848295
131.232372,7179.997637,5921.647536,-459.657299
131.232693,8660.409521,7476.080014,76.609550
131.233014,8142.265362,8364.327145,383.047749
131.233335,6217.729913,8956.491898,-766.095498
131.233655,5329.482782,8882.471304,-1532.190996
131.233976,3849.070898,8068.244768,-766.095498
131.234297,4515.256246,7179.997637,229.828649
131.234618,5847.626942,6291.750507,689.485948
131.234938,6883.915261,7031.956449,766.095498
131.235259,6513.812290,7994.224174,306.438199
131.235580,4959.379811,7994.224174,536.266849
131.235901,3997.112087,7254.018232,76.609550
131.236222,3256.906145,6957.935855,-766.095498
131.236542,3849.070898,6735.874072,-689.485948
131.236863,5403.503377,8438.347739,-306.438199
131.237184,6587.832884,9844.739029,459.657299
131.237505,5995.668130,10955.047942,842.705048
131.237825,4367.215058,10732.986159,0.000000
131.238146,3404.947333,9622.677246,-689.485948
131.238467,3108.864956,8586.388927,153.219100
131.238788,4145.153275,7846.182985,842.705048
131.239108,5921.647536,7550.100608,383.047749
131.239429,6439.791695,7772.162391,229.828649
131.239750,5921.647536,7476.080014,383.047749
131.240071,4811.338623,7402.059420,995.924147
131.240391,4071.132681,6883.915261,689.485948
131.240712,4219.173869,6069.688724,-306.438199
131.241033,5033.400406,6291.750507,-1532.190996
131.241354,6513.812290,7476.080014,-2451.505594
131.241674,7402.059420,9770.718434,-1225.752797
131.241995,6735.874072,10436.903782,-459.657299
131.242316,5995.668130,9548.656652,-689.485948
131.242637,5181.441594,8364.327145,-306.438199
131.242957,4219.173869,7254.018232,-919.314598
131.243278,4515.256246,7328.038826,-1302.362347
131.243599,5847.626942,7920.203579,-842.705048
131.243920,7328.038826,8734.430116,0.000000
131.244240,6957.935855,7550.100608,1149.143247
131.244561,4811.338623,7105.977043,2068.457845
131.244882,2442.679609,6217.729913,536.266849
131.245203,1924.535449,5995.668130,-1225.752797
131.245523,3330.926739,7328.038826,-842.705048
131.245844,6143.709319,8586.388927,-153.219100
131.246165,7031.956449,9548.656652,229.828649
131.246486,5551.544565,10214.842000,0.000000
131.246806,4737.318029,10140.821405,536.266849
131.247127,2590.720797,9030.512492,919.314598
131.247448,2886.803174,7328.038826,76.609550
131.247769,4663.297435,6291.750507,-229.828649
131.248090,6143.709319,7179.997637,0.000000
131.248410,6661.853478,7846.182985,1225.752797
131.248731,6365.771101,8364.327145,919.314598
131.249052,4811.338623,7624.121203,306.438199
131.249373,3182.885551,6439.791695,-766.095498
131.249693,3701.029710,5181.441594,-1532.190996
131.250014,5477.523971,6513.812290,-1302.362347
131.250335,6957.935855,8290.306550,-383.047749
131.250656,7994.224174,9548.656652,-153.219100
131.250976,7031.956449,9622.677246,-766.095498
131.251297,4515.256246,8808.450710,-1685.410096
131.251618,4219.173869,8142.265362,-612.876398
131.251939,4367.215058,7254.018232,0.000000
131.252259,4737.318029,7105.977043,-76.609550
131.252580,6365.771101,7105.977043,-229.828649
131.252901,6809.894666,7920.203579,-229.828649
131.253222,5773.606348,7698.141797,229.828649
131.253542,3923.091493,7179.997637,1149.143247
131.253863,2886.803174,6809.894666,76.609550
131.254184,3404.947333,6439.791695,-1608.800546
131.254505,5255.462188,7624.121203,-1838.629195
131.254825,6735.874072,9622.677246,-919.314598
131.255146,6069.688724,9918.759623,229.828649
131.255467,5699.585753,10066.800811,612.876398
131.255788,3775.050304,9400.615463,612.876398
131.256108,2886.803174,8586.388927,0.000000
131.256429,2960.823768,8290.306550,-842.705048
131.256750,4219.173869,8290.306550,-1378.971896
131.257071,6735.874072,8586.388927,-383.047749
131.257391,7402.059420,8142.265362,1378.971896
131.257712,6143.709319,7994.224174,1225.752797
131.258033,4737.318029,7698.141797,383.047749
131.258354,3034.844362,7031.956449,-612.876398
131.258675,3108.864956,7105.977043,-1685.410096
131.258995,5329.482782,8216.285956,-1838.629195
131.259316,6957.935855,9400.615463,-612.876398
131.259637,6809.894666,9474.636058,153.219100
131.259958,4589.276840,9474.636058,153.219100
131.260278,3182.885551,8882.471304,229.828649
131.260599,2886.803174,8142.265362,0.000000
131.260920,3034.844362,7105.977043,-459.657299
131.261241,5477.523971,7476.080014,-842.705048
131.261561,7328.038826,8660.409521,153.219100
131.261882,7550.100608,8364.327145,995.924147
131.262203,5995.668130,7105.977043,919.314598
131.262524,4663.297435,6513.812290,229.828649
131.262844,3256.906145,5477.523971,-1225.752797
131.263165,4737.318029,5995.668130,-2221.676944
131.263486,6957.935855,7698.141797,-1915.238745
131.263807,7994.224174,9030.512492,-766.095498
131.264127,7105.977043,9622.677246,995.924147
131.264448,5921.647536,10288.862594,459.657299
131.264769,3552.988522,8956.491898,-842.705048
131.265090,2886.803174,7402.059420,-1072.533697
131.265410,5107.421000,6291.750507,-612.876398
131.265731,5847.626942,6587.832884,76.609550
131.266052,7328.038826,7698.141797,459.657299
131.266373,7254.018232,8216.285956,995.924147
131.266693,5033.400406,7920.203579,536.266849
131.267014,3775.050304,7402.059420,919.314598
131.267335,2664.741391,6661.853478,-536.266849
131.267656,3256.906145,5921.647536,-2681.334243
131.267976,4885.359217,8142.265362,-1225.752797
131.268297,6069.688724,10584.944971,229.828649
131.268618,5773.606348,11695.253884,383.047749
131.268939,4367.215058,11029.068536,459.657299
131.269259,2590.720797,9548.656652,-842.705048
131.269580,2220.617826,8734.430116,-612.876398
131.269901,2886.803174,8512.368333,766.095498
131.270222,4293.194464,8808.450710,689.485948
131.270543,5773.606348,7920.203579,1608.800546
131.270863,6513.812290,7698.141797,1915.238745
131.271184,4515.256246,7994.224174,842.705048
131.271505,1924.535449,7328.038826,0.000000
131.271826,2146.597232,6513.812290,-1915.238745
131.272146,4219.173869,6513.812290,-1685.410096
131.272467,6957.935855,7772.162391,0.000000
131.272788,8364.327145,9474.636058,842.705048
131.273109,6735.874072,9918.759623,-383.047749
131.273429,4737.318029,9918.759623,-919.314598
131.273750,3552.988522,9844.739029,-1608.800546
131.274071,3552.988522,7994.224174,-1225.752797
131.274392,4959.379811,6513.812290,-766.095498
131.274712,7105.977043,6661.853478,0.000000
131.275033,7105.977043,8216.285956,153.219100
131.275354,5107.421000,8512.368333,842.705048
131.275675,3034.844362,7994.224174,383.047749
131.275995,2368.659014,6439.791695,-229.828649
131.276316,3034.844362,5403.503377,-536.266849
131.276637,4663.297435,6365.771101,-306.438199
131.276958,6143.709319,8438.347739,-766.095498
131.277278,6291.750507,10140.821405,-459.657299
131.277599,5551.544565,10066.800811,-689.485948
131.277920,4071.132681,9474.636058,-459.657299
131.278241,3404.947333,8364.327145,0.000000
131.278561,3627.009116,7994.224174,459.657299
131.278882,4293.194464,8512.368333,-536.266849
131.279203,5995.668130,8808.450710,-842.705048
131.279524,7476.080014,8290.306550,76.609550
131.279844,6365.771101,7698.141797,842.705048
131.280165,4589.276840,6809.894666,1455.581446
131.280486,3552.988522,6809.894666,689.485948
131.280807,2886.803174,6513.812290,-1072.533697
131.281127,4737.318029,7031.956449,-995.924147
131.281448,7402.059420,8660.409521,-766.095498
131.281769,7254.018232,9992.780217,0.000000
131.282090,5329.482782,10362.883188,-612.876398
131.282411,3775.050304,10288.862594,-612.876398
131.282731,2886.803174,8956.491898,-1072.533697
131.283052,3552.988522,7772.162391,-383.047749
131.283373,5181.441594,7328.038826,-153.219100
131.283694,6587.832884,8142.265362,0.000000
131.284014,7031.956449,8882.471304,1302.362347
131.284335,5625.565159,8142.265362,383.047749
131.284656,3552.988522,6809.894666,-76.609550
131.284977,2886.803174,5773.606348,-229.828649
131.285297,3478.967927,5329.482782,-383.047749
131.285618,4737.318029,7698.141797,-766.095498
131.285939,6143.709319,9918.759623,-612.876398
131.286260,6143.709319,10881.027347,-229.828649
131.286580,4737.318029,9770.718434,76.609550
131.286901,3034.844362,8882.471304,0.000000
131.287222,2960.823768,8956.491898,536.266849
131.287543,3034.844362,7476.080014,-536.266849
131.287863,4293.194464,7772.162391,-1149.143247
131.288184,6661.853478,8438.347739,229.828649
131.288505,7031.956449,8956.491898,1532.190996
131.288826,6069.688724,8512.368333,1302.362347
131.289146,4219.173869,7624.121203,612.876398
131.289467,2220.617826,6069.688724,-1072.533697
131.289788,2664.741391,4811.338623,-1532.190996
131.290109,5625.565159,7105.977043,0.000000
131.290429,6661.853478,9400.615463,383.047749
131.290750,5921.647536,10436.903782,-612.876398
131.291071,5477.523971,10214.842000,-919.314598
131.291392,3404.947333,9696.697840,-1302.362347
131.291712,3034.844362,8216.285956,0.000000
131.292033,4441.235652,7179.997637,1302.362347
131.292354,5403.503377,7105.977043,229.828649
131.292675,6661.853478,7550.100608,153.219100
131.292996,6809.894666,8512.368333,153.219100
131.293316,4885.359217,7772.162391,-995.924147
131.293637,4219.173869,7624.121203,-383.047749
131.293958,3182.885551,6809.894666,459.657299
131.294279,4219.173869,5921.647536,-229.828649
131.294599,5699.585753,6513.812290,-689.485948
131.294920,6439.791695,8364.327145,-689.485948
131.295241,5699.585753,10214.842000,-459.657299
131.295562,4219.173869,10584.944971,-536.266849
131.295882,3478.967927,9844.739029,-842.705048
131.296203,3849.070898,8142.265362,-383.047749
131.296524,4663.297435,7105.977043,459.657299
131.296845,5773.606348,7624.121203,612.876398
131.297165,6513.812290,8882.471304,536.266849
131.297486,6439.791695,9474.636058,0.000000
131.297807,5255.462188,7698.141797,-536.266849
131.298128,4367.215058,6439.791695,766.095498
131.298448,4145.153275,6143.709319,1072.533697
131.298769,3478.967927,6143.709319,76.609550
131.299090,5329.482782,7624.121203,-995.924147
131.299411,6587.832884,9548.656652,-1302.362347
131.299731,5551.544565,10881.027347,-995.924147
131.300052,4293.194464,10584.944971,-229.828649
131.300373,4071.132681,9992.780217,-383.047749
131.300694,3256.906145,8956.491898,0.000000
131.301014,3627.009116,7550.100608,0.000000
131.301335,4959.379811,7772.162391,-842.705048
131.301656,6143.709319,8808.450710,229.828649
131.301977,5551.544565,9252.574275,1225.752797
131.302297,4737.318029,8364.327145,1225.752797
131.302618,3775.050304,7105.977043,612.876398
131.302939,3701.029710,5625.565159,0.000000
131.303260,4959.379811,6069.688724,-919.314598
131.303580,6291.750507,7994.224174,-1455.581446
131.303901,6587.832884,9326.594869,-612.876398
131.304222,6143.709319,9104.533087,0.000000
131.304543,5625.565159,8956.491898,0.000000
131.304864,4367.215058,8512.368333,153.219100
131.305184,4367.215058,8068.244768,-76.609550
131.305505,4885.359217,7328.038826,-995.924147
131.305826,6217.729913,7105.977043,-1149.143247
131.306147,7772.162391,7328.038826,306.438199
131.306467,6587.832884,7105.977043,1225.752797
131.306788,5033.400406,6291.750507,1532.190996
131.307109,4145.153275,6143.709319,612.876398
131.307430,3701.029710,5107.421000,-919.314598
131.307750,4737.318029,5477.523971,-2221.676944
131.308071,6957.935855,7698.141797,-1225.752797
131.308392,7624.121203,9622.677246,-306.438199
131.308713,6365.771101,10584.944971,-76.609550
131.309033,4959.379811,9474.636058,0.000000
131.309354,3627.009116,8142.265362,-612.876398
131.309675,3849.070898,7328.038826,-919.314598
131.309996,4515.256246,7624.121203,76.609550
131.310316,6291.750507,8808.450710,229.828649
131.310637,6587.832884,8734.430116,919.314598
131.310958,6069.688724,7846.182985,919.314598
131.311279,4367.215058,7031.956449,1072.533697
131.311599,2960.823768,6661.853478,383.047749
131.311920,2812.782580,6365.771101,-689.485948
131.312241,4737.318029,7772.162391,-1532.190996
131.312562,7105.977043,9030.512492,-383.047749
131.312882,6735.874072,10214.842000,229.828649
131.313203,6069.688724,10732.986159,0.000000
131.313524,3997.112087,10658.965565,153.219100
131.313845,3552.988522,9178.553681,306.438199
131.314165,3997.112087,7328.038826,229.828649
131.314486,5477.523971,6957.935855,-229.828649
131.314807,6217.729913,7772.162391,153.219100
131.315128,6143.709319,8586.388927,612.876398
131.315448,5255.462188,7846.182985,995.924147
131.315769,4219.173869,7328.038826,919.314598
131.316090,3330.926739,6291.750507,0.000000
131.316411,3404.947333,5995.668130,-842.705048
131.316732,5625.565159,7179.997637,-1302.362347
131.317052,6365.771101,9326.594869,-919.314598
131.317373,6439.791695,9918.759623,-1225.752797
131.317694,6143.709319,9474.636058,-842.705048
131.318015,4293.194464,9104.533087,-689.485948
131.318335,3552.988522,8364.327145,-153.219100
131.318656,3701.029710,7994.224174,-153.219100
131.318977,3997.112087,6957.935855,-1302.362347
131.319298,5995.668130,7772.162391,-612.876398
131.319618,6883.915261,8660.409521,1302.362347
131.319939,5477.523971,8216.285956,1685.410096
131.320260,4145.153275,6957.935855,1455.581446
131.320581,3256.906145,5477.523971,0.000000
131.320901,3627.009116,5403.503377,-995.924147
131.321222,5329.482782,6809.894666,-689.485948
131.321543,7179.997637,8808.450710,0.000000
131.321864,7328.038826,9178.553681,0.000000
131.322184,6365.771101,9400.615463,-306.438199
131.322505,4737.318029,9548.656652,-1072.533697
131.322826,3552.988522,8734.430116,-2068.457845
131.323147,4515.256246,7994.224174,-1378.971896
131.323467,6291.750507,7698.141797,-536.266849
131.323788,7179.997637,7920.203579,1072.533697
131.324109,6883.915261,8142.265362,2068.457845
131.324430,4885.359217,7550.100608,1225.752797
131.324750,3478.967927,7179.997637,919.314598
131.325071,2812.782580,6365.771101,229.828649
131.325392,4663.297435,6143.709319,-1072.533697
131.325713,6587.832884,7105.977043,-1302.362347
131.326033,7402.059420,9400.615463,-459.657299
131.326354,6513.812290,9326.594869,229.828649
131.326675,5477.523971,9548.656652,536.266849
131.326996,4367.215058,8956.491898,76.609550
131.327316,3627.009116,7476.080014,-842.705048
131.327637,4219.173869,6957.935855,-1225.752797
131.327958,5995.668130,8512.368333,-306.438199
131.328278,7105.977043,8660.409521,689.485948
131.328599,6883.915261,7772.162391,995.924147
131.328920,5773.606348,6883.915261,536.266849
131.329240,3478.967927,6143.709319,306.438199
131.329561,2368.659014,6069.688724,-536.266849
131.329881,4145.153275,5995.668130,-459.657299
131.330202,5995.668130,7476.080014,-383.047749
131.330523,7105.977043,8956.491898,229.828649
131.330843,6587.832884,9474.636058,-689.485948
131.331164,4441.235652,9622.677246,-1608.800546
131.331485,2738.761985,8660.409521,-1072.533697
131.331805,3182.885551,7698.141797,-842.705048
131.332126,4737.318029,6957.935855,-612.876398
131.332447,5921.647536,8142.265362,0.000000
131.332767,6143.709319,9030.512492,229.828649
131.333088,5255.462188,9252.574275,689.485948
131.333409,3923.091493,7772.162391,612.876398
131.333729,3182.885551,6661.853478,536.266849
131.334050,3701.029710,5773.606348,-383.047749
131.334371,4959.379811,6587.832884,-1225.752797
131.334691,6291.750507,9178.553681,-1762.019645
131.335012,7105.977043,10140.821405,-612.876398
131.335333,6661.853478,9844.739029,306.438199
131.335653,5773.606348,8956.491898,383.047749
131.335974,4589.276840,9104.533087,0.000000
131.336294,3923.091493,8512.368333,-229.828649
131.336615,4219.173869,7476.080014,-995.924147
131.336936,5995.668130,7772.162391,-766.095498
131.337256,7105.977043,8290.306550,306.438199
131.337577,5847.626942,8216.285956,766.095498
131.337898,4441.235652,7920.203579,612.876398
131.338218,3701.029710,7994.224174,229.828649
131.338539,3404.947333,7624.121203,-306.438199
131.338860,4145.153275,7328.038826,-459.657299
131.339180,6143.709319,7550.100608,-689.485948
131.339501,6587.832884,8956.491898,383.047749
131.339822,5625.565159,9030.512492,689.485948
131.340142,4737.318029,8882.471304,-306.438199
131.340463,3997.112087,7624.121203,-919.314598
131.340784,3552.988522,7105.977043,-842.705048
131.341104,4737.318029,6661.853478,-536.266849
131.341425,7328.038826,7624.121203,76.609550
131.341745,7476.080014,8512.368333,383.047749
131.342066,5995.668130,7772.162391,0.000000
131.342387,5107.421000,6735.874072,-459.657299
131.342707,3701.029710,6439.791695,-1072.533697
131.343028,3627.009116,5995.668130,-842.705048
131.343349,6143.709319,7105.977043,-1685.410096
131.343669,7328.038826,8438.347739,-1378.971896
131.343990,6809.894666,9696.697840,-536.266849
131.344311,5625.565159,10066.800811,306.438199
131.344631,3775.050304,9548.656652,-689.485948
131.344952,2294.638420,8808.450710,-612.876398
131.345273,2812.782580,7254.018232,153.219100
131.345593,3849.070898,7254.018232,0.000000
131.345914,5551.544565,7476.080014,306.438199
131.346235,5477.523971,9104.533087,1072.533697
131.346555,4071.132681,9474.636058,229.828649
131.346876,2664.741391,8808.450710,612.876398
131.347197,2368.659014,7698.141797,153.219100
131.347517,3034.844362,6661.853478,0.000000
131.347838,4959.379811,7476.080014,-689.485948
131.348158,6143.709319,10066.800811,-842.705048
131.348479,5625.565159,11621.233289,-995.924147
131.348800,5403.503377,10881.027347,-1149.143247
131.349120,4959.379811,9696.697840,-689.485948
131.349441,4219.173869,8290.306550,-842.705048
131.349762,3775.050304,8068.244768,0.000000
131.350082,4515.256246,7105.977043,229.828649
131.350403,5625.565159,7328.038826,306.438199
131.350724,5995.668130,7698.141797,766.095498
131.351044,5255.462188,7772.162391,842.705048
131.351365,3849.070898,7994.224174,153.219100
131.351686,2442.679609,7698.141797,-612.876398
131.352006,3849.070898,7105.977043,-1072.533697
131.352327,6291.750507,7031.956449,-1378.971896
131.352648,7994.224174,8290.306550,-229.828649
131.352968,6291.750507,9844.739029,229.828649
131.353289,4441.235652,10510.924376,-383.047749
131.353609,3034.844362,9770.718434,-1072.533697
131.353930,3552.988522,8956.491898,-612.876398
131.354251,4737.318029,7179.997637,-229.828649
131.354571,5551.544565,6291.750507,-689.485948
131.354892,5921.647536,7402.059420,-383.047749
131.355213,5255.462188,8734.430116,383.047749
131.355533,4145.153275,7698.141797,842.705048
131.355854,5255.462188,7105.977043,1455.581446
131.356175,4293.194464,5699.585753,536.266849
131.356495,3997.112087,5773.606348,-919.314598
131.356816,6513.812290,7402.059420,-766.095498
131.357137,7402.059420,9918.759623,-842.705048
131.357457,6587.832884,10584.944971,-306.438199
131.357778,6809.894666,9400.615463,-306.438199
131.358099,4959.379811,8364.327145,-383.047749
131.358419,3701.029710,7624.121203,-229.828649
131.358740,3552.988522,7328.038826,0.000000
131.359061,4737.318029,7105.977043,-306.438199
131.359381,6513.812290,7179.997637,229.828649
131.359702,7328.038826,8290.306550,1532.190996
131.360022,5107.421000,8142.265362,766.095498
131.360343,3182.885551,7550.100608,-689.485948
131.360664,2960.823768,7254.018232,-459.657299
131.360984,3849.070898,6957.935855,-919.314598
131.361305,6513.812290,7476.080014,0.000000
131.361626,7476.080014,8808.450710,-76.609550
131.361946,5625.565159,10362.883188,-612.876398
131.362267,3775.050304,10436.903782,-1378.971896
131.362588,2960.823768,9474.636058,-766.095498
131.362908,2886.803174,7550.100608,0.000000
131.363229,4219.173869,5625.565159,919.314598
131.363550,5625.565159,7105.977043,459.657299
131.363870,5921.647536,8512.368333,229.828649
131.364191,4737.318029,8586.388927,153.219100
131.364512,4441.235652,8512.368333,0.000000
131.364832,3701.029710,7254.018232,-76.609550
131.365153,4293.194464,6587.832884,0.000000
131.365473,4737.318029,7105.977043,-689.485948
131.365794,5625.565159,9326.594869,-1915.238745
131.366115,5773.606348,10732.986159,-1608.800546
131.366435,5403.503377,10214.842000,-842.705048
131.366756,4959.379811,9178.553681,-229.828649
131.367077,4219.173869,8882.471304,76.609550
131.367397,2664.741391,8512.368333,459.657299
131.367718,3256.906145,8216.285956,-536.266849
131.368039,4737.318029,8586.388927,-842.705048
131.368359,5921.647536,8512.368333,229.828649
131.368680,5995.668130,8216.285956,1302.362347
131.369001,4441.235652,7920.203579,1608.800546
131.369321,2368.659014,7402.059420,766.095498
131.369642,2294.638420,6809.894666,-919.314598
131.369963,4145.153275,7105.977043,-995.924147
131.370283,6143.709319,9252.574275,-1072.533697
131.370604,6587.832884,10584.944971,-612.876398
131.370925,5847.626942,10732.986159,-612.876398
131.371245,4441.235652,10584.944971,-689.485948
131.371566,3330.926739,9474.636058,383.047749
131.371886,3330.926739,7624.121203,306.438199
131.372207,4959.379811,6217.729913,0.000000
131.372528,5921.647536,7105.977043,0.000000
131.372848,6513.812290,8438.347739,612.876398
131.373169,5625.565159,8882.471304,689.485948
131.373490,4367.215058,8216.285956,612.876398
131.373810,3256.906145,6217.729913,919.314598
131.374131,4589.276840,4885.359217,383.047749
131.374452,5773.606348,5995.668130,-1225.752797
131.374772,6291.750507,7698.141797,-2451.505594
131.375093,7105.977043,9400.615463,-1838.629195
131.375414,6957.935855,9844.739029,-1072.533697
131.375734,6587.832884,9622.677246,383.047749
131.376055,5181.441594,8734.430116,919.314598
131.376376,4515.256246,6957.935855,-536.266849
131.376696,4071.132681,6439.791695,-1378.971896
131.377017,5181.441594,7254.018232,153.219100
131.377338,6217.729913,7254.018232,842.705048
131.377658,6957.935855,7105.977043,1532.190996
131.377979,4663.297435,6883.915261,766.095498
131.378299,3108.864956,6661.853478,-229.828649
131.378620,2960.823768,7254.018232,-536.266849
131.378941,4589.276840,8290.306550,-919.314598
131.379261,5995.668130,8586.388927,-919.314598
131.379582,7105.977043,9696.697840,229.828649
131.379903,6365.771101,10584.944971,153.219100
131.380223,3997.112087,9622.677246,-229.828649
131.380544,3478.967927,8142.265362,-153.219100
131.380865,4071.132681,7031.956449,-459.657299
131.381185,4515.256246,6513.812290,0.000000
131.381506,6365.771101,7179.997637,689.485948
131.381827,7031.956449,8068.244768,995.924147
131.382147,5551.544565,7772.162391,459.657299
131.382468,3997.112087,7254.018232,229.828649
131.382789,3997.112087,6439.791695,76.609550
131.383109,4367.215058,6809.894666,-1302.362347
131.383430,6069.688724,7846.182985,-1915.238745
131.383750,7254.018232,9696.697840,-1991.848295
131.384071,6957.935855,10436.903782,-1762.019645
131.384392,6069.688724,10288.862594,-536.266849
131.384712,4441.235652,9474.636058,-229.828649
131.385033,2738.761985,8290.306550,-229.828649
131.385354,3330.926739,7698.141797,536.266849
131.385674,3997.112087,7698.141797,76.609550
131.385995,4959.379811,8142.265362,-612.876398
131.386316,5699.585753,8512.368333,153.219100
131.386636,4737.318029,8068.244768,842.705048
131.386957,3256.906145,7254.018232,1225.752797
131.387278,3034.844362,6735.874072,995.924147
131.387598,3478.967927,6957.935855,-1149.143247
131.387919,4367.215058,8216.285956,-1991.848295
131.388240,6143.709319,9992.780217,-1991.848295
131.388560,6143.709319,11103.089130,-766.095498
131.388881,5329.482782,11029.068536,-306.438199
131.389202,4515.256246,9474.636058,153.219100
131.389522,3701.029710,7846.182985,0.000000
131.389843,3775.050304,7105.977043,229.828649
131.390163,5477.523971,7772.162391,-383.047749
131.390484,6365.771101,7772.162391,-229.828649
131.390805,6587.832884,7254.018232,459.657299
131.391125,7031.956449,6957.935855,1455.581446
131.391446,5181.441594,6291.750507,1149.143247
131.391767,4071.132681,5847.626942,0.000000
131.392087,4441.235652,6291.750507,-1608.800546
131.392408,5773.606348,7550.100608,-2374.896044
131.392729,7624.121203,8882.471304,-1532.190996
131.393049,7772.162391,9400.615463,-459.657299
131.393370,6365.771101,9918.759623,-536.266849
131.393691,4737.318029,10066.800811,-842.705048
131.394011,3552.988522,8438.347739,-689.485948
131.394332,4071.132681,6365.771101,0.000000
131.394653,6069.688724,5625.565159,995.924147
131.394973,6291.750507,6735.874072,1455.581446
131.395294,6143.709319,7550.100608,1378.971896
131.395614,5107.421000,8068.244768,1608.800546
131.395935,3997.112087,7476.080014,612.876398
131.396256,3330.926739,5625.565159,-383.047749
131.396576,4737.318029,4885.359217,-306.438199
131.396897,5625.565159,6735.874072,-383.047749
131.397218,5773.606348,8882.471304,153.219100
131.397538,6217.729913,10140.821405,-459.657299
131.397859,5995.668130,10436.903782,-842.705048
131.398180,4663.297435,9104.533087,-766.095498
131.398500,4071.132681,8068.244768,0.000000
131.398821,4663.297435,8290.306550,229.828649
131.399142,5255.462188,7698.141797,0.000000
131.399462,5181.441594,6957.935855,383.047749
131.399783,6439.791695,5921.647536,689.485948
131.400104,5033.400406,6883.915261,612.876398
131.400424,3256.906145,7254.018232,76.609550
131.400745,4145.153275,7994.224174,-1149.143247
131.401066,5255.462188,7994.224174,-2145.067394
131.401386,6217.729913,8290.306550,-1072.533697
131.401707,6883.915261,9770.718434,0.000000
131.402027,5625.565159,10955.047942,-1072.533697
131.402348,3182.885551,11473.192101,-1149.143247
131.402669,2368.659014,10288.862594,0.000000
131.402989,2960.823768,8142.265362,0.000000
131.403310,3775.050304,7846.182985,612.876398
131.403631,3997.112087,8512.368333,612.876398
131.403951,3849.070898,9622.677246,689.485948
131.404272,3849.070898,9400.615463,995.924147
131.404593,3627.009116,8290.306550,1378.971896
131.404913,2738.761985,6069.688724,1532.190996
131.405234,3330.926739,5033.400406,612.876398
131.405555,4515.256246,7254.018232,-612.876398
131.405875,5477.523971,9474.636058,-1378.971896
131.406196,6513.812290,9844.739029,-2221.676944
131.406517,7698.141797,9622.677246,-2298.286494
131.406837,5847.626942,9326.594869,-1225.752797
131.407158,4441.235652,8586.388927,153.219100
131.407479,4737.318029,7105.977043,459.657299
131.407799,5107.421000,6439.791695,-76.609550
131.408120,5921.647536,6069.688724,-306.438199
131.408440,7105.977043,6661.853478,-229.828649
131.408761,7105.977043,7179.997637,-383.047749
131.409082,5699.585753,7402.059420,383.047749
131.409402,5551.544565,6217.729913,-76.609550
131.409723,6365.771101,4515.256246,-1378.971896
131.410044,5921.647536,4811.338623,-1302.362347
131.410364,6069.688724,7105.977043,-1072.533697
131.410685,6365.771101,8660.409521,-842.705048
131.411006,6735.874072,9474.636058,-766.095498
131.411326,5847.626942,9696.697840,-995.924147
131.411647,4811.338623,8808.450710,-306.438199
131.411968,4071.132681,7179.997637,-995.924147
131.412288,4885.359217,7550.100608,-229.828649
131.412609,5181.441594,8586.388927,689.485948
131.412930,5921.647536,7846.182985,1149.143247
131.413250,5625.565159,7328.038826,1378.971896
131.413571,3404.947333,7402.059420,536.266849
131.413891,2294.638420,7328.038826,612.876398
131.414212,3330.926739,7402.059420,229.828649
131.414533,4811.338623,7920.203579,-1378.971896
131.414853,5921.647536,8364.327145,-995.924147
131.415174,6809.894666,9696.697840,-536.266849
131.415495,5847.626942,11103.089130,0.000000
131.415815,4145.153275,11473.192101,0.000000
131.416136,2960.823768,9918.759623,-229.828649
131.416457,4737.318029,7328.038826,-612.876398
131.416777,6735.874072,7402.059420,-383.047749
131.417098,6439.791695,8438.347739,306.438199
131.417419,4885.359217,8290.306550,459.657299
131.417739,4811.338623,7550.100608,229.828649
131.418060,4367.215058,6513.812290,459.657299
131.418381,3552.988522,5699.585753,766.095498
131.418701,4663.297435,5921.647536,0.000000
131.419022,4959.379811,7846.182985,-1608.800546
131.419343,4441.235652,9548.656652,-1915.238745
131.419663,5329.482782,9696.697840,-995.924147
131.419984,6439.791695,9104.533087,-383.047749
131.420304,4959.379811,8660.409521,76.609550
131.420625,3404.947333,8660.409521,0.000000
131.420946,3849.070898,8290.306550,-1225.752797
131.421266,4663.297435,7846.182985,-1225.752797
131.421587,5921.647536,7179.997637,0.000000
131.421908,6291.750507,6957.935855,1608.800546
131.422228,5255.462188,6957.935855,995.924147
131.422549,3330.926739,7105.977043,612.876398
131.422870,2516.700203,6661.853478,0.000000
131.423190,3701.029710,6143.709319,-995.924147
131.423511,5847.626942,6883.915261,-1225.752797
131.423832,6809.894666,9178.553681,-536.266849
131.424152,7031.956449,10584.944971,-153.219100
131.424473,5699.585753,10362.883188,-459.657299
131.424794,3775.050304,9252.574275,306.438199
131.425114,3552.988522,8734.430116,153.219100
131.425435,4293.194464,7550.100608,383.047749
131.425755,5551.544565,7698.141797,0.000000
131.426076,6809.894666,8512.368333,76.609550
131.426397,6143.709319,8290.306550,-306.438199
131.426717,5033.400406,7994.224174,0.000000
131.427038,3997.112087,7328.038826,1685.410096
131.427359,2960.823768,6291.750507,919.314598
131.427679,4959.379811,6291.750507,-229.828649
131.428000,5699.585753,8808.450710,-842.705048
131.428320,5033.400406,9918.759623,-1302.362347
131.428641,4959.379811,10510.924376,-459.657299
131.428961,5329.482782,10510.924376,76.609550
131.429282,4293.194464,9918.759623,383.047749
131.429603,3997.112087,7994.224174,76.609550
131.429923,4145.153275,7105.977043,-1225.752797
131.430244,4071.132681,7476.080014,-1225.752797
131.430564,5625.565159,7772.162391,766.095498
131.430885,6143.709319,7179.997637,1225.752797
131.431206,6069.688724,5921.647536,1072.533697
131.431526,4959.379811,6069.688724,459.657299
131.431847,3849.070898,6217.729913,-1149.143247
131.432167,3997.112087,6735.874072,-2757.943793
131.432488,6513.812290,7402.059420,-1762.019645
131.432809,7328.038826,8586.388927,-536.266849
131.433129,6809.894666,9918.759623,-536.266849
131.433450,5107.421000,10288.862594,-459.657299
131.433770,2960.823768,9326.594869,-536.266849
131.434091,2442.679609,8216.285956,-459.657299
131.434412,3701.029710,7772.162391,-76.609550
131.434732,4811.338623,8364.327145,-306.438199
131.435053,5255.462188,8364.327145,-383.047749
131.435373,5255.462188,8512.368333,689.485948
131.435694,4441.235652,7476.080014,1072.533697
131.436014,2960.823768,6439.791695,995.924147
131.436335,2960.823768,6069.688724,153.219100
131.436656,4589.276840,7105.977043,-995.924147
131.436976,6513.812290,8882.471304,-766.095498
131.437297,6587.832884,9770.718434,0.000000
131.437617,6143.709319,9844.739029,-229.828649
131.437938,5551.544565,10510.924376,-383.047749
131.438259,3849.070898,9770.718434,-459.657299
131.438579,3775.050304,8216.285956,-459.657299
131.438900,6217.729913,7105.977043,0.000000
131.439220,6069.688724,7328.038826,-612.876398
131.439541,5773.606348,8142.265362,0.000000
131.439862,5773.606348,7994.224174,689.485948
131.440182,5181.441594,7105.977043,536.266849
131.440503,5329.482782,5995.668130,612.876398
131.440823,5773.606348,5033.400406,-306.438199
131.441144,5403.503377,6439.791695,-2298.286494
131.441465,5995.668130,8808.450710,-1762.019645
131.441785,6735.874072,10362.883188,-919.314598
131.442106,7105.977043,9844.739029,-536.266849
131.442426,6365.771101,9030.512492,0.000000
131.442747,3849.070898,8142.265362,-536.266849
131.443068,2368.659014,8586.388927,-995.924147
131.443388,2812.782580,8512.368333,-459.657299
131.443709,4811.338623,8512.368333,76.609550
131.444029,6143.709319,7402.059420,1685.410096
131.444350,5107.421000,7476.080014,1685.410096
131.444670,3404.947333,8216.285956,995.924147
131.444991,1184.329507,7994.224174,76.609550
131.445312,1850.514855,6735.874072,-536.266849
131.445632,4737.318029,5921.647536,0.000000
131.445953,6439.791695,7105.977043,229.828649
131.446273,5995.668130,9474.636058,153.219100
131.446594,4737.318029,11251.130318,-995.924147
131.446915,3627.009116,10881.027347,-1378.971896
131.447235,3775.050304,9400.615463,-995.924147
131.447556,4737.318029,7624.121203,0.000000
131.447876,6217.729913,7328.038826,0.000000
131.448197,5921.647536,8734.430116,459.657299
131.448518,4885.359217,9252.574275,306.438199
131.448838,4737.318029,8660.409521,306.438199
131.449159,3627.009116,6735.874072,-459.657299
131.449479,3330.926739,5255.462188,76.609550
131.449800,4145.153275,6439.791695,-383.047749
131.450121,4441.235652,7994.224174,-1225.752797
131.450441,4959.379811,9178.553681,-995.924147
131.450762,5847.626942,9104.533087,-995.924147
131.451082,5329.482782,8956.491898,0.000000
131.451403,4811.338623,9474.636058,153.219100
131.451724,3404.947333,9400.615463,0.000000
131.452044,3478.967927,8438.347739,-1378.971896
131.452365,5403.503377,8512.368333,-1149.143247
131.452685,7105.977043,8290.306550,-306.438199
131.453006,6661.853478,7624.121203,459.657299
131.453326,5551.544565,6809.894666,1378.971896
131.453647,4145.153275,6365.771101,842.705048
131.453968,3404.947333,6661.853478,76.609550
131.454288,3849.070898,5995.668130,-153.219100
131.454609,5995.668130,6513.812290,-1149.143247
131.454929,7846.182985,8290.306550,-842.705048
131.455250,7105.977043,9252.574275,-536.266849
131.455571,6883.915261,9104.533087,-1991.848295
131.455891,5699.585753,8882.471304,-1302.362347
131.456212,4737.318029,8216.285956,0.000000
131.456532,5551.544565,6957.935855,383.047749
131.456853,7031.956449,7550.100608,-383.047749
131.457174,6587.832884,9030.512492,-689.485948
131.457494,5995.668130,8512.368333,-766.095498
131.457815,5255.462188,7624.121203,459.657299
131.458135,4663.297435,6809.894666,842.705048
131.458456,3775.050304,5995.668130,842.705048
131.458777,4145.153275,6513.812290,-612.876398
131.459097,5181.441594,8142.265362,-1608.800546
131.459418,5181.441594,10362.883188,-1072.533697
131.459738,4737.318029,10807.006753,-766.095498
131.460059,4885.359217,9918.759623,-153.219100
131.460379,3256.906145,9178.553681,689.485948
131.460700,2886.803174,9548.656652,306.438199
131.461021,2368.659014,9252.574275,-76.609550
131.461341,3108.864956,9548.656652,-612.876398
131.461662,5255.462188,9696.697840,0.000000
131.461982,5625.565159,8882.471304,842.705048
131.462303,4589.276840,8068.244768,1991.848295
131.462624,3330.926739,7105.977043,1608.800546
131.462944,2146.597232,6439.791695,0.000000
131.463265,3552.988522,5773.606348,-919.314598
131.463585,6439.791695,7328.038826,-766.095498
131.463906,6735.874072,8956.491898,-842.705048
131.464227,6735.874072,9770.718434,-306.438199
131.464547,6439.791695,10140.821405,0.000000
131.464868,3997.112087,8882.471304,0.000000
131.465188,3478.967927,7105.977043,383.047749
131.465509,4959.379811,5921.647536,919.314598
131.465830,5773.606348,6291.750507,229.828649
131.466150,6217.729913,7105.977043,0.000000
131.466471,7328.038826,7624.121203,76.609550
131.466791,6735.874072,8142.265362,0.000000
131.467112,5477.523971,6661.853478,0.000000
131.467433,4737.318029,5255.462188,-919.314598
131.467753,6143.709319,5551.544565,-1302.362347
131.468074,6143.709319,7179.997637,-689.485948
131.468394,6957.935855,8660.409521,0.000000
131.468715,5921.647536,9252.574275,-689.485948
131.469035,4737.318029,9474.636058,-919.314598
131.469356,3404.947333,9622.677246,-306.438199
131.469677,3256.906145,8364.327145,459.657299
131.469997,4145.153275,7698.141797,459.657299
131.470318,5033.400406,7994.224174,153.219100
131.470638,4515.256246,8216.285956,919.314598
131.470959,4515.256246,8364.327145,1762.019645
131.471280,4293.194464,7846.182985,2374.896044
131.471600,3775.050304,7328.038826,995.924147
131.471921,3849.070898,6069.688724,-536.266849
131.472241,4959.379811,6513.812290,-1685.410096
131.472562,5921.647536,8142.265362,-1532.190996
131.472883,6217.729913,9104.533087,-1225.752797
131.473203,6513.812290,10214.842000,-766.095498
131.473524,5773.606348,9622.677246,-995.924147
131.473844,4589.276840,8586.388927,-459.657299
131.474165,4441.235652,7772.162391,-383.047749
131.474486,5255.462188,7550.100608,-1149.143247
131.474806,6439.791695,8068.244768,-766.095498
131.475127,7402.059420,8438.347739,0.000000
131.475447,7031.956449,7698.141797,536.266849
131.475768,4959.379811,7328.038826,383.047749
131.476089,3478.967927,7254.018232,0.000000
131.476409,3627.009116,7105.977043,-536.266849
131.476730,4663.297435,8068.244768,-1302.362347
131.477050,5699.585753,8660.409521,-689.485948
131.477371,5477.523971,8734.430116,-306.438199
131.477691,4885.359217,9474.636058,-153.219100
131.478012,4145.153275,10140.821405,459.657299
131.478333,3256.906145,9326.594869,153.219100
131.478653,4367.215058,7846.182985,-612.876398
131.478974,5107.421000,7402.059420,-383.047749
131.479294,5477.523971,7624.121203,76.609550
131.479615,5995.668130,8142.265362,1838.629195
131.479936,5477.523971,9104.533087,1225.752797
131.480256,3849.070898,7994.224174,-229.828649
131.480577,4515.256246,6291.750507,-1455.581446
131.480897,5107.421000,5551.544565,-1991.848295
131.481218,6143.709319,6661.853478,-1685.410096
131.481539,6957.935855,8882.471304,306.438199
131.481859,6513.812290,9844.739029,-459.657299
131.482180,6291.750507,9474.636058,-995.924147
131.482500,4959.379811,8956.491898,-306.438199
131.482821,3701.029710,7254.018232,-153.219100
131.483142,3775.050304,6883.915261,-689.485948
131.483462,4811.338623,7179.997637,-229.828649
131.483783,5847.626942,8216.285956,0.000000
131.484103,6439.791695,8142.265362,612.876398
131.484424,4959.379811,8142.265362,229.828649
131.484744,3923.091493,8142.265362,153.219100
131.485065,3034.844362,7402.059420,0.000000
131.485386,4145.153275,6661.853478,-1072.533697
131.485706,5551.544565,6365.771101,-1149.143247
131.486027,7031.956449,8142.265362,-383.047749
131.486347,7105.977043,9548.656652,0.000000
131.486668,5329.482782,9992.780217,-766.095498
131.486989,3923.091493,9474.636058,-1072.533697
131.487309,4293.194464,8512.368333,-689.485948
131.487630,4811.338623,7550.100608,612.876398
131.487950,6069.688724,7328.038826,1991.848295
131.488271,6069.688724,7476.080014,2068.457845
131.488592,5255.462188,7179.997637,1149.143247
131.488912,4811.338623,7254.018232,612.876398
131.489233,3923.091493,7105.977043,0.000000
131.489553,3775.050304,6661.853478,-306.438199
131.489874,5033.400406,6587.832884,-612.876398
131.490195,6143.709319,7772.162391,-842.705048
131.490515,6587.832884,9474.636058,-1149.143247
131.490836,5551.544565,9622.677246,-1378.971896
131.491156,4145.153275,10288.862594,-766.095498
131.491477,3330.926739,9548.656652,-229.828649
131.491798,3997.112087,8512.368333,1072.533697
131.492118,4737.318029,7105.977043,1225.752797
131.492439,5921.647536,7698.141797,0.000000
131.492759,5551.544565,9030.512492,76.609550
131.493080,5181.441594,8142.265362,459.657299
131.493400,4959.379811,6439.791695,689.485948
131.493721,4737.318029,5255.462188,995.924147
131.494042,4737.318029,6439.791695,306.438199
131.494362,5033.400406,7105.977043,-1149.143247
131.494683,5255.462188,8438.347739,-2298.286494
131.495003,6439.791695,9770.718434,-1608.800546
131.495324,7402.059420,9992.780217,0.000000
131.495645,6069.688724,9918.759623,229.828649
131.495965,3256.906145,8882.471304,76.609550
131.496286,2590.720797,7550.100608,-306.438199
131.496606,4441.235652,7105.977043,-229.828649
131.496927,5033.400406,7179.997637,229.828649
131.497248,5921.647536,7624.121203,766.095498
131.497568,5773.606348,7624.121203,1302.362347
131.497889,4515.256246,7105.977043,1149.143247
131.498209,3034.844362,6439.791695,76.609550
131.498530,3478.967927,5477.523971,-536.266849
131.498851,5255.462188,6069.688724,-1378.971896
131.499171,6365.771101,7846.182985,-1532.190996
131.499492,7254.018232,9178.553681,-536.266849
131.499812,7031.956449,10214.842000,-1225.752797
131.500133,5625.565159,10214.842000,-842.705048
131.500454,4589.276840,9326.594869,-536.266849
131.500774,4589.276840,8068.244768,-995.924147
131.501095,5995.668130,7254.018232,-1378.971896
131.501415,6365.771101,7698.141797,0.000000
131.501736,6661.853478,8290.306550,995.924147
131.502056,5255.462188,8290.306550,1608.800546
131.502377,3997.112087,7846.182985,1302.362347
131.502698,2812.782580,6735.874072,0.000000
131.503018,3256.906145,5921.647536,-306.438199
131.503339,4367.215058,6957.935855,-919.314598
131.503659,5625.565159,8734.430116,-689.485948
131.503980,5773.606348,9696.697840,-459.657299
131.504301,6291.750507,10732.986159,-383.047749
131.504621,5551.544565,10510.924376,-229.828649
131.504942,3034.844362,9104.533087,-536.266849
131.505262,3182.885551,6883.915261,-1225.752797
131.505583,5625.565159,7550.100608,76.609550
131.505904,6217.729913,8808.450710,612.876398
131.506224,5773.606348,8290.306550,229.828649
131.506545,6513.812290,7624.121203,-229.828649
131.506865,4737.318029,7402.059420,-459.657299
131.507186,3256.906145,6365.771101,-612.876398
131.507507,4663.297435,5551.544565,0.000000
131.507827,6069.688724,6513.812290,-1378.971896
131.508148,6365.771101,8882.471304,-1532.190996
131.508468,6365.771101,10214.842000,-612.876398
131.508789,5773.606348,10510.924376,-1378.971896
131.509109,3701.029710,9918.759623,-842.705048
131.509430,2812.782580,8956.491898,0.000000
131.509751,3627.009116,7031.956449,0.000000
131.510071,4959.379811,6957.935855,0.000000
131.510392,4663.297435,8142.265362,1149.143247
131.510712,4663.297435,8882.471304,1455.581446
131.511033,3997.112087,8660.409521,1378.971896
131.511354,2960.823768,8512.368333,229.828649
131.511674,2368.659014,7031.956449,229.828649
131.511995,3701.029710,6217.729913,306.438199
131.512315,5699.585753,7698.141797,-153.219100
131.512636,5255.462188,9770.718434,-612.876398
131.512957,5477.523971,11103.089130,-1072.533697
131.513277,5625.565159,11177.109724,-1378.971896
131.513598,4367.215058,9992.780217,-306.438199
131.513918,3775.050304,8290.306550,1149.143247
131.514239,4367.215058,7105.977043,1072.533697
131.514560,4811.338623,7254.018232,153.219100
131.514880,5921.647536,7105.977043,306.438199
131.515201,6069.688724,7402.059420,1149.143247
131.515521,5921.647536,6809.894666,689.485948
131.515842,4811.338623,5921.647536,229.828649
131.516163,4145.153275,5181.441594,-306.438199
131.516483,4737.318029,5847.626942,-689.485948
131.516804,6513.812290,7402.059420,-1608.800546
131.517124,7550.100608,8956.491898,-1149.143247
131.517445,6957.935855,9252.574275,-995.924147
131.517765,5477.523971,9548.656652,-1915.238745
131.518086,4885.359217,9548.656652,-842.705048
131.518407,4071.132681,8364.327145,-306.438199
131.518727,4737.318029,6735.874072,-383.047749
131.519048,5921.647536,7328.038826,76.609550
131.519368,5921.647536,8364.327145,383.047749
131.519689,4367.215058,9178.553681,1378.971896
131.520010,3775.050304,8364.327145,919.314598
131.520330,3997.112087,7031.956449,536.266849
131.520651,3478.967927,5181.441594,229.828649
131.520971,4737.318029,5625.565159,0.000000
131.521292,5699.585753,7328.038826,-1072.533697
131.521613,4959.379811,10510.924376,-1455.581446
131.521933,5033.400406,11473.192101,-536.266849
131.522254,5255.462188,11177.109724,-306.438199
131.522574,4441.235652,9770.718434,-383.047749
131.522895,3997.112087,8364.327145,0.000000
131.523216,4293.194464,7994.224174,-766.095498
131.523536,4737.318029,9400.615463,-383.047749
131.523857,5107.421000,9178.553681,919.314598
131.524177,5847.626942,7698.141797,1149.143247
131.524498,5403.503377,7624.121203,995.924147
131.524819,3034.844362,7624.121203,536.266849
131.525139,3108.864956,7031.956449,-76.609550
131.525460,5033.400406,6957.935855,-995.924147
131.525780,6513.812290,7994.224174,-1532.190996
131.526101,7031.956449,9326.594869,-1149.143247
131.526422,6143.709319,9548.656652,-766.095498
131.526743,5033.400406,10288.862594,-1072.533697
131.527063,3627.009116,10140.821405,-306.438199
131.527384,3404.947333,7994.224174,-459.657299
131.527705,5329.482782,7105.977043,-1225.752797
131.528025,6513.812290,8364.327145,0.000000
131.528346,5477.523971,9696.697840,766.095498
131.528667,4737.318029,9030.512492,766.095498
131.528987,3997.112087,6809.894666,842.705048
131.529308,3552.988522,5181.441594,842.705048
131.529629,3923.091493,4589.276840,1072.533697
131.529950,5699.585753,5995.668130,153.219100
131.530270,6439.791695,8586.388927,-1302.362347
131.530591,6365.771101,9696.697840,-1762.019645
131.530912,5773.606348,8586.388927,-1378.971896
131.531232,6143.709319,9252.574275,0.000000
131.531553,4145.153275,8660.409521,1072.533697
131.531874,3478.967927,7179.997637,76.609550
131.532194,5625.565159,6661.853478,-766.095498
131.532515,5699.585753,7846.182985,-919.314598
131.532836,5329.482782,8512.368333,-153.219100
131.533157,5625.565159,7920.203579,612.876398
131.533477,4737.318029,7105.977043,1072.533697
131.533798,3923.091493,6365.771101,842.705048
131.534119,4515.256246,5773.606348,76.609550
131.534439,5403.503377,6809.894666,-1532.190996
131.534760,5625.565159,9400.615463,-1915.238745
131.535081,5033.400406,10658.965565,0.000000
131.535402,5995.668130,9770.718434,1149.143247
131.535722,5699.585753,9178.553681,919.314598
131.536043,2812.782580,8068.244768,306.438199
131.536364,2812.782580,7402.059420,-1072.533697
131.536684,4515.256246,7994.224174,-612.876398
131.537005,4885.359217,9696.697840,1072.533697
131.537326,5255.462188,8512.368333,2221.676944
131.537646,5847.626942,7031.956449,1991.848295
131.537967,4219.173869,7328.038826,1225.752797
131.538288,2442.679609,7179.997637,612.876398
131.538609,2738.761985,6365.771101,-1149.143247
131.538929,5773.606348,6883.915261,-2681.334243
131.539250,7402.059420,9178.553681,-1915.238745
131.539571,6735.874072,10436.903782,306.438199
131.539891,5699.585753,10214.842000,459.657299
131.540212,4071.132681,9178.553681,0.000000
131.540533,2368.659014,8660.409521,-459.657299
131.540854,3330.926739,6883.915261,-995.924147
131.541174,5477.523971,6809.894666,-1302.362347
131.541495,6883.915261,8142.265362,0.000000
131.541816,6365.771101,8290.306550,1225.752797
131.542136,5551.544565,7624.121203,995.924147
131.542457,4145.153275,7402.059420,383.047749
131.542778,2664.741391,6291.750507,-306.438199
131.543098,4293.194464,5625.565159,-383.047749
131.543419,5699.585753,6439.791695,-1302.362347
131.543740,6143.709319,8734.430116,-1149.143247
131.544061,6143.709319,10066.800811,0.000000
131.544381,6069.688724,10658.965565,-842.705048
131.544702,5033.400406,10658.965565,-612.876398
131.545023,3775.050304,8808.450710,-766.095498
131.545343,4219.173869,7179.997637,-306.438199
131.545664,6143.709319,7105.977043,612.876398
131.545985,6587.832884,8660.409521,1225.752797
131.546306,5921.647536,8364.327145,919.314598
131.546626,5403.503377,7105.977043,536.266849
131.546947,4367.215058,7105.977043,306.438199
131.547268,3034.844362,6957.935855,459.657299
131.547588,4293.194464,6957.935855,-306.438199
131.547909,6513.812290,7402.059420,-1915.238745
131.548230,7254.018232,8808.450710,-689.485948
131.548550,6069.688724,9548.656652,76.609550
131.548871,5181.441594,9770.718434,0.000000
131.549192,4367.215058,10288.862594,-689.485948
131.549513,3552.988522,8512.368333,-612.876398
131.549833,4959.379811,7105.977043,-766.095498
131.550154,6661.853478,7105.977043,-842.705048
131.550475,6217.729913,7698.141797,76.609550
131.550795,5477.523971,7920.203579,1149.143247
131.551116,5329.482782,7624.121203,919.314598
131.551437,3775.050304,6365.771101,76.609550
131.551757,3552.988522,5699.585753,-383.047749
131.552078,5181.441594,6439.791695,-766.095498
131.552399,6217.729913,7994.224174,-1532.190996
131.552720,6809.894666,9474.636058,0.000000
131.553040,6513.812290,9252.574275,612.876398
131.553361,5921.647536,8142.265362,0.000000
131.553682,3849.070898,8290.306550,76.609550
131.554002,2886.803174,7550.100608,0.000000
131.554323,3849.070898,7550.100608,-919.314598
131.554644,5477.523971,7846.182985,0.000000
131.554965,5773.606348,8216.285956,689.485948
131.555285,5403.503377,7328.038826,1149.143247
131.555606,4441.235652,7772.162391,842.705048
131.555927,2442.679609,7550.100608,153.219100
131.556247,3034.844362,6439.791695,-1225.752797
131.556568,4959.379811,6291.750507,-1838.629195
131.556889,6365.771101,8068.244768,-1072.533697
131.557209,7105.977043,10732.986159,229.828649
131.557530,5551.544565,11251.130318,919.314598
131.557851,4145.153275,9992.780217,-459.657299
131.558172,3775.050304,8364.327145,-1149.143247
131.558492,2960.823768,7254.018232,-766.095498
131.558813,4367.215058,6809.894666,-689.485948
131.559134,6143.709319,8512.368333,383.047749
131.559454,6143.709319,9400.615463,995.924147
131.559775,5625.565159,8660.409521,612.876398
131.560096,4367.215058,7994.224174,612.876398
131.560417,2812.782580,7254.018232,-306.438199
131.560737,3108.864956,6735.874072,-383.047749
131.561058,5329.482782,7179.997637,-766.095498
131.561379,6809.894666,8734.430116,-1455.581446
131.561699,6883.915261,10066.800811,-306.438199
131.562020,5403.503377,9770.718434,-306.438199
131.562341,4219.173869,10140.821405,-536.266849
131.562661,2812.782580,8512.368333,383.047749
131.562982,3552.988522,7328.038826,-153.219100
131.563303,5477.523971,6661.853478,-689.485948
131.563624,6809.894666,6587.832884,153.219100
131.563944,6883.915261,8290.306550,842.705048
131.564265,5847.626942,8734.430116,842.705048
131.564586,4441.235652,7994.224174,-766.095498
131.564906,3849.070898,6957.935855,-1532.190996
131.565227,4293.194464,5625.565159,-1762.019645
131.565548,6291.750507,6883.915261,-536.266849
131.565869,7031.956449,8586.388927,459.657299
131.566189,6365.771101,10066.800811,-459.657299
131.566510,5699.585753,9696.697840,-689.485948
131.566831,4367.215058,8882.471304,-1149.143247
131.567151,3256.906145,7994.224174,-229.828649
131.567472,4959.379811,7328.038826,229.828649
131.567793,6513.812290,6513.812290,229.828649
131.568113,6957.935855,7179.997637,76.609550
131.568434,6069.688724,7624.121203,1072.533697
131.568755,5255.462188,7846.182985,1455.581446
131.569076,4071.132681,7105.977043,612.876398
131.569396,3034.844362,5847.626942,-919.314598
131.569717,5181.441594,5847.626942,-1378.971896
131.570038,6809.894666,7179.997637,-1838.629195
131.570358,6587.832884,9474.636058,-1072.533697
131.570679,7105.977043,10658.965565,76.609550
131.571000,6513.812290,10807.006753,0.000000
131.571320,4737.318029,9844.739029,-153.219100
131.571641,3701.029710,7920.203579,-153.219100
131.571962,4367.215058,5773.606348,-1072.533697
131.572283,5699.585753,6217.729913,-536.266849
131.572603,6587.832884,7846.182985,153.219100
131.572924,6217.729913,8438.347739,766.095498
131.573245,4737.318029,8068.244768,229.828649
131.573565,3034.844362,7105.977043,0.000000
131.573886,3330.926739,7105.977043,306.438199
131.574207,3923.091493,6217.729913,383.047749
131.574528,5921.647536,7402.059420,-306.438199
131.574848,6957.935855,9474.636058,-919.314598
131.575169,5921.647536,10881.027347,-536.266849
131.575490,5181.441594,11473.192101,612.876398
131.575810,3997.112087,10288.862594,689.485948
131.576131,2960.823768,7994.224174,-689.485948
131.576452,3849.070898,6439.791695,-919.314598
131.576772,4589.276840,6735.874072,-536.266849
131.577093,5477.523971,8142.265362,842.705048
131.577414,5107.421000,8660.409521,1455.581446
131.577735,3775.050304,8216.285956,383.047749
131.578055,2960.823768,7698.141797,-536.266849
131.578376,2886.803174,7476.080014,0.000000
131.578697,4367.215058,7254.018232,-306.438199
131.579017,6513.812290,8660.409521,-1149.143247
131.579338,7105.977043,10214.842000,-1072.533697
131.579659,5699.585753,10510.924376,-536.266849
131.579980,4663.297435,10436.903782,0.000000
131.580300,3034.844362,10288.862594,383.047749
131.580621,2294.638420,8438.347739,0.000000
131.580942,3552.988522,6217.729913,229.828649
131.581262,6143.709319,6217.729913,536.266849
131.581583,6439.791695,7179.997637,1532.190996
131.581904,5551.544565,7994.224174,1072.533697
131.582224,4293.194464,7920.203579,-306.438199
131.582545,3256.906145,7772.162391,-383.047749
131.582866,3552.988522,7328.038826,306.438199
131.583187,5699.585753,6439.791695,-306.438199
131.583507,6809.894666,7920.203579,-995.924147
131.583828,6217.729913,9696.697840,-612.876398
131.584149,5329.482782,9696.697840,-383.047749
131.584469,4737.318029,8660.409521,-766.095498
131.584790,4293.194464,7550.100608,-229.828649
131.585111,4219.173869,7254.018232,306.438199
131.585432,5329.482782,7031.956449,0.000000
131.585752,5625.565159,6883.915261,-612.876398
131.586073,7031.956449,7031.956449,229.828649
131.586394,7105.977043,6439.791695,612.876398
131.586714,5329.482782,6217.729913,153.219100
131.587035,4293.194464,6291.750507,-229.828649
131.587356,4293.194464,6883.915261,-689.485948
131.587676,6143.709319,7105.977043,-1685.410096
131.587997,7846.182985,8142.265362,-2298.286494
131.588318,7105.977043,9696.697840,-1072.533697
131.588639,5255.462188,9696.697840,-612.876398
131.588959,3775.050304,9918.759623,0.000000
131.589280,2960.823768,9104.533087,306.438199
131.589601,4367.215058,8216.285956,766.095498
131.589921,5107.421000,7105.977043,459.657299
131.590242,5403.503377,7105.977043,-153.219100
131.590563,5255.462188,7772.162391,306.438199
131.590883,4515.256246,8808.450710,1302.362347
131.591204,3478.967927,8216.285956,1455.581446
131.591525,3330.926739,7105.977043,689.485948
131.591846,3997.112087,7105.977043,0.000000
131.592166,4959.379811,8512.368333,-919.314598
131.592487,5847.626942,9326.594869,-1532.190996
131.592808,6439.791695,10807.006753,-1225.752797
131.593128,6217.729913,10807.006753,-995.924147
131.593449,4515.256246,10214.842000,-383.047749
131.593770,3923.091493,8808.450710,0.000000
131.594091,3849.070898,7179.997637,306.438199
131.594411,4589.276840,7624.121203,536.266849
131.594732,4737.318029,7698.141797,-306.438199
131.595053,4441.235652,7920.203579,-229.828649
131.595373,4885.359217,7772.162391,306.438199
131.595694,5181.441594,7179.997637,1685.410096
131.596015,3701.029710,7031.956449,766.095498
131.596335,3182.885551,5625.565159,-842.705048
131.596656,4367.215058,7105.977043,-1762.019645
131.596977,5773.606348,9178.553681,-1608.800546
131.597298,6439.791695,9770.718434,-1225.752797
131.597618,7254.018232,9992.780217,-612.876398
131.597939,5921.647536,9474.636058,-1532.190996
131.598260,3701.029710,8734.430116,-1532.190996
131.598580,3701.029710,7031.956449,-459.657299
131.598901,5329.482782,6587.832884,153.219100
131.599222,6217.729913,6661.853478,1225.752797
131.599543,5847.626942,7105.977043,1762.019645
131.599863,4959.379811,7698.141797,-153.219100
131.600184,3404.947333,7698.141797,-536.266849
131.600505,3108.864956,7179.997637,0.000000
131.600825,5255.462188,6291.750507,-459.657299
131.601146,6809.894666,6439.791695,-459.657299
131.601467,6439.791695,8660.409521,-1225.752797
131.601787,5773.606348,9918.759623,-1072.533697
131.602108,5403.503377,10881.027347,-153.219100
131.602429,5107.421000,10288.862594,-153.219100
131.602750,4589.276840,8808.450710,383.047749
131.603070,5403.503377,7402.059420,229.828649
131.603391,5773.606348,7550.100608,0.000000
131.603712,4959.379811,7920.203579,306.438199
131.604032,5699.585753,7772.162391,1072.533697
131.604353,5107.421000,6809.894666,459.657299
131.604674,4145.153275,6217.729913,612.876398
131.604995,4219.173869,7105.977043,536.266849
131.605315,4293.194464,7994.224174,-1072.533697
131.605636,4737.318029,8438.347739,-1762.019645
131.605957,6809.894666,9844.739029,-995.924147
131.606277,5995.668130,9992.780217,-536.266849
131.606598,4959.379811,10066.800811,76.609550
131.606919,4441.235652,9696.697840,306.438199
131.607239,3404.947333,9030.512492,-383.047749
131.607560,3552.988522,7698.141797,-995.924147
131.607881,4811.338623,7254.018232,-766.095498
131.608202,5181.441594,7476.080014,153.219100
131.608522,5255.462188,7550.100608,1225.752797
131.608843,4737.318029,7550.100608,1532.190996
131.609164,2738.761985,7254.018232,306.438199
131.609484,2368.659014,7105.977043,0.000000
131.609805,3182.885551,7254.018232,-383.047749
131.610126,4441.235652,8364.327145,-1378.971896
131.610446,5329.482782,10881.027347,-1072.533697
131.610767,5107.421000,11325.150913,-689.485948
131.611088,4589.276840,10066.800811,-842.705048
131.611409,3923.091493,9326.594869,0.000000
131.611729,3775.050304,8438.347739,766.095498
131.612050,5033.400406,7402.059420,536.266849
131.612371,5625.565159,7031.956449,229.828649
131.612691,5551.544565,7550.100608,306.438199
131.613012,5255.462188,7328.038826,995.924147
131.613333,5033.400406,7105.977043,1149.143247
131.613654,3775.050304,7105.977043,536.266849
131.613974,4737.318029,6513.812290,0.000000
131.614295,5329.482782,6809.894666,-1608.800546
131.614616,5551.544565,7550.100608,-2757.943793
131.614936,6143.709319,9400.615463,-1149.143247
131.615257,6439.791695,10584.944971,-153.219100
131.615578,5921.647536,10732.986159,-383.047749
131.615898,4811.338623,10362.883188,-766.095498
131.616219,4441.235652,8734.430116,-919.314598
131.616540,4441.235652,7105.977043,-689.485948
131.616861,4959.379811,7254.018232,612.876398
131.617181,5033.400406,7624.121203,689.485948
131.617502,5107.421000,7328.038826,1072.533697
131.617823,4811.338623,6661.853478,1302.362347
131.618143,4219.173869,6735.874072,689.485948
131.618464,3849.070898,6809.894666,306.438199
131.618785,4293.194464,6809.894666,-995.924147
131.619106,5551.544565,7402.059420,-1532.190996
131.619426,6809.894666,8512.368333,-459.657299
131.619747,7105.977043,10066.800811,-612.876398
131.620068,6661.853478,10510.924376,-766.095498
131.620388,4737.318029,9770.718434,-1991.848295
131.620709,4885.359217,8660.409521,-1838.629195
131.621030,5847.626942,6365.771101,-919.314598
131.621350,6735.874072,6291.750507,536.266849
131.621671,6957.935855,6587.832884,2221.676944
131.621992,5847.626942,6587.832884,1532.190996
131.622313,5181.441594,6661.853478,0.000000
131.622633,4589.276840,6217.729913,-459.657299
131.622954,4367.215058,5699.585753,-459.657299
131.623275,5995.668130,6513.812290,-383.047749
131.623595,7254.018232,8142.265362,-536.266849
131.623916,5847.626942,9770.718434,-1532.190996
131.624237,4811.338623,10214.842000,-1302.362347
131.624558,4663.297435,10584.944971,-1302.362347
131.624878,3108.864956,10140.821405,-306.438199
131.625199,2886.803174,9104.533087,383.047749
131.625520,3849.070898,7994.224174,306.438199
131.625840,4959.379811,8290.306550,-459.657299
131.626161,4293.194464,8956.491898,612.876398
131.626482,3182.885551,8290.306550,1225.752797
131.626802,2812.782580,7254.018232,612.876398
131.627123,2368.659014,6513.812290,842.705048
131.627443,3034.844362,6217.729913,459.657299
131.627764,4663.297435,7402.059420,-536.266849
131.628085,5773.606348,9400.615463,-1072.533697
131.628405,4885.359217,11103.089130,-1302.362347
131.628726,5773.606348,10658.965565,-459.657299
131.629047,5699.585753,10140.821405,0.000000
131.629367,4219.173869,8956.491898,76.609550
131.629688,4071.132681,7624.121203,76.609550
131.630009,5477.523971,6957.935855,-459.657299
131.630329,5921.647536,7550.100608,-766.095498
131.630650,5921.647536,7550.100608,-153.219100
131.630971,6217.729913,6513.812290,153.219100
131.631291,5773.606348,6439.791695,306.438199
131.631612,4219.173869,6513.812290,459.657299
131.631933,4293.194464,5847.626942,459.657299
131.632253,5921.647536,6587.832884,-1455.581446
131.632574,6513.812290,8364.327145,-1302.362347
131.632895,6143.709319,9548.656652,-842.705048
131.633215,6291.750507,9622.677246,-612.876398
131.633536,5181.441594,9918.759623,-306.438199
131.633857,4219.173869,8882.471304,-229.828649
131.634177,4219.173869,7179.997637,-229.828649
131.634498,5033.400406,7105.977043,-383.047749
131.634819,5329.482782,7772.162391,766.095498
131.635139,5255.462188,8068.244768,2528.115143
131.635460,5107.421000,7105.977043,1838.629195
131.635781,3404.947333,6661.853478,459.657299
131.636101,2664.741391,6735.874072,229.828649
131.636422,4293.194464,6365.771101,76.609550
131.636743,5773.606348,7550.100608,-995.924147
131.637063,6661.853478,9474.636058,-1072.533697
131.637384,6661.853478,10881.027347,-842.705048
131.637705,6587.832884,10510.924376,-229.828649
131.638025,5477.523971,9696.697840,459.657299
131.638346,3849.070898,8216.285956,0.000000
131.638667,4737.318029,7402.059420,-383.047749
131.638987,5329.482782,7402.059420,-383.047749
131.639308,5329.482782,7402.059420,0.000000
131.639628,6143.709319,7476.080014,766.095498
131.639949,5477.523971,6883.915261,689.485948
131.640270,4145.153275,6735.874072,153.219100
131.640590,3775.050304,6587.832884,459.657299
131.640911,4515.256246,6587.832884,-1149.143247
131.641232,6291.750507,7328.038826,-2145.067394
131.641552,7105.977043,9622.677246,-842.705048
131.641873,6439.791695,10140.821405,-919.314598
131.642194,5773.606348,10288.862594,-766.095498
131.642514,4515.256246,10066.800811,-459.657299
131.642835,4071.132681,8956.491898,-536.266849
131.643156,4737.318029,7105.977043,-536.266849
131.643476,4811.338623,6513.812290,-306.438199
131.643797,4663.297435,7328.038826,229.828649
131.644118,4441.235652,7772.162391,1302.362347
131.644438,4589.276840,7624.121203,1149.143247
131.644759,3330.926739,6957.935855,766.095498
131.645080,3330.926739,6217.729913,536.266849
131.645400,4589.276840,6883.915261,-612.876398
131.645721,4959.379811,8438.347739,-1149.143247
131.646042,5625.565159,9844.739029,-1225.752797
131.646362,6439.791695,10732.986159,-766.095498
131.646683,5847.626942,10584.944971,-919.314598
131.647004,4367.215058,9696.697840,-383.047749
131.647324,3997.112087,8586.388927,-306.438199
131.647645,4663.297435,7105.977043,-153.219100
131.647966,5107.421000,7772.162391,0.000000
131.648286,5477.523971,8142.265362,842.705048
131.648607,5255.462188,7994.224174,1149.143247
131.648928,4811.338623,7031.956449,1225.752797
131.649248,4071.132681,6809.894666,842.705048
131.649569,4219.173869,6439.791695,306.438199
131.649890,5033.400406,6513.812290,-1072.533697
131.650210,5847.626942,8068.244768,-1302.362347
131.650531,6883.915261,9326.594869,-229.828649
131.650852,7031.956449,9474.636058,459.657299
131.651172,5773.606348,9474.636058,-306.438199
131.651493,4219.173869,9696.697840,-842.705048
131.651813,4071.132681,8290.306550,-1302.362347
131.652134,5403.503377,7179.997637,-536.266849
131.652455,7179.997637,6883.915261,153.219100
131.652775,6069.688724,6957.935855,919.314598
131.653096,5255.462188,7105.977043,459.657299
131.653417,4737.318029,7254.018232,383.047749
131.653737,3256.906145,6809.894666,0.000000
131.654058,4219.173869,6439.791695,-153.219100
131.654379,5773.606348,6365.771101,-766.095498
131.654699,6291.750507,7698.141797,-995.924147
131.655020,5403.503377,9326.594869,-689.485948
131.655341,5847.626942,9400.615463,-153.219100
131.655661,5033.400406,9770.718434,-612.876398
131.655982,4071.132681,9178.553681,-459.657299
131.656303,4145.153275,7698.141797,-459.657299
131.656623,5107.421000,7179.997637,-842.705048
131.656944,5847.626942,8290.306550,0.000000
131.657265,4885.359217,8216.285956,766.095498
131.657585,4737.318029,7105.977043,383.047749
131.657906,4737.318029,6661.853478,842.705048
131.658227,3849.070898,7254.018232,1072.533697
131.658547,3849.070898,7105.977043,-153.219100
131.658868,4959.379811,7105.977043,-1532.190996
131.659189,5921.647536,8734.430116,-1915.238745
131.659509,5625.565159,9548.656652,0.000000
131.659830,6365.771101,9622.677246,995.924147
131.660151,5107.421000,9770.718434,612.876398
131.660471,3404.947333,9474.636058,-383.047749
131.660792,3997.112087,8512.368333,-766.095498
131.661113,5255.462188,7772.162391,-995.924147
131.661433,6069.688724,8216.285956,229.828649
131.661754,6143.709319,8068.244768,1225.752797
131.662075,5773.606348,7254.018232,842.705048
131.662395,4219.173869,7179.997637,229.828649
131.662716,2960.823768,7031.956449,0.000000
131.663037,4293.194464,6809.894666,-229.828649
131.663357,6513.812290,7105.977043,-1532.190996
131.663678,7328.038826,8660.409521,-1149.143247
131.663999,6809.894666,9622.677246,-689.485948
131.664319,6587.832884,9178.553681,-459.657299
131.664640,4367.215058,8882.471304,-229.828649
131.664960,4219.173869,8734.430116,-229.828649
131.665281,4515.256246,7402.059420,-536.266849
131.665602,5551.544565,7328.038826,-919.314598
131.665922,6809.894666,8290.306550,0.000000
131.666243,5995.668130,8586.388927,306.438199
131.666564,4293.194464,7328.038826,459.657299
131.666884,4293.194464,6587.832884,1225.752797
131.667205,2960.823768,5773.606348,612.876398
131.667526,3552.988522,6217.729913,-306.438199
131.667846,5181.441594,7105.977043,-1225.752797
131.668167,5107.421000,9622.677246,-1378.971896
131.668488,5477.523971,10658.965565,76.609550
131.668808,5107.421000,10140.821405,383.047749
131.669129,4293.194464,9770.718434,-1302.362347
131.669450,3034.844362,8438.347739,-459.657299
131.669770,2886.803174,7846.182985,-459.657299
131.670091,4959.379811,7994.224174,0.000000
131.670412,5403.503377,9474.636058,766.095498
131.670732,5181.441594,9400.615463,1302.362347
131.671053,4959.379811,7624.121203,842.705048
131.671374,3404.947333,7254.018232,612.876398
131.671694,2368.659014,7105.977043,229.828649
131.672015,3182.885551,6365.771101,-612.876398
131.672336,5625.565159,6291.750507,-1608.800546
131.672656,6439.791695,8660.409521,-842.705048
131.672977,6217.729913,9992.780217,306.438199
131.673298,5847.626942,10066.800811,0.000000
131.673618,4515.256246,9400.615463,-919.314598
131.673939,3849.070898,8512.368333,-612.876398
131.674260,5477.523971,7031.956449,-766.095498
131.674580,6957.935855,6809.894666,-842.705048
131.674901,7105.977043,8216.285956,0.000000
131.675222,6587.832884,8142.265362,1149.143247
131.675542,5181.441594,7846.182985,536.266849
131.675863,3849.070898,7179.997637,0.000000
131.676184,3330.926739,5921.647536,0.000000
131.676504,5107.421000,5995.668130,-766.095498
131.676825,6069.688724,7624.121203,-842.705048
131.677145,5921.647536,8660.409521,-689.485948
131.677466,5625.565159,8956.491898,-229.828649
131.677787,5773.606348,8956.491898,0.000000
131.678107,4441.235652,9844.739029,153.219100
131.678428,3775.050304,8956.491898,-229.828649
131.678749,5033.400406,7105.977043,-1072.533697
131.679069,6883.915261,7328.038826,-229.828649
131.679390,6883.915261,8142.265362,383.047749
131.679711,6365.771101,7846.182985,229.828649
131.680031,4959.379811,7476.080014,76.609550
131.680352,4367.215058,6957.935855,536.266849
131.680673,3997.112087,6365.771101,229.828649
131.680993,5477.523971,5551.544565,-229.828649
131.681314,5847.626942,7698.141797,-612.876398
131.681635,5625.565159,10288.862594,-76.609550
131.681955,4811.338623,11029.068536,-766.095498
131.682276,4737.318029,10584.944971,-689.485948
131.682597,4219.173869,9104.533087,-306.438199
131.682917,2960.823768,7772.162391,0.000000
131.683238,3627.009116,8068.244768,-76.609550
131.683559,4663.297435,8882.471304,383.047749
131.683879,4959.379811,9474.636058,689.485948
131.684200,5107.421000,7994.224174,689.485948
131.684521,4293.194464,7476.080014,229.828649
131.684841,2664.741391,7402.059420,-612.876398
131.685162,3256.906145,6957.935855,-306.438199
131.685483,5255.462188,6735.874072,-1455.581446
131.685803,6735.874072,8068.244768,-1302.362347
131.686124,6883.915261,9918.759623,-76.609550
131.686445,5847.626942,10362.883188,536.266849
131.686765,4441.235652,9844.739029,76.609550
131.687086,3923.091493,8734.430116,-153.219100
131.687407,4663.297435,7105.977043,-383.047749
131.687727,5625.565159,6661.853478,-383.047749
131.688048,6143.709319,7920.203579,0.000000
131.688369,5773.606348,8586.388927,766.095498
131.688689,5403.503377,7624.121203,919.314598
131.689010,5181.441594,7105.977043,766.095498
131.689331,3701.029710,6513.812290,76.609550
131.689651,3256.906145,6143.709319,-1072.533697
131.689972,4811.338623,6735.874072,-1225.752797
131.690292,6291.750507,8734.430116,-459.657299
131.690613,5551.544565,9770.718434,0.000000
131.690934,5773.606348,9770.718434,0.000000
131.691254,4293.194464,9696.697840,-1072.533697
131.691575,2368.659014,8882.471304,-766.095498
131.691896,3108.864956,7846.182985,153.219100
131.692216,5773.606348,7624.121203,766.095498
131.692537,6513.812290,7846.182985,383.047749
131.692858,5625.565159,8068.244768,459.657299
131.693178,4885.359217,7105.977043,306.438199
131.693499,4293.194464,6957.935855,229.828649
131.693820,3552.988522,5773.606348,536.266849
131.694140,4737.318029,5033.400406,0.000000
131.694461,7624.121203,6883.915261,-919.314598
131.694782,7105.977043,9770.718434,-1302.362347
131.695102,6217.729913,10510.924376,-1608.800546
131.695423,7031.956449,9696.697840,-459.657299
131.695744,5255.462188,8290.306550,-842.705048
131.696064,4145.153275,6735.874072,-229.828649
131.696385,5403.503377,5921.647536,0.000000
131.696706,5551.544565,7179.997637,-766.095498
131.697026,5329.482782,9104.533087,0.000000
131.697347,5773.606348,9770.718434,766.095498
131.697668,4737.318029,8808.450710,76.609550
131.697988,2886.803174,7550.100608,229.828649
131.698309,2220.617826,6661.853478,1149.143247
131.698630,3182.885551,6735.874072,229.828649
131.698950,4663.297435,8290.306550,-766.095498
131.699271,4663.297435,9918.759623,-1378.971896
131.699592,5033.400406,11103.089130,-1685.410096
131.699912,4663.297435,11251.130318,-153.219100
131.700233,3627.009116,10288.862594,612.876398
131.700554,3034.844362,8734.430116,1149.143247
131.700874,4071.132681,7179.997637,0.000000
131.701195,4811.338623,7698.141797,-1225.752797
131.701516,5255.462188,8586.388927,-612.876398
131.701836,5551.544565,8586.388927,919.314598
131.702157,5033.400406,8216.285956,1378.971896
131.702477,4145.153275,7550.100608,919.314598
131.702798,3330.926739,6809.894666,0.000000
131.703119,4663.297435,6513.812290,-612.876398
131.703439,6513.812290,7994.224174,-995.924147
131.703760,6661.853478,9696.697840,-919.314598
131.704081,6513.812290,9696.697840,-689.485948
131.704401,6439.791695,9474.636058,-689.485948
131.704722,4663.297435,7772.162391,76.609550
131.705043,4589.276840,6439.791695,689.485948
131.705363,5551.544565,5773.606348,153.219100
131.705684,5477.523971,6439.791695,-995.924147
131.706005,6217.729913,7772.162391,-842.705048
131.706325,6735.874072,8364.327145,689.485948
131.706646,5551.544565,7105.977043,306.438199
131.706967,4959.379811,6217.729913,689.485948
131.707287,4441.235652,5477.523971,-383.047749
131.707608,4811.338623,5181.441594,-2374.896044
131.707929,6735.874072,7179.997637,-2298.286494
131.708249,7254.018232,9696.697840,-842.705048
131.708570,6143.709319,10510.924376,-229.828649
131.708891,5403.503377,10066.800811,153.219100
131.709211,4737.318029,8956.491898,-383.047749
131.709532,3849.070898,7179.997637,-306.438199
131.709853,4071.132681,6143.709319,-229.828649
131.710173,5329.482782,6809.894666,76.609550
131.710494,5033.400406,8142.265362,1455.581446
131.710815,4737.318029,9474.636058,2374.896044
131.711135,3775.050304,8660.409521,1685.410096
131.711456,2590.720797,7550.100608,229.828649
131.711777,2294.638420,7105.977043,383.047749
131.712097,3552.988522,7031.956449,-76.609550
131.712418,5477.523971,7994.224174,-1225.752797
131.712739,6735.874072,10658.965565,-919.314598
131.713059,6365.771101,10955.047942,-306.438199
131.713380,5255.462188,10362.883188,-995.924147
131.713701,4071.132681,9696.697840,-689.485948
131.714021,4219.173869,8216.285956,153.219100
131.714342,5921.647536,7105.977043,383.047749
131.714662,7105.977043,7254.018232,459.657299
131.714983,6143.709319,7994.224174,76.609550
131.715304,4441.235652,7772.162391,459.657299
131.715624,4293.194464,6735.874072,766.095498
131.715945,3997.112087,6143.709319,842.705048
131.716266,4589.276840,5625.565159,0.000000
131.716586,5921.647536,6587.832884,-1225.752797
131.716907,6809.894666,8586.388927,-1532.190996
131.717228,6513.812290,10140.821405,-1532.190996
131.717548,6069.688724,10732.986159,-842.705048
131.717869,5329.482782,10140.821405,-229.828649
131.718190,4663.297435,8142.265362,-229.828649
131.718510,3997.112087,6439.791695,0.000000
131.718831,4367.215058,6069.688724,0.000000
131.719152,4515.256246,7402.059420,229.828649
131.719472,4071.132681,8216.285956,536.266849
131.719793,4219.173869,7920.203579,1072.533697
131.720114,4737.318029,7179.997637,995.924147
131.720434,3923.091493,6513.812290,842.705048
131.720755,3923.091493,5773.606348,229.828649
131.721076,4737.318029,6439.791695,-1225.752797
131.721396,5403.503377,7994.224174,-1915.238745
131.721717,6957.935855,10214.842000,-1072.533697
131.722038,6735.874072,11177.109724,0.000000
131.722358,5107.421000,10362.883188,-1225.752797
131.722679,4293.194464,9104.533087,-383.047749
131.723000,3627.009116,7624.121203,-842.705048
131.723320,4811.338623,6217.729913,-612.876398
131.723641,6661.853478,7031.956449,0.000000
131.723962,6291.750507,8142.265362,919.314598
131.724282,5625.565159,8734.430116,1225.752797
131.724603,4441.235652,8586.388927,1149.143247
131.724924,3923.091493,7254.018232,0.000000
131.725244,4589.276840,6587.832884,-612.876398
131.725565,5699.585753,7105.977043,-459.657299
131.725886,6217.729913,8512.368333,-1302.362347
131.726206,6143.709319,9844.739029,-383.047749
131.726527,5107.421000,10510.924376,0.000000
131.726848,4219.173869,10066.800811,-612.876398
131.727168,3552.988522,9030.512492,0.000000
131.727489,4071.132681,7550.100608,0.000000
131.727810,5551.544565,7031.956449,689.485948
131.728130,6217.729913,7105.977043,766.095498
131.728451,5477.523971,7476.080014,612.876398
131.728772,4737.318029,7402.059420,153.219100
131.729092,4589.276840,6809.894666,76.609550
131.729413,4589.276840,6439.791695,-229.828649
131.729734,5107.421000,6069.688724,-536.266849
131.730054,6365.771101,7328.038826,-1455.581446
131.730375,6513.812290,8882.471304,-766.095498
131.730696,5995.668130,9918.759623,-153.219100
131.731016,5995.668130,9770.718434,229.828649
131.731337,4515.256246,8512.368333,-919.314598
131.731658,3701.029710,6957.935855,-995.924147
131.731979,4293.194464,6439.791695,-612.876398
131.732299,5107.421000,7179.997637,-153.219100
131.732620,5625.565159,8290.306550,229.828649
131.732941,6513.812290,8364.327145,919.314598
131.733261,4737.318029,7698.141797,383.047749
131.733582,3330.926739,6809.894666,536.266849
131.733903,2664.741391,6217.729913,689.485948
131.734223,4219.173869,6365.771101,-459.657299
131.734544,5551.544565,8512.368333,-1225.752797
131.734865,6735.874072,10510.924376,-1608.800546
131.735185,6217.729913,11473.192101,-1455.581446
131.735506,5107.421000,10807.006753,-1072.533697
131.735827,3552.988522,9400.615463,0.000000
131.736148,4219.173869,7328.038826,689.485948
131.736468,4737.318029,6439.791695,612.876398
131.736789,5255.462188,7328.038826,153.219100
131.737110,5625.565159,8660.409521,76.609550
131.737430,5625.565159,9178.553681,536.266849
131.737751,4811.338623,8216.285956,1149.143247
131.738072,4441.235652,6883.915261,919.314598
131.738392,4737.318029,5329.482782,536.266849
131.738713,5847.626942,6069.688724,-306.438199
131.739034,5329.482782,7698.141797,-842.705048
131.739354,6365.771101,9030.512492,-1532.190996
131.739675,7254.018232,10288.862594,-1608.800546
131.739996,6439.791695,10066.800811,-1149.143247
131.740316,4737.318029,9030.512492,-689.485948
131.740637,4145.153275,7994.224174,-153.219100
131.740958,4589.276840,6883.915261,76.609550
131.741279,4959.379811,7031.956449,383.047749
131.741599,5403.503377,7105.977043,383.047749
131.741920,5403.503377,7624.121203,459.657299
131.742241,4515.256246,8142.265362,612.876398
131.742561,2960.823768,7179.997637,842.705048
131.742882,3478.967927,5847.626942,536.266849
131.743203,4737.318029,6291.750507,-383.047749
131.743523,5181.441594,8956.491898,-1378.971896
131.743844,4737.318029,11029.068536,-1915.238745
131.744165,4811.338623,10807.006753,-1532.190996
131.744485,4959.379811,10732.986159,-842.705048
131.744806,3404.947333,9548.656652,229.828649
131.745127,3330.926739,8364.327145,76.609550
131.745448,4367.215058,7698.141797,-459.657299
131.745768,4293.194464,8882.471304,0.000000
131.746089,4441.235652,9104.533087,919.314598
131.746410,4441.235652,8512.368333,1838.629195
131.746730,3627.009116,7105.977043,1762.019645
131.747051,3627.009116,6439.791695,1762.019645
131.747372,3849.070898,6439.791695,919.314598
131.747692,5625.565159,7328.038826,-766.095498
131.748013,6291.750507,8290.306550,-1532.190996
131.748334,6513.812290,9104.533087,-1915.238745
131.748654,6513.812290,9844.739029,-995.924147
131.748975,6365.771101,9992.780217,153.219100
131.749296,4737.318029,9326.594869,306.438199
131.749617,5551.544565,7105.977043,-766.095498
131.749937,6513.812290,6513.812290,-1149.143247
131.750258,6143.709319,7031.956449,-1225.752797
131.750579,6217.729913,7328.038826,0.000000
131.750899,6365.771101,7105.977043,1072.533697
131.751220,5477.523971,6365.771101,1149.143247
131.751541,4515.256246,5625.565159,1072.533697
131.751861,4737.318029,5107.421000,0.000000
131.752182,4885.359217,5921.647536,-1378.971896
131.752503,5847.626942,8142.265362,-1608.800546
131.752823,5847.626942,9474.636058,-1838.629195
131.753144,6291.750507,9622.677246,-383.047749
131.753465,5255.462188,9326.594869,76.609550
131.753786,4145.153275,8586.388927,0.000000
131.754106,3849.070898,7254.018232,-689.485948
131.754427,4293.194464,7772.162391,-612.876398
131.754748,4663.297435,8660.409521,-1608.800546
131.755068,5329.482782,8290.306550,1455.581446
131.755389,5181.441594,8734.430116,1915.238745
131.755710,4367.215058,8290.306550,1302.362347
131.756030,2812.782580,7179.997637,383.047749
131.756351,3627.009116,6661.853478,-842.705048
131.756672,4959.379811,7328.038826,-1455.581446
131.756992,5329.482782,8956.491898,-995.924147
131.757313,5995.668130,9770.718434,153.219100
131.757634,6587.832884,10807.006753,842.705048
131.757955,4515.256246,10288.862594,153.219100
131.758275,3034.844362,8586.388927,-919.314598
131.758596,4663.297435,7402.059420,-1225.752797
131.758917,5625.565159,7994.224174,-842.705048
131.759237,6217.729913,8438.347739,383.047749
131.759558,7031.956449,8512.368333,1455.581446
131.759879,5625.565159,8290.306550,306.438199
131.760199,3404.947333,7624.121203,0.000000
131.760520,3330.926739,6661.853478,229.828649
131.760841,4293.194464,5773.606348,-306.438199
131.761161,5773.606348,6883.915261,-306.438199
131.761482,6291.750507,9030.512492,-919.314598
131.761803,6069.688724,10066.800811,-1149.143247
131.762124,5107.421000,9992.780217,-383.047749
131.762444,3775.050304,9622.677246,229.828649
131.762765,3775.050304,8216.285956,-306.438199
131.763086,4145.153275,6883.915261,-842.705048
131.763406,4663.297435,7105.977043,-612.876398
131.763727,5255.462188,8068.244768,306.438199
131.764048,4885.359217,8216.285956,1378.971896
131.764368,4293.194464,7698.141797,1378.971896
131.764689,3404.947333,7105.977043,689.485948
131.765010,2960.823768,6587.832884,0.000000
131.765330,4145.153275,6513.812290,-383.047749
131.765651,5033.400406,7772.162391,-766.095498
131.765972,5847.626942,9178.553681,-995.924147
131.766293,5847.626942,9696.697840,-306.438199
131.766613,4589.276840,9844.739029,-459.657299
131.766934,3701.029710,9474.636058,76.609550
131.767255,3182.885551,7550.100608,0.000000
131.767575,4219.173869,6439.791695,-229.828649
131.767896,5551.544565,7550.100608,-536.266849
131.768217,5995.668130,9252.574275,76.609550
131.768537,6143.709319,9474.636058,536.266849
131.768858,5699.585753,8512.368333,842.705048
131.769179,4737.318029,7031.956449,689.485948
131.769499,4737.318029,6143.709319,306.438199
131.769820,5181.441594,6143.709319,0.000000
131.770141,6957.935855,7179.997637,-919.314598
131.770462,7402.059420,8734.430116,-842.705048
131.770782,7179.997637,8956.491898,-306.438199
131.771103,6217.729913,9326.594869,459.657299
131.771424,4737.318029,8586.388927,229.828649
131.771744,3701.029710,6957.935855,-536.266849
131.772065,5329.482782,6513.812290,-229.828649
131.772386,6809.894666,7254.018232,0.000000
131.772706,5847.626942,8142.265362,612.876398
131.773027,5477.523971,8216.285956,1149.143247
131.773348,4441.235652,7624.121203,689.485948
131.773668,3997.112087,7328.038826,-383.047749
131.773989,4663.297435,6143.709319,0.000000
131.774310,4959.379811,5699.585753,-766.095498
131.774631,5995.668130,7179.997637,-1455.581446
131.774951,5847.626942,9548.656652,-612.876398
131.775272,4441.235652,9474.636058,-229.828649
131.775593,4959.379811,9178.553681,-536.266849
131.775913,4737.318029,8660.409521,-536.266849
131.776234,2812.782580,7179.997637,-1225.752797
131.776555,3849.070898,6587.832884,-1762.019645
131.776875,5847.626942,7476.080014,-229.828649
131.777196,5403.503377,9400.615463,919.314598
131.777517,4589.276840,9696.697840,1532.190996
131.777837,3404.947333,9030.512492,0.000000
131.778158,2146.597232,7846.182985,-1225.752797
131.778479,2442.679609,7550.100608,0.000000
131.778800,4663.297435,7994.224174,0.000000
131.779120,5551.544565,9474.636058,-995.924147
131.779441,5403.503377,10955.047942,-612.876398
131.779762,4959.379811,11029.068536,-459.657299
131.780082,4367.215058,9696.697840,-153.219100
131.780403,3182.885551,8438.347739,536.266849
131.780724,3627.009116,8142.265362,76.609550
131.781044,4293.194464,7476.080014,-76.609550
131.781365,5551.544565,8364.327145,612.876398
131.781686,6143.709319,9548.656652,1685.410096
131.782006,5329.482782,9326.594869,842.705048
131.782327,4071.132681,8586.388927,-766.095498
131.782648,3552.988522,7994.224174,-1838.629195
131.782969,4145.153275,6883.915261,-1302.362347
131.783289,6513.812290,6809.894666,153.219100
131.783610,7328.038826,7920.203579,612.876398
131.783931,6365.771101,9252.574275,306.438199
131.784251,4441.235652,9326.594869,-1225.752797
131.784572,4145.153275,8734.430116,-1302.362347
131.784893,5033.400406,7179.997637,-383.047749
131.785213,6291.750507,5699.585753,612.876398
131.785534,7624.121203,5329.482782,919.314598
131.785855,7476.080014,6439.791695,0.000000
131.786175,4885.359217,7179.997637,229.828649
131.786496,5107.421000,7328.038826,229.828649
131.786817,4737.318029,6809.894666,153.219100
131.787138,4441.235652,6587.832884,0.000000
131.787458,5699.585753,5625.565159,-383.047749
131.787779,6513.812290,6217.729913,-1685.410096
131.788100,5847.626942,8068.244768,-1378.971896
131.788420,5551.544565,9622.677246,-153.219100
131.788741,4589.276840,9548.656652,-229.828649
131.789062,3775.050304,8956.491898,-383.047749
131.789382,3849.070898,8364.327145,229.828649
131.789703,4441.235652,7328.038826,0.000000
131.790024,4811.338623,7179.997637,-536.266849
131.790344,5329.482782,8660.409521,0.000000
131.790665,4885.359217,8808.450710,919.314598
131.790986,4145.153275,8290.306550,766.095498
131.791307,3478.967927,7105.977043,153.219100
131.791627,3108.864956,6883.915261,-76.609550
131.791948,4293.194464,7846.182985,-229.828649
131.792269,5773.606348,9696.697840,-612.876398
131.792589,5921.647536,10362.883188,-1302.362347
131.792910,5847.626942,10436.903782,-229.828649
131.793231,5107.421000,9622.677246,842.705048
131.793551,3775.050304,8956.491898,689.485948
131.793872,3478.967927,7920.203579,153.219100
131.794193,5255.462188,6957.935855,-919.314598
131.794513,6513.812290,7402.059420,-1455.581446
131.794834,7698.141797,8882.471304,383.047749
131.795155,6069.688724,9252.574275,1149.143247
131.795476,4811.338623,8142.265362,383.047749
131.795796,4885.359217,6735.874072,76.609550
131.796117,4293.194464,5773.606348,0.000000
131.796438,5181.441594,5699.585753,-689.485948
131.796758,7476.080014,7698.141797,-1608.800546
131.797079,7179.997637,10881.027347,-1225.752797
131.797400,5107.421000,11103.089130,-842.705048
131.797720,4737.318029,9030.512492,0.000000
131.798041,4145.153275,7772.162391,76.609550
131.798362,3182.885551,6661.853478,306.438199
131.798682,3849.070898,6365.771101,0.000000
131.799003,5181.441594,7698.141797,-689.485948
131.799324,5107.421000,9178.553681,0.000000
131.799645,4589.276840,8512.368333,766.095498
131.799965,4737.318029,7179.997637,612.876398
131.800286,2886.803174,7105.977043,-383.047749
131.800607,2442.679609,6513.812290,-306.438199
131.800927,4515.256246,6439.791695,-919.314598
131.801248,6735.874072,7698.141797,-1149.143247
131.801569,6809.894666,10288.862594,0.000000
131.801889,6661.853478,10881.027347,459.657299
131.802210,5625.565159,9992.780217,-383.047749
131.802531,3849.070898,7698.141797,-689.485948
131.802851,4145.153275,5773.606348,-536.266849
131.803172,6439.791695,5773.606348,306.438199
131.803493,6513.812290,6587.832884,842.705048
131.803814,6143.709319,8364.327145,0.000000
131.804134,5699.585753,8734.430116,0.000000
131.804455,4589.276840,8142.265362,-459.657299
131.804776,3552.988522,7179.997637,0.000000
131.805096,4293.194464,6291.750507,153.219100
131.805417,6069.688724,7105.977043,-459.657299
131.805738,6661.853478,9326.594869,-306.438199
131.806058,5625.565159,9918.759623,-612.876398
131.806379,4367.215058,9918.759623,-766.095498
131.806700,3849.070898,9844.739029,153.219100
131.807020,2368.659014,8882.471304,536.266849
131.807341,3478.967927,7254.018232,459.657299
131.807662,4663.297435,6143.709319,153.219100
131.807982,5107.421000,7105.977043,306.438199
131.808303,4515.256246,8734.430116,1149.143247
131.808624,3034.844362,8142.265362,689.485948
131.808945,3256.906145,7402.059420,-153.219100
131.809265,4219.173869,6365.771101,229.828649
131.809586,4737.318029,6587.832884,0.000000
131.809907,5921.647536,8068.244768,-1532.190996
131.810227,6143.709319,9844.739029,-2298.286494
131.810548,6143.709319,10955.047942,-1608.800546
131.810869,5551.544565,10066.800811,-689.485948
131.811189,5033.400406,8438.347739,0.000000
131.811510,4737.318029,7624.121203,612.876398
131.811831,4441.235652,6661.853478,689.485948
131.812151,5107.421000,6735.874072,229.828649
131.812472,5847.626942,7698.141797,-153.219100
131.812793,5847.626942,8660.409521,306.438199
131.813114,4959.379811,7920.203579,229.828649
131.813434,4589.276840,6809.894666,0.000000
131.813755,4737.318029,6439.791695,612.876398
131.814076,5181.441594,6809.894666,-383.047749
131.814396,6069.688724,8438.347739,-2374.896044
131.814717,6957.935855,10362.883188,-2068.457845
131.815038,6661.853478,11399.171507,-1302.362347
131.815358,6143.709319,10362.883188,306.438199
131.815679,4885.359217,8734.430116,689.485948
131.816000,3849.070898,7328.038826,-383.047749
131.816320,4071.132681,6365.771101,-229.828649
131.816641,4959.379811,6439.791695,383.047749
131.816962,6217.729913,7994.224174,1378.971896
131.817283,5255.462188,7994.224174,1685.410096
131.817603,4293.194464,7402.059420,153.219100
131.817924,3923.091493,6513.812290,0.000000
131.818245,3701.029710,6365.771101,306.438199
131.818565,5033.400406,6217.729913,-383.047749
131.818886,6365.771101,7550.100608,-1608.800546
131.819207,6217.729913,9474.636058,-2374.896044
131.819527,5699.585753,10584.944971,-1455.581446
131.819848,5403.503377,10214.842000,459.657299
131.820169,4959.379811,9104.533087,383.047749
131.820489,4959.379811,7254.018232,459.657299
131.820810,5477.523971,5773.606348,-383.047749
131.821131,5625.565159,6291.750507,-1149.143247
131.821452,5921.647536,7105.977043,-229.828649
131.821772,5699.585753,7624.121203,153.219100
131.822093,5921.647536,6809.894666,383.047749
131.822414,4959.379811,6883.915261,-306.438199
131.822734,4219.173869,6957.935855,-306.438199
131.823055,4367.215058,7328.038826,-1608.800546
131.823376,4959.379811,8216.285956,-1302.362347
131.823696,6365.771101,9918.759623,-536.266849
131.824017,6809.894666,10436.903782,153.219100
131.824338,5255.462188,10881.027347,229.828649
131.824658,4293.194464,10955.047942,-306.438199
131.824979,3182.885551,9252.574275,76.609550
131.825300,4071.132681,7550.100608,536.266849
131.825621,5107.421000,7105.977043,689.485948
131.825941,4959.379811,7328.038826,1225.752797
131.826262,3849.070898,7476.080014,1378.971896
131.826583,3108.864956,7402.059420,1302.362347
131.826903,2516.700203,7846.182985,1455.581446
131.827224,3034.844362,7846.182985,689.485948
131.827545,4145.153275,7328.038826,-995.924147
131.827865,6513.812290,8734.430116,-1455.581446
131.828186,6365.771101,10214.842000,-1149.143247
131.828507,5107.421000,9696.697840,-459.657299
131.828827,5773.606348,9770.718434,-459.657299
131.829148,4959.379811,9400.615463,-612.876398
131.829469,3775.050304,7254.018232,-689.485948
131.829790,6143.709319,6587.832884,-689.485948
131.830110,6735.874072,7254.018232,-536.266849
131.830432,4737.318029,7624.121203,0.000000
131.830753,4145.153275,6587.832884,459.657299
131.831074,4441.235652,5847.626942,766.095498
131.831395,3997.112087,6143.709319,766.095498
131.831715,3627.009116,6957.935855,919.314598
131.832036,4367.215058,6883.915261,-2451.505594
131.832357,4885.359217,8660.409521,-3217.601092
131.832678,5255.462188,10955.047942,-1685.410096
131.832998,5625.565159,10807.006753,-153.219100
131.833319,5551.544565,10436.903782,0.000000
131.833640,3627.009116,9474.636058,-229.828649
131.833961,2886.803174,8512.368333,-229.828649
131.834281,3849.070898,7476.080014,0.000000
131.834602,4441.235652,7846.182985,0.000000
131.834923,5255.462188,8068.244768,919.314598
131.835244,5255.462188,7920.203579,1838.629195
131.835565,4737.318029,7698.141797,689.485948
131.835885,3775.050304,7698.141797,536.266849
131.836206,3775.050304,7105.977043,0.000000
131.836527,5181.441594,7550.100608,-1532.190996
131.836848,7105.977043,9104.533087,-1608.800546
131.837168,7031.956449,9992.780217,-995.924147
131.837489,6809.894666,9844.739029,0.000000
131.837810,6217.729913,9696.697840,0.000000
131.838131,4811.338623,9770.718434,-612.876398
131.838452,4737.318029,8438.347739,76.609550
131.838772,6439.791695,7402.059420,-383.047749
131.839093,6735.874072,7105.977043,-459.657299
131.839414,6143.709319,6661.853478,995.924147
131.839735,5625.565159,5995.668130,1532.190996
131.840055,4959.379811,5699.585753,229.828649
131.840376,4515.256246,6439.791695,229.828649
131.840697,4959.379811,7105.977043,0.000000
131.841018,5403.503377,7031.956449,-1532.190996
131.841338,6439.791695,8438.347739,-1302.362347
131.841659,6365.771101,9918.759623,-766.095498
131.841980,5255.462188,10584.944971,-1072.533697
131.842301,5107.421000,9622.677246,-842.705048
131.842622,4589.276840,8364.327145,-766.095498
131.842942,4737.318029,7772.162391,76.609550
131.843263,4737.318029,6587.832884,612.876398
131.843584,4663.297435,7179.997637,153.219100
131.843905,4219.173869,7105.977043,842.705048
131.844225,4293.194464,6957.935855,1302.362347
131.844546,4737.318029,6587.832884,1838.629195
131.844867,3330.926739,6365.771101,842.705048
131.845188,2886.803174,5625.565159,-1455.581446
131.845509,4441.235652,7105.977043,-2145.067394
131.845829,5995.668130,9474.636058,-1532.190996
131.846150,6143.709319,11177.109724,-536.266849
131.846471,6883.915261,11029.068536,-383.047749
131.846792,5995.668130,10732.986159,-842.705048
131.847112,3552.988522,10658.965565,-995.924147
131.847433,3552.988522,8364.327145,0.000000
131.847754,5181.441594,6513.812290,383.047749
131.848075,6365.771101,7328.038826,842.705048
131.848395,5033.400406,7920.203579,1915.238745
131.848716,3404.947333,7550.100608,995.924147
131.849037,3108.864956,7254.018232,306.438199
131.849358,2886.803174,7179.997637,1378.971896
131.849679,3923.091493,7105.977043,766.095498
131.849999,5921.647536,7698.141797,-612.876398
131.850320,5699.585753,9400.615463,-1532.190996
131.850641,5329.482782,11399.171507,-1302.362347
131.850962,5699.585753,11547.212695,0.000000
131.851282,4811.338623,10510.924376,-612.876398
131.851603,4145.153275,9622.677246,-383.047749
131.851924,4811.338623,8068.244768,-459.657299
131.852245,4959.379811,7254.018232,0.000000
131.852566,4663.297435,6957.935855,1072.533697
131.852886,4145.153275,7031.956449,1532.190996
131.853207,3923.091493,6883.915261,1302.362347
131.853528,3923.091493,6883.915261,842.705048
131.853849,4663.297435,7105.977043,153.219100
131.854169,4737.318029,6291.750507,-536.266849
131.854490,4959.379811,5847.626942,-1608.800546
131.854811,5847.626942,8438.347739,-1532.190996
131.855132,6217.729913,9548.656652,-995.924147
131.855452,5329.482782,9992.780217,-612.876398
131.855773,5773.606348,9844.739029,-1685.410096
131.856094,5403.503377,9252.574275,-1991.848295
131.856415,4441.235652,7920.203579,-1149.143247
131.856736,5255.462188,7105.977043,306.438199
131.857056,6217.729913,7254.018232,995.924147
131.857377,6069.688724,7402.059420,1378.971896
131.857698,4959.379811,6957.935855,1378.971896
131.858019,3552.988522,7105.977043,0.000000
131.858339,2516.700203,6143.709319,-306.438199
131.858660,4293.194464,6883.915261,0.000000
131.858981,5847.626942,7846.182985,-459.657299
131.859302,6143.709319,9548.656652,-919.314598
131.859623,5551.544565,10140.821405,-306.438199
131.859943,4959.379811,10881.027347,-306.438199
131.860264,3256.906145,10510.924376,-383.047749
131.860585,3330.926739,9474.636058,0.000000
131.860906,5255.462188,7994.224174,153.219100
131.861226,6365.771101,7772.162391,1225.752797
131.861547,5699.585753,8512.368333,1225.752797
131.861868,4589.276840,8068.244768,919.314598
131.862189,3849.070898,7105.977043,306.438199
131.862509,4071.132681,5921.647536,306.438199
131.862830,4737.318029,5995.668130,76.609550
131.863151,5255.462188,6069.688724,-842.705048
131.863472,5847.626942,7179.997637,-1532.190996
131.863793,6143.709319,9474.636058,-1225.752797
131.864113,6143.709319,10584.944971,-1149.143247
131.864434,6143.709319,10510.924376,-1225.752797
131.864755,5773.606348,9770.718434,-1532.190996
131.865076,4811.338623,8364.327145,-766.095498
131.865396,5847.626942,6883.915261,0.000000
131.865717,5921.647536,6809.894666,383.047749
131.866038,5033.400406,7402.059420,0.000000
131.866359,4441.235652,7105.977043,459.657299
131.866680,4589.276840,6957.935855,842.705048
131.867000,3701.029710,5921.647536,842.705048
131.867321,3404.947333,5551.544565,689.485948
131.867642,4293.194464,6069.688724,-383.047749
131.867963,5107.421000,8142.265362,-2145.067394
131.868283,5329.482782,10436.903782,-995.924147
131.868604,6439.791695,10658.965565,-459.657299
131.868925,6661.853478,11103.089130,76.609550
131.869246,4589.276840,10214.842000,-153.219100
131.869566,3849.070898,9030.512492,-995.924147
131.869887,5181.441594,7772.162391,-229.828649
131.870208,6513.812290,8068.244768,919.314598
131.870529,5921.647536,7846.182985,1532.190996
131.870850,4293.194464,5995.668130,1302.362347
131.871170,3182.885551,6069.688724,306.438199
131.871491,2960.823768,6365.771101,1225.752797
131.871812,4367.215058,5921.647536,995.924147
131.872133,6957.935855,6883.915261,-995.924147
131.872453,6587.832884,8660.409521,-1608.800546
131.872774,5921.647536,10658.965565,-1225.752797
131.873095,5477.523971,10955.047942,-459.657299
131.873416,5625.565159,10066.800811,-766.095498
131.873737,5255.462188,9252.574275,-995.924147
131.874057,5255.462188,8216.285956,-1225.752797
131.874378,5255.462188,7328.038826,-612.876398
131.874699,5921.647536,7994.224174,229.828649
131.875020,4737.318029,8438.347739,1608.800546
131.875340,4367.215058,6883.915261,1455.581446
131.875661,4663.297435,5773.606348,612.876398
131.875982,3552.988522,5625.565159,536.266849
131.876303,3404.947333,5477.523971,153.219100
131.876624,5329.482782,6809.894666,-383.047749
131.876944,5625.565159,9400.615463,-766.095498
131.877265,5773.606348,10658.965565,-842.705048
131.877586,5625.565159,10584.944971,-612.876398
131.877907,4737.318029,9992.780217,-1455.581446
131.878227,3627.009116,8882.471304,-766.095498
131.878548,4145.153275,8068.244768,306.438199
131.878869,5107.421000,7476.080014,-229.828649
131.879190,5181.441594,8068.244768,306.438199
131.879510,4885.359217,8142.265362,919.314598
131.879831,4885.359217,7920.203579,1225.752797
131.880152,4145.153275,6513.812290,383.047749
131.880473,3256.906145,4959.379811,536.266849
131.880794,4663.297435,5255.462188,-536.266849
131.881114,6217.729913,7105.977043,-1072.533697
131.881435,5403.503377,9252.574275,-1072.533697
131.881756,6217.729913,10955.047942,-612.876398
131.882077,5847.626942,11251.130318,-1149.143247
131.882397,3849.070898,10584.944971,-1608.800546
131.882718,3552.988522,8364.327145,-612.876398
131.883039,5995.668130,7328.038826,-229.828649
131.883360,6587.832884,7550.100608,306.438199
131.883681,6069.688724,9104.533087,153.219100
131.884001,4441.235652,8660.409521,0.000000
131.884322,3775.050304,7698.141797,-306.438199
131.884643,4441.235652,6809.894666,1762.019645
131.884964,4441.235652,5921.647536,1685.410096
131.885284,4959.379811,5551.544565,76.609550
131.885605,5107.421000,7031.956449,-1608.800546
131.885926,4663.297435,9400.615463,-2145.067394
131.886247,4737.318029,10362.883188,-842.705048
131.886567,5995.668130,10732.986159,153.219100
131.886888,5403.503377,9992.780217,0.000000
131.887209,4219.173869,8660.409521,-689.485948
131.887530,4811.338623,8142.265362,-919.314598
131.887851,5403.503377,7994.224174,0.000000
131.888171,5329.482782,8290.306550,306.438199
131.888492,5847.626942,7105.977043,842.705048
131.888813,4663.297435,6365.771101,76.609550
131.889134,3627.009116,6069.688724,0.000000
131.889454,3256.906145,5921.647536,1225.752797
131.889775,4885.359217,5773.606348,383.047749
