#time,accel_x,accel_y,accel_z
151.517649,4959.379811,8142.265362,-306.438199
151.517970,5107.421000,8290.306550,0.000000
151.518290,4885.359217,7846.182985,0.000000
151.518611,5255.462188,7920.203579,-383.047749
151.518932,5033.400406,8142.265362,0.000000
151.519252,5033.400406,7994.224174,-153.219100
151.519573,5033.400406,8142.265362,229.828649
151.519894,4959.379811,7994.224174,-153.219100
151.520214,5107.421000,8068.244768,0.000000
151.520535,4885.359217,7920.203579,-229.828649
151.520856,5107.421000,7994.224174,153.219100
151.521176,4811.338623,7846.182985,-229.828649
151.521497,5107.421000,8068.244768,-153.219100
151.521817,4885.359217,7920.203579,0.000000
151.522138,5033.400406,8068.244768,-153.219100
151.522459,4959.379811,7994.224174,-229.828649
151.522779,4885.359217,8142.265362,-383.047749
151.523100,5033.400406,7846.182985,-459.657299
151.523421,4959.379811,7994.224174,-229.828649
151.523741,4737.318029,8068.244768,-306.438199
151.524062,4811.338623,8068.244768,-306.438199
151.524382,4737.318029,7920.203579,-306.438199
151.524703,4737.318029,8068.244768,-383.047749
151.525024,4811.338623,8068.244768,-306.438199
151.525344,4959.379811,7994.224174,-383.047749
151.525665,4959.379811,8142.265362,536.266849
151.525986,5033.400406,8068.244768,-306.438199
151.526306,4737.318029,8142.265362,0.000000
151.526627,4663.297435,7994.224174,-229.828649
151.526947,4441.235652,7402.059420,-383.047749
151.527268,4219.173869,7624.121203,0.000000
151.527589,4367.215058,8660.409521,0.000000
151.527909,4663.297435,9770.718434,-919.314598
151.528230,4737.318029,10140.821405,-1378.971896
151.528551,4589.276840,9918.759623,-995.924147
151.528871,4145.153275,9474.636058,306.438199
151.529192,3478.967927,8882.471304,612.876398
151.529513,2812.782580,8882.471304,1072.533697
151.529833,2664.741391,9178.553681,766.095498
151.530154,2368.659014,9030.512492,-153.219100
151.530474,2812.782580,8586.388927,-536.266849
151.530795,2886.803174,8660.409521,-383.047749
151.531116,3108.864956,9474.636058,153.219100
151.531436,3108.864956,9548.656652,229.828649
151.531757,2664.741391,9326.594869,229.828649
151.532078,2294.638420,9548.656652,383.047749
151.532398,2368.659014,9622.677246,0.000000
151.532719,1776.494261,11029.068536,-1225.752797
151.533039,2072.576638,11769.274478,-1762.019645
151.533360,1480.411884,11917.315666,-1149.143247
151.533681,1480.411884,11029.068536,-689.485948
151.534001,370.102971,10955.047942,-1225.752797
151.534322,-518.144159,11843.295072,-1608.800546
151.534643,-1184.329507,12361.439231,-689.485948
151.534963,-1184.329507,12583.501014,383.047749
151.535284,-1480.411884,12139.377449,1225.752797
151.535604,-666.185348,11769.274478,1608.800546
151.535925,-1406.391290,11991.336260,1762.019645
151.536246,-2368.659014,12361.439231,1532.190996
151.536566,-2516.700203,10881.027347,0.000000
151.536887,-1998.556043,10066.800811,-995.924147
151.537208,-1110.308913,9770.718434,-612.876398
151.537528,-518.144159,9770.718434,459.657299
151.537849,-222.061783,10584.944971,842.705048
151.538170,74.020594,11399.171507,0.000000
151.538490,888.247130,11695.253884,-1072.533697
151.538811,1406.391290,10881.027347,-1225.752797
151.539131,2072.576638,10214.842000,-612.876398
151.539452,2738.761985,10288.862594,229.828649
151.539773,2812.782580,9992.780217,-919.314598
151.540093,2072.576638,9696.697840,-2068.457845
151.540414,1480.411884,9400.615463,-2451.505594
151.540735,1480.411884,9548.656652,-1378.971896
151.541055,1850.514855,10066.800811,-536.266849
151.541376,1924.535449,10584.944971,-153.219100
151.541696,1554.432478,11103.089130,-306.438199
151.542017,814.226536,11103.089130,0.000000
151.542338,0.000000,10881.027347,689.485948
151.542658,-222.061783,9918.759623,842.705048
151.542979,-370.102971,9696.697840,842.705048
151.543300,-296.082377,10140.821405,383.047749
151.543620,-296.082377,10140.821405,766.095498
151.543941,-370.102971,10807.006753,1149.143247
151.544262,444.123565,11325.150913,1302.362347
151.544582,1036.288319,11103.089130,1302.362347
151.544903,888.247130,11103.089130,229.828649
151.545223,1110.308913,10732.986159,-689.485948
151.545544,1332.370696,10436.903782,-1608.800546
151.545865,2072.576638,10066.800811,-995.924147
151.546185,1998.556043,9696.697840,306.438199
151.546506,1998.556043,8882.471304,306.438199
151.546827,2072.576638,9104.533087,0.000000
151.547147,2220.617826,9844.739029,-383.047749
151.547468,2220.617826,10658.965565,-306.438199
151.547788,2516.700203,10658.965565,76.609550
151.548109,3182.885551,10510.924376,-612.876398
151.548430,3552.988522,9918.759623,-919.314598
151.548750,2960.823768,9030.512492,-1072.533697
151.549071,2886.803174,9326.594869,-766.095498
151.549392,2072.576638,10362.883188,-153.219100
151.549712,1184.329507,11473.192101,-612.876398
151.550033,962.267725,11769.274478,-842.705048
151.550353,1332.370696,11103.089130,-1378.971896
151.550674,370.102971,10658.965565,-1608.800546
151.550995,-444.123565,9474.636058,-1378.971896
151.551315,-1110.308913,9178.553681,-536.266849
151.551636,-1332.370696,9770.718434,612.876398
151.551957,-222.061783,11177.109724,1915.238745
151.552277,666.185348,12953.603985,2451.505594
151.552598,222.061783,13619.789333,1149.143247
151.552919,0.000000,13545.768739,229.828649
151.553239,222.061783,12361.439231,-229.828649
151.553560,444.123565,10732.986159,-229.828649
151.553880,740.205942,9696.697840,536.266849
151.554201,444.123565,9548.656652,-536.266849
151.554522,-814.226536,9918.759623,-1455.581446
151.554842,-1998.556043,10362.883188,-1762.019645
151.555163,-1480.411884,11029.068536,-1378.971896
151.555484,-148.041188,11251.130318,0.000000
151.555804,1036.288319,12435.459826,842.705048
151.556125,1480.411884,13101.645173,383.047749
151.556445,222.061783,12953.603985,-689.485948
151.556766,0.000000,12953.603985,-995.924147
151.557087,666.185348,12213.398043,-689.485948
151.557407,1036.288319,9770.718434,-612.876398
151.557728,1628.453072,7772.162391,-306.438199
151.558049,1702.473667,8512.368333,0.000000
151.558369,370.102971,10807.006753,383.047749
151.558690,-74.020594,11547.212695,536.266849
151.559010,-148.041188,10436.903782,919.314598
151.559331,0.000000,8512.368333,995.924147
151.559652,592.164754,7624.121203,1072.533697
151.559972,1406.391290,9178.553681,766.095498
151.560293,1036.288319,11251.130318,-689.485948
151.560614,0.000000,12361.439231,-1762.019645
151.560934,814.226536,12287.418637,-1991.848295
151.561255,1702.473667,11325.150913,-1915.238745
151.561576,1110.308913,12657.521608,-919.314598
151.561896,1924.535449,14063.912898,383.047749
151.562217,666.185348,12509.480420,-766.095498
151.562537,74.020594,11029.068536,-306.438199
151.562858,962.267725,9992.780217,1532.190996
151.563179,-888.247130,8512.368333,2221.676944
151.563499,-2368.659014,7624.121203,1532.190996
151.563820,-888.247130,8290.306550,1302.362347
151.564141,-1332.370696,8808.450710,-306.438199
151.564461,666.185348,9992.780217,-459.657299
151.564782,2368.659014,12731.542202,0.000000
151.565102,2146.597232,14063.912898,-383.047749
151.565423,1554.432478,13249.686362,-306.438199
151.565744,1184.329507,11029.068536,-612.876398
151.566064,666.185348,7328.038826,-1915.238745
151.566385,1702.473667,6883.915261,0.000000
151.566706,3182.885551,9844.739029,2221.676944
151.567026,1184.329507,12879.583391,-536.266849
151.567347,740.205942,13915.871710,-3217.601092
151.567668,1776.494261,12361.439231,-3983.696590
151.567988,814.226536,9918.759623,-2528.115143
151.568309,-1480.411884,7698.141797,153.219100
151.568629,-370.102971,7476.080014,536.266849
151.568950,222.061783,10807.006753,-383.047749
151.569271,-740.205942,14359.995275,383.047749
151.569591,-1628.453072,16062.468941,459.657299
151.569912,-1628.453072,15396.283594,-306.438199
151.570233,-1480.411884,14211.954086,0.000000
151.570553,-1036.288319,11547.212695,919.314598
151.570874,-1554.432478,9400.615463,383.047749
151.571194,-444.123565,9030.512492,76.609550
151.571515,0.000000,10140.821405,1608.800546
151.571836,-518.144159,9696.697840,1762.019645
151.572156,0.000000,9400.615463,689.485948
151.572477,1776.494261,9030.512492,1532.190996
151.572798,3182.885551,8882.471304,1455.581446
151.573118,4959.379811,9400.615463,842.705048
151.573439,6143.709319,9770.718434,-612.876398
151.573759,5847.626942,9992.780217,-2528.115143
151.574080,4811.338623,8512.368333,-3983.696590
151.574401,4219.173869,7105.977043,-3140.991542
151.574721,5181.441594,6957.935855,-1455.581446
151.575042,5921.647536,9030.512492,689.485948
151.575363,5995.668130,11547.212695,229.828649
151.575683,4589.276840,11547.212695,-1225.752797
151.576004,2812.782580,10436.903782,-1838.629195
151.576325,1406.391290,8142.265362,-842.705048
151.576645,518.144159,6069.688724,459.657299
151.576966,1776.494261,6735.874072,2068.457845
151.577286,2368.659014,8882.471304,76.609550
151.577607,1702.473667,10955.047942,-1225.752797
151.577928,2072.576638,11991.336260,-919.314598
151.578248,1628.453072,10288.862594,1378.971896
151.578569,1850.514855,9474.636058,3907.087040
151.578889,3404.947333,8364.327145,4903.011187
151.579210,2664.741391,7920.203579,1838.629195
151.579531,2368.659014,7920.203579,-229.828649
151.579851,3404.947333,8142.265362,-536.266849
151.580172,4367.215058,6587.832884,0.000000
151.580492,6439.791695,4737.318029,1072.533697
151.580813,8216.285956,5255.462188,1149.143247
151.581134,8142.265362,7846.182985,0.000000
151.581454,7328.038826,10066.800811,-1991.848295
151.581775,7550.100608,9992.780217,-2911.162892
151.582096,7846.182985,6883.915261,-2528.115143
151.582416,9548.656652,6069.688724,0.000000
151.582737,8438.347739,6957.935855,229.828649
151.583057,5329.482782,7550.100608,-1915.238745
151.583378,4589.276840,8290.306550,-3677.258390
151.583699,4737.318029,8882.471304,-1915.238745
151.584019,4293.194464,7476.080014,-76.609550
151.584340,5181.441594,6217.729913,1225.752797
151.584660,7550.100608,8142.265362,1608.800546
151.584981,4737.318029,9992.780217,919.314598
151.585302,740.205942,9030.512492,383.047749
151.585622,1998.556043,8142.265362,459.657299
151.585943,3256.906145,8586.388927,766.095498
151.586263,3330.926739,10584.944971,1455.581446
151.586584,4515.256246,11621.233289,0.000000
151.586905,2368.659014,10288.862594,-2604.724693
151.587225,1110.308913,10288.862594,-2221.676944
151.587546,2220.617826,10732.986159,1838.629195
151.587867,2220.617826,9918.759623,2757.943793
151.588187,3182.885551,8290.306550,1991.848295
151.588508,5181.441594,8438.347739,2068.457845
151.588828,4441.235652,8290.306550,0.000000
151.589149,3478.967927,6883.915261,-919.314598
151.589470,6069.688724,6365.771101,-612.876398
151.589790,7698.141797,7179.997637,-995.924147
151.590111,8068.244768,6735.874072,-1072.533697
151.590431,8216.285956,6291.750507,-2068.457845
151.590752,7772.162391,7698.141797,-2604.724693
151.591073,7105.977043,8808.450710,-1532.190996
151.591393,6439.791695,8956.491898,-689.485948
151.591714,8290.306550,8956.491898,-2451.505594
151.592034,7698.141797,7846.182985,-2298.286494
151.592355,4959.379811,7624.121203,-383.047749
151.592676,4145.153275,7105.977043,612.876398
151.592996,3256.906145,7994.224174,229.828649
151.593317,3256.906145,7846.182985,-76.609550
151.593638,3849.070898,7550.100608,-383.047749
151.593958,4441.235652,7476.080014,689.485948
151.594279,3701.029710,8882.471304,2145.067394
151.594599,2664.741391,9622.677246,2528.115143
151.594920,2664.741391,9030.512492,1072.533697
151.595241,3330.926739,8512.368333,306.438199
151.595561,3256.906145,8808.450710,153.219100
151.595882,3404.947333,7846.182985,536.266849
151.596202,3997.112087,8734.430116,536.266849
151.596523,3478.967927,8882.471304,76.609550
151.596844,4441.235652,8808.450710,-689.485948
151.597164,5107.421000,7698.141797,-995.924147
151.597485,5329.482782,6883.915261,-76.609550
151.597805,6143.709319,7402.059420,919.314598
151.598126,6439.791695,8808.450710,1685.410096
151.598447,6513.812290,8142.265362,153.219100
151.598767,7476.080014,7254.018232,-919.314598
151.599088,7624.121203,6809.894666,-459.657299
151.599409,7624.121203,6365.771101,0.000000
151.599729,6069.688724,6291.750507,-306.438199
151.600050,5551.544565,6957.935855,-1991.848295
151.600370,6587.832884,7328.038826,-2451.505594
151.600691,6291.750507,6439.791695,-1302.362347
151.601012,5847.626942,5995.668130,0.000000
151.601332,6143.709319,7920.203579,1532.190996
151.601653,4441.235652,9844.739029,1915.238745
151.601973,4145.153275,10362.883188,76.609550
151.602294,4441.235652,9474.636058,-612.876398
151.602615,4293.194464,7476.080014,-612.876398
151.602935,3627.009116,6809.894666,536.266849
151.603256,3034.844362,7328.038826,1378.971896
151.603576,3182.885551,8734.430116,459.657299
151.603897,3552.988522,9178.553681,-459.657299
151.604218,3108.864956,8586.388927,-536.266849
151.604538,3256.906145,7105.977043,689.485948
151.604859,4811.338623,7772.162391,1685.410096
151.605180,5625.565159,7624.121203,1685.410096
151.605500,4441.235652,6143.709319,-76.609550
151.605821,5847.626942,5773.606348,-1455.581446
151.606141,7328.038826,6587.832884,-612.876398
151.606462,5921.647536,7254.018232,-536.266849
151.606783,8882.471304,8290.306550,-1455.581446
151.607103,9548.656652,9178.553681,-2451.505594
151.607424,8438.347739,8808.450710,-2911.162892
151.607744,8364.327145,7476.080014,-1608.800546
151.608065,7179.997637,6735.874072,-229.828649
151.608386,6365.771101,6217.729913,-383.047749
151.608706,5995.668130,7772.162391,-995.924147
151.609027,5551.544565,7772.162391,-1991.848295
151.609347,4441.235652,7105.977043,-2451.505594
151.609668,5033.400406,7550.100608,459.657299
151.609989,5181.441594,8956.491898,1685.410096
151.610309,3775.050304,9474.636058,1532.190996
151.610630,2294.638420,8660.409521,0.000000
151.610951,3182.885551,7698.141797,-1072.533697
151.611271,3997.112087,8512.368333,536.266849
151.611592,3923.091493,9474.636058,1532.190996
151.611912,4367.215058,10140.821405,306.438199
151.612233,4515.256246,10362.883188,-1149.143247
151.612554,4145.153275,10362.883188,-995.924147
151.612874,3701.029710,7772.162391,0.000000
151.613195,4515.256246,6365.771101,919.314598
151.613515,4959.379811,7772.162391,2298.286494
151.613836,4145.153275,8438.347739,76.609550
151.614157,4737.318029,7994.224174,-1685.410096
151.614477,6069.688724,7105.977043,-2451.505594
151.614798,7476.080014,6809.894666,-689.485948
151.615118,7328.038826,7254.018232,1149.143247
151.615439,6587.832884,7105.977043,459.657299
151.615760,6291.750507,8142.265362,-1838.629195
151.616080,7476.080014,7846.182985,-1532.190996
151.616401,7846.182985,6883.915261,76.609550
151.616722,7476.080014,6069.688724,306.438199
151.617042,6587.832884,6883.915261,-995.924147
151.617363,5625.565159,7920.203579,-2604.724693
151.617683,5699.585753,7846.182985,-2528.115143
151.618004,5847.626942,5921.647536,-842.705048
151.618325,5403.503377,6143.709319,1072.533697
151.618645,4885.359217,7698.141797,1149.143247
151.618966,3478.967927,8882.471304,76.609550
151.619286,3034.844362,9474.636058,-459.657299
151.619607,4589.276840,9400.615463,919.314598
151.619928,4811.338623,8438.347739,1838.629195
151.620248,4367.215058,8734.430116,1608.800546
151.620569,3256.906145,8068.244768,536.266849
151.620889,3478.967927,8512.368333,-842.705048
151.621210,4737.318029,8068.244768,-536.266849
151.621531,4515.256246,6143.709319,153.219100
151.621851,3701.029710,6069.688724,1149.143247
151.622172,4737.318029,7846.182985,1762.019645
151.622493,3775.050304,8882.471304,612.876398
151.622813,4441.235652,9326.594869,-995.924147
151.623134,7105.977043,8512.368333,-766.095498
151.623454,6883.915261,7550.100608,-1149.143247
151.623775,6365.771101,7328.038826,-919.314598
151.624096,6143.709319,8290.306550,-612.876398
151.624416,5699.585753,8364.327145,-1378.971896
151.624737,6957.935855,7772.162391,-995.924147
151.625057,7920.203579,7179.997637,-842.705048
151.625378,6883.915261,6957.935855,-1149.143247
151.625699,5255.462188,6513.812290,-459.657299
151.626019,5033.400406,7476.080014,229.828649
151.626340,5847.626942,7476.080014,-766.095498
151.626660,5403.503377,6365.771101,-229.828649
151.626981,6957.935855,6957.935855,229.828649
151.627302,5773.606348,8216.285956,0.000000
151.627622,4811.338623,9178.553681,-229.828649
151.627943,5255.462188,9178.553681,-153.219100
151.628264,5625.565159,9104.533087,-153.219100
151.628584,5255.462188,7402.059420,842.705048
151.628905,5921.647536,7328.038826,1378.971896
151.629225,4737.318029,7698.141797,-306.438199
151.629546,2812.782580,9474.636058,-1378.971896
151.629867,2960.823768,8734.430116,-1072.533697
151.630187,3627.009116,7624.121203,-612.876398
151.630508,5551.544565,7550.100608,1378.971896
151.630828,4441.235652,7476.080014,1225.752797
151.631149,4145.153275,9178.553681,-76.609550
151.631470,4293.194464,9770.718434,-536.266849
151.631790,4145.153275,9326.594869,-689.485948
151.632111,5181.441594,8364.327145,-612.876398
151.632431,5773.606348,8512.368333,0.000000
151.632752,5403.503377,8882.471304,459.657299
151.633073,4663.297435,9474.636058,-383.047749
151.633393,4367.215058,8734.430116,-1302.362347
151.633714,4737.318029,6809.894666,-1455.581446
151.634035,4737.318029,6365.771101,-153.219100
151.634355,4885.359217,7846.182985,306.438199
151.634676,4737.318029,9252.574275,0.000000
151.634996,5255.462188,8956.491898,-229.828649
151.635317,6291.750507,7105.977043,-766.095498
151.635638,5403.503377,5255.462188,0.000000
151.635958,5255.462188,6069.688724,153.219100
151.636279,5625.565159,8808.450710,383.047749
151.636599,4959.379811,10584.944971,-1225.752797
151.636920,6217.729913,9548.656652,-1915.238745
151.637241,7846.182985,7254.018232,-919.314598
151.637561,5255.462188,5921.647536,229.828649
151.637882,4367.215058,7105.977043,1149.143247
151.638202,3775.050304,8216.285956,306.438199
151.638523,3256.906145,7698.141797,-919.314598
151.638844,4811.338623,6809.894666,-995.924147
151.639164,5625.565159,7031.956449,689.485948
151.639485,4737.318029,7920.203579,306.438199
151.639806,4293.194464,9548.656652,459.657299
151.640126,4737.318029,10066.800811,-76.609550
151.640447,4959.379811,8364.327145,-1149.143247
151.640767,5403.503377,6143.709319,-536.266849
151.641088,5625.565159,7179.997637,306.438199
151.641409,4959.379811,8882.471304,0.000000
151.641729,4737.318029,9918.759623,229.828649
151.642050,5625.565159,9030.512492,-536.266849
151.642370,5477.523971,7846.182985,-1225.752797
151.642691,4737.318029,6957.935855,842.705048
151.643012,4293.194464,7698.141797,842.705048
151.643332,4145.153275,8142.265362,-229.828649
151.643653,4441.235652,8364.327145,-306.438199
151.643973,5625.565159,8142.265362,-459.657299
151.644294,4959.379811,7994.224174,-459.657299
151.644615,4737.318029,9474.636058,689.485948
151.644935,3997.112087,10807.006753,306.438199
151.645256,3997.112087,10732.986159,-1455.581446
151.645577,4737.318029,8660.409521,-2068.457845
151.645897,4885.359217,7328.038826,-689.485948
151.646218,4145.153275,7624.121203,689.485948
151.646538,3256.906145,8438.347739,1302.362347
151.646859,3404.947333,9178.553681,0.000000
151.647180,4811.338623,8364.327145,-1302.362347
151.647500,5773.606348,7920.203579,-919.314598
151.647821,6291.750507,7105.977043,612.876398
151.648141,5329.482782,7031.956449,536.266849
151.648462,4811.338623,7920.203579,536.266849
151.648783,5255.462188,9104.533087,-536.266849
151.649103,5107.421000,8142.265362,-1762.019645
151.649424,5995.668130,6735.874072,-689.485948
151.649744,7105.977043,7328.038826,536.266849
151.650065,5107.421000,8808.450710,-153.219100
151.650386,4441.235652,8438.347739,-689.485948
151.650706,5403.503377,8956.491898,-459.657299
151.651027,5699.585753,7402.059420,0.000000
151.651348,5181.441594,6513.812290,919.314598
151.651668,5181.441594,6957.935855,459.657299
151.651989,3849.070898,8290.306550,-1302.362347
151.652309,3775.050304,9474.636058,-995.924147
151.652630,4367.215058,9474.636058,536.266849
151.652951,4959.379811,8290.306550,153.219100
151.653271,4885.359217,7994.224174,1608.800546
151.653592,2812.782580,9030.512492,0.000000
151.653912,2072.576638,10288.862594,-1532.190996
151.654233,2738.761985,10214.842000,-842.705048
151.654554,3775.050304,9030.512492,-383.047749
151.654874,4071.132681,7624.121203,842.705048
151.655195,4071.132681,8068.244768,2298.286494
151.655515,2960.823768,9770.718434,1378.971896
151.655836,2072.576638,10140.821405,-842.705048
151.656157,3108.864956,8808.450710,-536.266849
151.656477,5107.421000,8438.347739,-383.047749
151.656798,5551.544565,8808.450710,1072.533697
151.657119,4737.318029,10436.903782,229.828649
151.657439,2886.803174,9992.780217,-1225.752797
151.657760,3701.029710,8364.327145,-1685.410096
151.658080,4367.215058,6957.935855,536.266849
151.658401,4441.235652,6587.832884,1685.410096
151.658722,4441.235652,7624.121203,1378.971896
151.659042,4293.194464,9474.636058,-766.095498
151.659363,5255.462188,9326.594869,-383.047749
151.659683,5847.626942,7254.018232,-689.485948
151.660004,6143.709319,5699.585753,383.047749
151.660325,5847.626942,6957.935855,1149.143247
151.660645,4737.318029,8142.265362,153.219100
151.660966,3923.091493,7179.997637,-689.485948
151.661286,7105.977043,6439.791695,-995.924147
151.661607,7550.100608,5699.585753,-229.828649
151.661928,6439.791695,6439.791695,-536.266849
151.662248,6587.832884,7624.121203,-919.314598
151.662569,6069.688724,8586.388927,-1915.238745
151.662890,5551.544565,7624.121203,-1225.752797
151.663210,7105.977043,6587.832884,0.000000
151.663531,6069.688724,5921.647536,-76.609550
151.663851,5033.400406,7179.997637,-229.828649
151.664172,5551.544565,9622.677246,612.876398
151.664493,4515.256246,9918.759623,-1378.971896
151.664813,5551.544565,9030.512492,-1225.752797
151.665134,6291.750507,8290.306550,-153.219100
151.665454,5033.400406,8364.327145,612.876398
151.665775,4145.153275,8068.244768,1685.410096
151.666096,4515.256246,8364.327145,766.095498
151.666416,3849.070898,7772.162391,-689.485948
151.666737,3627.009116,6883.915261,0.000000
151.667057,5107.421000,7254.018232,995.924147
151.667378,4885.359217,8142.265362,919.314598
151.667699,4885.359217,9400.615463,-306.438199
151.668019,6143.709319,9844.739029,-919.314598
151.668340,5551.544565,8734.430116,-995.924147
151.668660,6143.709319,7920.203579,383.047749
151.668981,6217.729913,8290.306550,1072.533697
151.669302,4811.338623,8660.409521,-306.438199
151.669622,4811.338623,9326.594869,-1225.752797
151.669943,5033.400406,8882.471304,-1838.629195
151.670264,4589.276840,8216.285956,-1991.848295
151.670584,4959.379811,7105.977043,-612.876398
151.670905,4811.338623,7254.018232,153.219100
151.671225,4441.235652,8660.409521,-536.266849
151.671546,3923.091493,9474.636058,-612.876398
151.671867,4885.359217,9474.636058,-536.266849
151.672187,4737.318029,7994.224174,-383.047749
151.672508,4071.132681,8364.327145,459.657299
151.672828,4145.153275,10140.821405,612.876398
151.673149,3552.988522,10732.986159,-995.924147
151.673470,2812.782580,8882.471304,-1915.238745
151.673790,4515.256246,7254.018232,-306.438199
151.674111,3997.112087,6735.874072,1302.362347
151.674431,2960.823768,7994.224174,1072.533697
151.674752,3627.009116,10807.006753,766.095498
151.675073,3923.091493,10881.027347,76.609550
151.675393,4589.276840,8216.285956,995.924147
151.675714,5255.462188,6957.935855,2451.505594
151.676035,3997.112087,6513.812290,2068.457845
151.676355,2960.823768,8142.265362,306.438199
151.676676,4071.132681,10066.800811,-383.047749
151.676996,4515.256246,8734.430116,-1455.581446
151.677317,5255.462188,6439.791695,153.219100
151.677638,5255.462188,5773.606348,1149.143247
151.677958,4811.338623,8142.265362,919.314598
151.678279,4515.256246,10436.903782,76.609550
151.678599,4293.194464,9770.718434,-1685.410096
151.678920,5625.565159,7254.018232,-1915.238745
151.679241,5847.626942,5625.565159,0.000000
151.679561,4885.359217,6661.853478,919.314598
151.679882,4885.359217,7920.203579,229.828649
151.680203,3849.070898,8882.471304,-2221.676944
151.680523,4737.318029,7624.121203,-2451.505594
151.680844,6069.688724,6587.832884,-842.705048
151.681164,6291.750507,7105.977043,1302.362347
151.681485,5181.441594,9178.553681,1608.800546
151.681806,5551.544565,10066.800811,766.095498
151.682126,5551.544565,8216.285956,-1149.143247
151.682447,5699.585753,5699.585753,-306.438199
151.682767,6291.750507,5107.421000,1072.533697
151.683088,6735.874072,7031.956449,1991.848295
151.683409,5403.503377,7624.121203,229.828649
151.683729,5773.606348,6365.771101,-1532.190996
151.684050,7402.059420,6217.729913,-995.924147
151.684371,6957.935855,5773.606348,1378.971896
151.684691,6661.853478,7402.059420,1915.238745
151.685012,6587.832884,8956.491898,229.828649
151.685332,6735.874072,8808.450710,-1608.800546
151.685653,7105.977043,7105.977043,-1991.848295
151.685974,6957.935855,6291.750507,-689.485948
151.686294,6587.832884,6365.771101,306.438199
151.686615,5551.544565,7994.224174,229.828649
151.686935,4885.359217,8956.491898,-2145.067394
151.687256,5181.441594,8364.327145,-3217.601092
151.687577,5551.544565,7254.018232,-1378.971896
151.687897,5773.606348,6883.915261,612.876398
151.688218,5699.585753,8586.388927,1915.238745
151.688539,4293.194464,9252.574275,1225.752797
151.688859,3775.050304,8586.388927,-1532.190996
151.689180,4811.338623,8512.368333,-2068.457845
151.689500,5033.400406,8586.388927,-459.657299
151.689821,4811.338623,9326.594869,842.705048
151.690142,4885.359217,10066.800811,612.876398
151.690462,4293.194464,10436.903782,-1225.752797
151.690783,4441.235652,9178.553681,-1072.533697
151.691103,4367.215058,7772.162391,76.609550
151.691424,4145.153275,7328.038826,1072.533697
151.691745,4219.173869,8142.265362,1149.143247
151.692065,4071.132681,9400.615463,76.609550
151.692386,4737.318029,9548.656652,-1149.143247
151.692707,5329.482782,8660.409521,-229.828649
151.693027,4737.318029,7476.080014,1378.971896
151.693348,4737.318029,6883.915261,1149.143247
151.693668,4441.235652,7624.121203,0.000000
151.693989,4589.276840,8512.368333,-1149.143247
151.694310,5107.421000,7846.182985,-1991.848295
151.694630,6143.709319,7328.038826,-766.095498
151.694951,6069.688724,7328.038826,0.000000
151.695271,6365.771101,8364.327145,-229.828649
151.695592,5847.626942,9104.533087,-1225.752797
151.695913,5107.421000,7476.080014,-2451.505594
151.696233,5255.462188,5773.606348,-995.924147
151.696554,6513.812290,6217.729913,1455.581446
151.696875,5033.400406,7698.141797,1225.752797
151.697195,5181.441594,7994.224174,-153.219100
151.697516,5847.626942,8216.285956,-2068.457845
151.697836,5551.544565,7624.121203,-1455.581446
151.698157,5403.503377,6809.894666,842.705048
151.698478,5699.585753,6661.853478,2374.896044
151.698798,5329.482782,7624.121203,2145.067394
151.699119,4737.318029,9622.677246,306.438199
151.699439,4959.379811,9178.553681,-1378.971896
151.699760,4811.338623,7402.059420,-1378.971896
151.700081,4885.359217,7105.977043,995.924147
151.700401,4737.318029,8216.285956,2528.115143
151.700722,4219.173869,8438.347739,536.266849
151.701043,3182.885551,7624.121203,-919.314598
151.701363,4515.256246,7179.997637,-1302.362347
151.701684,5255.462188,6883.915261,383.047749
151.702004,5625.565159,7550.100608,842.705048
151.702325,5921.647536,8586.388927,0.000000
151.702646,6365.771101,9992.780217,-995.924147
151.702966,6217.729913,9400.615463,-612.876398
151.703287,6439.791695,7624.121203,0.000000
151.703608,6143.709319,5995.668130,76.609550
151.703928,5403.503377,6661.853478,-1149.143247
151.704249,4737.318029,8068.244768,-2374.896044
151.704569,4737.318029,8734.430116,-2604.724693
151.704890,5847.626942,7920.203579,-1532.190996
151.705211,6587.832884,7179.997637,1455.581446
151.705531,6513.812290,7402.059420,1762.019645
151.705852,4663.297435,8734.430116,536.266849
151.706172,3330.926739,9474.636058,-1225.752797
151.706493,4737.318029,8882.471304,-1225.752797
151.706814,6217.729913,8068.244768,995.924147
151.707134,5625.565159,6809.894666,1455.581446
151.707455,5107.421000,8216.285956,0.000000
151.707776,3997.112087,9474.636058,-1762.019645
151.708096,3404.947333,9326.594869,-2068.457845
151.708417,3256.906145,7550.100608,-536.266849
151.708737,4737.318029,6439.791695,1225.752797
151.709058,5403.503377,7031.956449,2298.286494
151.709379,4811.338623,8216.285956,1225.752797
151.709699,3775.050304,8956.491898,-1378.971896
151.710020,5033.400406,8512.368333,-2298.286494
151.710340,5995.668130,7772.162391,-1302.362347
151.710661,5773.606348,7254.018232,0.000000
151.710982,6661.853478,7402.059420,-459.657299
151.711302,7105.977043,8438.347739,-1991.848295
151.711623,6069.688724,9548.656652,-1838.629195
151.711944,5181.441594,8142.265362,-1302.362347
151.712264,5625.565159,7105.977043,-842.705048
151.712585,6291.750507,7476.080014,76.609550
151.712905,5625.565159,8956.491898,919.314598
151.713226,5477.523971,8660.409521,-153.219100
151.713547,5403.503377,7624.121203,-919.314598
151.713867,4663.297435,6143.709319,-306.438199
151.714188,5625.565159,7031.956449,1762.019645
151.714508,5181.441594,8808.450710,2145.067394
151.714829,3775.050304,9326.594869,153.219100
151.715150,4293.194464,9030.512492,-536.266849
151.715470,5847.626942,8290.306550,229.828649
151.715791,4885.359217,7772.162391,1762.019645
151.716112,4293.194464,7328.038826,766.095498
151.716432,4219.173869,8808.450710,-459.657299
151.716753,3849.070898,10214.842000,-1608.800546
151.717073,3849.070898,8142.265362,-306.438199
151.717394,5625.565159,5847.626942,689.485948
151.717715,5551.544565,5625.565159,1455.581446
151.718035,4589.276840,7105.977043,459.657299
151.718356,4367.215058,8364.327145,-1072.533697
151.718676,5551.544565,7105.977043,-1915.238745
151.718997,7031.956449,6513.812290,-766.095498
151.719318,7402.059420,7105.977043,689.485948
151.719638,6217.729913,8142.265362,-459.657299
151.719959,4959.379811,8586.388927,-1455.581446
151.720280,6069.688724,8512.368333,-1378.971896
151.720600,6735.874072,7179.997637,-383.047749
151.720921,6291.750507,5699.585753,0.000000
151.721241,5329.482782,6143.709319,-919.314598
151.721562,4663.297435,8956.491898,-1225.752797
151.721883,5477.523971,9992.780217,536.266849
151.722203,4885.359217,7846.182985,-689.485948
151.722524,5403.503377,5699.585753,229.828649
151.722844,5181.441594,6439.791695,1302.362347
151.723165,2812.782580,9104.533087,1455.581446
151.723486,1924.535449,9770.718434,459.657299
151.723806,3775.050304,9992.780217,-842.705048
151.724127,4293.194464,9178.553681,-153.219100
151.724448,4515.256246,8586.388927,383.047749
151.724768,3256.906145,9104.533087,383.047749
151.725089,2294.638420,11177.109724,-306.438199
151.725409,1998.556043,10214.842000,-306.438199
151.725730,3775.050304,8216.285956,-995.924147
151.726051,4441.235652,6661.853478,0.000000
151.726371,3701.029710,7920.203579,612.876398
151.726692,3701.029710,10288.862594,-383.047749
151.727012,3775.050304,11325.150913,-2068.457845
151.727333,4293.194464,9252.574275,-1838.629195
151.727654,6661.853478,7550.100608,-76.609550
151.727974,6883.915261,7550.100608,1072.533697
151.728295,5107.421000,9030.512492,153.219100
151.728616,4071.132681,9474.636058,-1455.581446
151.728936,4959.379811,8808.450710,-2604.724693
151.729257,5995.668130,6735.874072,-1532.190996
151.729577,7179.997637,6365.771101,919.314598
151.729898,6291.750507,6439.791695,1072.533697
151.730219,5329.482782,8290.306550,-153.219100
151.730539,4959.379811,9178.553681,-1378.971896
151.730860,5255.462188,7994.224174,-995.924147
151.731180,6735.874072,6661.853478,-229.828649
151.731501,6365.771101,6587.832884,1378.971896
151.731822,5699.585753,8512.368333,1302.362347
151.732142,4589.276840,9178.553681,-306.438199
151.732463,3997.112087,8660.409521,-1608.800546
151.732784,4589.276840,7994.224174,-1838.629195
151.733104,5329.482782,7328.038826,-306.438199
151.733425,5329.482782,7994.224174,919.314598
151.733745,4145.153275,9104.533087,76.609550
151.734066,3923.091493,8882.471304,-1149.143247
151.734387,4219.173869,7402.059420,-1302.362347
151.734707,4515.256246,6365.771101,153.219100
151.735028,5181.441594,7031.956449,1991.848295
151.735348,5625.565159,8586.388927,2145.067394
151.735669,5329.482782,8512.368333,0.000000
151.735990,5477.523971,6883.915261,-2374.896044
151.736310,5625.565159,5921.647536,-689.485948
151.736631,6217.729913,7402.059420,612.876398
151.736952,5773.606348,9030.512492,842.705048
151.737272,5033.400406,10658.965565,-306.438199
151.737593,6291.750507,9622.677246,-1302.362347
151.737913,4737.318029,7179.997637,153.219100
151.738234,4737.318029,5625.565159,1685.410096
151.738555,5329.482782,6365.771101,1762.019645
151.738875,4441.235652,8290.306550,-229.828649
151.739196,4589.276840,9622.677246,-2145.067394
151.739516,4959.379811,10362.883188,-1838.629195
151.739837,4145.153275,8808.450710,-612.876398
151.740158,3404.947333,6809.894666,1685.410096
151.740478,3775.050304,8438.347739,2987.772442
151.740799,2812.782580,9918.759623,612.876398
151.741120,2294.638420,9844.739029,-1532.190996
151.741440,2960.823768,8512.368333,-2298.286494
151.741761,4737.318029,9178.553681,-612.876398
151.742081,4515.256246,9770.718434,2374.896044
151.742402,3182.885551,9844.739029,1072.533697
151.742723,4071.132681,8808.450710,-1302.362347
151.743043,4145.153275,7846.182985,-1302.362347
151.743364,4145.153275,6365.771101,842.705048
151.743684,5181.441594,6143.709319,1455.581446
151.744005,5329.482782,7624.121203,459.657299
151.744326,5551.544565,8364.327145,-995.924147
151.744646,6883.915261,8364.327145,-1532.190996
151.744967,7105.977043,7772.162391,-919.314598
151.745288,6883.915261,7698.141797,612.876398
151.745608,6069.688724,7846.182985,842.705048
151.745929,5847.626942,7846.182985,-995.924147
151.746249,5477.523971,7254.018232,-1378.971896
151.746570,5847.626942,6883.915261,-689.485948
151.746891,5551.544565,6809.894666,-306.438199
151.747211,4589.276840,6735.874072,0.000000
151.747532,3775.050304,8142.265362,-842.705048
151.747852,4663.297435,9696.697840,-1225.752797
151.748173,4663.297435,9326.594869,-766.095498
151.748494,4367.215058,8142.265362,-383.047749
151.748814,3478.967927,8068.244768,536.266849
151.749135,3330.926739,8808.450710,76.609550
151.749456,3256.906145,9326.594869,-383.047749
151.749776,3775.050304,8956.491898,-689.485948
151.750097,4885.359217,9104.533087,-766.095498
151.750417,4811.338623,8142.265362,536.266849
151.750738,4293.194464,8216.285956,919.314598
151.751059,4885.359217,9326.594869,0.000000
151.751379,5255.462188,9104.533087,-919.314598
151.751700,5403.503377,7550.100608,-1378.971896
151.752020,6291.750507,6217.729913,153.219100
151.752341,6365.771101,7476.080014,1455.581446
151.752662,5477.523971,9030.512492,1378.971896
151.752982,4959.379811,9548.656652,-76.609550
151.753303,6291.750507,9252.574275,-1378.971896
151.753624,6291.750507,7402.059420,-612.876398
151.753944,6143.709319,6587.832884,459.657299
151.754265,5847.626942,7254.018232,0.000000
151.754585,4441.235652,9104.533087,-459.657299
151.754906,4367.215058,8882.471304,-842.705048
151.755227,4959.379811,8512.368333,-383.047749
151.755547,4737.318029,7772.162391,612.876398
151.755868,4959.379811,7105.977043,1532.190996
151.756188,3849.070898,7994.224174,459.657299
151.756509,2368.659014,8512.368333,-1072.533697
151.756830,3034.844362,9326.594869,-1225.752797
151.757150,4219.173869,8586.388927,-383.047749
151.757471,4145.153275,7846.182985,536.266849
151.757792,4885.359217,9030.512492,1532.190996
151.758112,3034.844362,9474.636058,459.657299
151.758433,2590.720797,9474.636058,-689.485948
151.758753,4737.318029,8142.265362,306.438199
151.759074,4885.359217,6661.853478,1532.190996
151.759395,5625.565159,6587.832884,1225.752797
151.759715,6365.771101,8512.368333,689.485948
151.760036,3997.112087,9252.574275,-1532.190996
151.760356,3997.112087,7698.141797,-1838.629195
151.760677,6365.771101,6365.771101,1302.362347
151.760998,6883.915261,5477.523971,2145.067394
151.761318,5995.668130,5995.668130,1378.971896
151.761639,5107.421000,7994.224174,-1378.971896
151.761960,4959.379811,9770.718434,-3217.601092
151.762280,5329.482782,8512.368333,-1072.533697
151.762601,6809.894666,6439.791695,842.705048
151.762921,7105.977043,6291.750507,612.876398
151.763242,5773.606348,7772.162391,153.219100
151.763563,4219.173869,8734.430116,-766.095498
151.763883,5033.400406,7550.100608,-1608.800546
151.764204,4959.379811,5477.523971,-383.047749
151.764524,6513.812290,5773.606348,1455.581446
151.764845,6217.729913,7772.162391,995.924147
151.765166,5329.482782,9992.780217,383.047749
151.765486,4811.338623,10362.883188,-1149.143247
151.765807,5107.421000,8142.265362,-1225.752797
151.766128,5625.565159,5995.668130,-306.438199
151.766448,5403.503377,6439.791695,1685.410096
151.766769,4515.256246,8290.306550,1225.752797
151.767089,4515.256246,9696.697840,-612.876398
151.767410,4885.359217,9918.759623,-1378.971896
151.767731,5255.462188,7698.141797,-842.705048
151.768051,5181.441594,6439.791695,1532.190996
151.768372,5551.544565,8290.306550,2221.676944
151.768692,4145.153275,10214.842000,995.924147
151.769013,3478.967927,9474.636058,-919.314598
151.769334,5033.400406,7476.080014,-766.095498
151.769654,5477.523971,7179.997637,0.000000
151.769975,4515.256246,7994.224174,919.314598
151.770296,4589.276840,9622.677246,-306.438199
151.770616,4737.318029,10140.821405,-1991.848295
151.770937,4145.153275,8808.450710,-1532.190996
151.771257,4885.359217,7402.059420,842.705048
151.771578,5773.606348,6439.791695,1072.533697
151.771899,4959.379811,8068.244768,0.000000
151.772219,4737.318029,10066.800811,-842.705048
151.772540,4885.359217,9474.636058,-1685.410096
151.772861,5403.503377,8142.265362,-1532.190996
151.773181,6365.771101,7179.997637,919.314598
151.773502,5921.647536,7254.018232,1455.581446
151.773822,4959.379811,8068.244768,-306.438199
151.774143,4219.173869,9104.533087,-1838.629195
151.774464,3923.091493,8586.388927,-1685.410096
151.774784,4663.297435,7179.997637,459.657299
151.775105,6291.750507,6883.915261,1762.019645
151.775425,5551.544565,7698.141797,1225.752797
151.775747,4589.276840,8660.409521,-1072.533697
151.776068,4589.276840,8586.388927,-995.924147
151.776388,5551.544565,7328.038826,229.828649
151.776709,5033.400406,5181.441594,1378.971896
151.777030,5181.441594,5995.668130,1455.581446
151.777350,5329.482782,8290.306550,0.000000
151.777671,4367.215058,9474.636058,-2451.505594
151.777992,4071.132681,8216.285956,-1991.848295
151.778312,6587.832884,6587.832884,-383.047749
151.778633,7328.038826,6291.750507,995.924147
151.778954,5329.482782,7402.059420,0.000000
151.779274,4515.256246,8734.430116,-2451.505594
151.779595,5625.565159,8808.450710,-2374.896044
151.779916,5995.668130,7254.018232,0.000000
151.780236,6513.812290,6513.812290,1532.190996
151.780557,6439.791695,6661.853478,1072.533697
151.780878,4737.318029,8142.265362,-1532.190996
151.781198,4145.153275,8660.409521,-1302.362347
151.781519,5107.421000,7105.977043,-766.095498
151.781840,6661.853478,6217.729913,536.266849
151.782161,5995.668130,6587.832884,995.924147
151.782481,4959.379811,9400.615463,0.000000
151.782802,4737.318029,11399.171507,-689.485948
151.783123,3627.009116,9696.697840,-689.485948
151.783443,5255.462188,7550.100608,-536.266849
151.783764,5181.441594,6735.874072,1072.533697
151.784085,4515.256246,8216.285956,1302.362347
151.784405,3330.926739,9326.594869,0.000000
151.784726,3849.070898,9104.533087,-1455.581446
151.785047,4441.235652,7846.182985,-1455.581446
151.785367,4737.318029,6735.874072,536.266849
151.785688,4959.379811,7772.162391,995.924147
151.786009,4589.276840,10214.842000,383.047749
151.786329,4145.153275,10881.027347,-919.314598
151.786650,5403.503377,8364.327145,-1455.581446
151.786971,6143.709319,6365.771101,-383.047749
151.787291,5255.462188,6513.812290,459.657299
151.787612,5477.523971,8216.285956,383.047749
151.787933,5477.523971,9178.553681,-2068.457845
151.788253,5477.523971,8068.244768,-3064.381992
151.788574,6439.791695,6809.894666,-919.314598
151.788895,6587.832884,6143.709319,689.485948
151.789215,6069.688724,7105.977043,1072.533697
151.789536,5329.482782,8956.491898,0.000000
151.789857,5477.523971,9326.594869,-1608.800546
151.790177,6513.812290,7994.224174,-995.924147
151.790498,5921.647536,7105.977043,766.095498
151.790819,5033.400406,6883.915261,995.924147
151.791140,4219.173869,7698.141797,612.876398
151.791460,4293.194464,8660.409521,0.000000
151.791781,3997.112087,8216.285956,-1072.533697
151.792102,3997.112087,6809.894666,-383.047749
151.792422,4367.215058,5847.626942,229.828649
151.792743,4589.276840,7550.100608,842.705048
151.793064,3849.070898,9918.759623,766.095498
151.793384,4663.297435,10955.047942,-459.657299
151.793705,4441.235652,9400.615463,-919.314598
151.794026,4515.256246,8142.265362,0.000000
151.794346,4441.235652,8142.265362,1302.362347
151.794667,3627.009116,9178.553681,229.828649
151.794988,3404.947333,9474.636058,-1685.410096
151.795308,4515.256246,9030.512492,-1455.581446
151.795629,4737.318029,6809.894666,229.828649
151.795950,4885.359217,5995.668130,1225.752797
151.796270,4589.276840,7105.977043,1149.143247
151.796591,4663.297435,9252.574275,-229.828649
151.796912,5181.441594,8586.388927,-2451.505594
151.797232,5773.606348,6217.729913,-1149.143247
151.797553,7105.977043,5477.523971,919.314598
151.797874,6957.935855,6809.894666,2528.115143
151.798194,4737.318029,8956.491898,-306.438199
151.798515,5255.462188,9252.574275,-2528.115143
151.798836,5995.668130,7624.121203,-2145.067394
151.799156,7031.956449,5773.606348,-383.047749
151.799477,6883.915261,6735.874072,995.924147
151.799798,5255.462188,8586.388927,76.609550
151.800119,4293.194464,9178.553681,-1915.238745
151.800439,5625.565159,8290.306550,-1608.800546
151.800760,5773.606348,6069.688724,-612.876398
151.801081,5403.503377,5477.523971,153.219100
151.801401,4959.379811,7550.100608,536.266849
151.801722,4663.297435,10807.006753,-306.438199
151.802043,3923.091493,10288.862594,-1378.971896
151.802363,4737.318029,7254.018232,-1608.800546
151.802684,6735.874072,6957.935855,0.000000
151.803005,4737.318029,8808.450710,1302.362347
151.803325,2368.659014,10214.842000,536.266849
151.803646,3997.112087,10436.903782,-1838.629195
151.803967,5181.441594,8586.388927,-1532.190996
151.804287,5033.400406,6883.915261,995.924147
151.804608,5847.626942,6809.894666,2911.162892
151.804929,4663.297435,9104.533087,1149.143247
151.805249,2294.638420,10658.965565,-1838.629195
151.805570,3701.029710,9178.553681,-3064.381992
151.805891,5625.565159,6735.874072,-1455.581446
151.806211,6365.771101,5847.626942,2298.286494
151.806532,5551.544565,8290.306550,2987.772442
151.806853,3997.112087,9474.636058,-766.095498
151.807173,3627.009116,9548.656652,-3600.648841
151.807494,5181.441594,8438.347739,-1838.629195
151.807815,6957.935855,7402.059420,689.485948
151.808135,7402.059420,6883.915261,842.705048
151.808456,5625.565159,8068.244768,-995.924147
151.808777,4441.235652,9178.553681,-2451.505594
151.809098,4885.359217,8290.306550,-1915.238745
151.809418,5477.523971,5995.668130,306.438199
151.809739,5255.462188,6143.709319,459.657299
151.810060,5403.503377,8142.265362,0.000000
151.810380,4589.276840,10436.903782,-1225.752797
151.810701,3997.112087,9770.718434,-2068.457845
151.811022,4589.276840,8290.306550,-306.438199
151.811342,4811.338623,7105.977043,1532.190996
151.811663,4515.256246,7994.224174,2911.162892
151.811984,2664.741391,9326.594869,1685.410096
151.812304,2368.659014,9992.780217,-995.924147
151.812625,3701.029710,9030.512492,-1302.362347
151.812946,3627.009116,7105.977043,919.314598
151.813266,3627.009116,6513.812290,1991.848295
151.813587,4737.318029,7994.224174,1991.848295
151.813908,3256.906145,9104.533087,-383.047749
151.814228,2516.700203,8956.491898,-1608.800546
151.814549,4367.215058,8290.306550,-689.485948
151.814870,5107.421000,7402.059420,919.314598
151.815190,5329.482782,7994.224174,2068.457845
151.815511,5625.565159,8438.347739,0.000000
151.815832,5403.503377,8586.388927,-2145.067394
151.816152,4737.318029,8290.306550,-2451.505594
151.816473,5625.565159,7328.038826,-689.485948
151.816794,7328.038826,7105.977043,-76.609550
151.817114,6883.915261,7402.059420,0.000000
151.817435,4737.318029,7772.162391,-1302.362347
151.817756,4885.359217,8290.306550,-1608.800546
151.818077,4885.359217,8142.265362,0.000000
151.818397,4663.297435,6957.935855,1225.752797
151.818718,6587.832884,6291.750507,995.924147
151.819039,6661.853478,8290.306550,-76.609550
151.819359,4959.379811,9918.759623,-1608.800546
151.819680,4071.132681,9252.574275,-995.924147
151.820001,4959.379811,7254.018232,842.705048
151.820321,5255.462188,7031.956449,1838.629195
151.820642,5033.400406,8142.265362,2528.115143
151.820963,3775.050304,8734.430116,-459.657299
151.821283,3108.864956,9696.697840,-1991.848295
151.821604,3997.112087,9178.553681,0.000000
151.821925,5181.441594,8660.409521,1838.629195
151.822245,5995.668130,7994.224174,1608.800546
151.822566,5033.400406,8364.327145,-229.828649
151.822887,4589.276840,8956.491898,-1302.362347
151.823207,3627.009116,7846.182985,-766.095498
151.823528,4515.256246,6143.709319,229.828649
151.823849,5921.647536,6439.791695,842.705048
151.824169,5403.503377,7179.997637,-76.609550
151.824490,5329.482782,8808.450710,-1378.971896
151.824811,5921.647536,9178.553681,-1838.629195
151.825131,4885.359217,7994.224174,-1378.971896
151.825452,5107.421000,7105.977043,-383.047749
151.825773,5995.668130,6957.935855,0.000000
151.826093,5847.626942,9030.512492,-919.314598
151.826414,5255.462188,9844.739029,-1072.533697
151.826735,4737.318029,8512.368333,-1149.143247
151.827055,4811.338623,7179.997637,0.000000
151.827376,4441.235652,7105.977043,689.485948
151.827697,4367.215058,8808.450710,459.657299
151.828018,4441.235652,8956.491898,-612.876398
151.828338,4293.194464,9104.533087,-919.314598
151.828659,4071.132681,7550.100608,689.485948
151.828980,3330.926739,7920.203579,1608.800546
151.829300,3923.091493,8142.265362,1915.238745
151.829621,3627.009116,9400.615463,153.219100
151.829942,3997.112087,9326.594869,-1072.533697
151.830262,5403.503377,8734.430116,-306.438199
151.830583,4293.194464,7550.100608,76.609550
151.830904,4441.235652,7476.080014,0.000000
151.831224,5773.606348,9104.533087,0.000000
151.831545,4515.256246,8882.471304,-1072.533697
151.831866,4441.235652,7772.162391,-1149.143247
151.832186,5773.606348,6587.832884,0.000000
151.832507,5403.503377,7031.956449,0.000000
151.832828,5995.668130,8586.388927,689.485948
151.833148,5329.482782,9992.780217,-689.485948
151.833469,5255.462188,8660.409521,-3064.381992
151.833790,6587.832884,6513.812290,-1455.581446
151.834110,5921.647536,5329.482782,919.314598
151.834431,5995.668130,6217.729913,1072.533697
151.834752,5625.565159,8512.368333,383.047749
151.835072,5181.441594,9474.636058,-2374.896044
151.835393,5181.441594,8882.471304,-1838.629195
151.835714,6069.688724,6735.874072,229.828649
151.836034,6143.709319,5995.668130,1302.362347
151.836355,5033.400406,7179.997637,1072.533697
151.836676,3701.029710,8882.471304,-689.485948
151.836997,4219.173869,9474.636058,-1302.362347
151.837317,4737.318029,7698.141797,-536.266849
151.837638,5477.523971,7920.203579,1072.533697
151.837959,3997.112087,7994.224174,919.314598
151.838279,2886.803174,8512.368333,-995.924147
151.838600,3923.091493,9622.677246,-1072.533697
151.838921,4293.194464,8216.285956,-229.828649
151.839241,5551.544565,7254.018232,76.609550
151.839562,5699.585753,7772.162391,689.485948
151.839883,3182.885551,9622.677246,0.000000
151.840203,3182.885551,11103.089130,-536.266849
151.840524,4811.338623,8882.471304,-383.047749
151.840845,5921.647536,6365.771101,0.000000
151.841165,5773.606348,5699.585753,1685.410096
151.841486,5551.544565,7402.059420,1225.752797
151.841807,4367.215058,8142.265362,-1072.533697
151.842127,4293.194464,8290.306550,-2221.676944
151.842448,6291.750507,7698.141797,-153.219100
151.842769,8364.327145,7698.141797,1225.752797
151.843089,6365.771101,7179.997637,995.924147
151.843410,5773.606348,8068.244768,-842.705048
151.843731,5921.647536,8586.388927,-1991.848295
151.844051,5107.421000,7624.121203,-1072.533697
151.844372,5699.585753,5995.668130,306.438199
151.844693,6513.812290,6735.874072,842.705048
151.845013,5995.668130,8068.244768,229.828649
151.845334,4737.318029,9770.718434,-842.705048
151.845655,4589.276840,9474.636058,-1608.800546
151.845976,4071.132681,7846.182985,-1302.362347
151.846296,4663.297435,7105.977043,1762.019645
151.846617,4589.276840,8068.244768,3140.991542
151.846938,2960.823768,9252.574275,1225.752797
151.847258,2368.659014,9918.759623,-536.266849
151.847579,3256.906145,8734.430116,-2068.457845
151.847900,4071.132681,7994.224174,-153.219100
151.848220,4441.235652,7105.977043,2145.067394
151.848541,3923.091493,8364.327145,995.924147
151.848862,4071.132681,9400.615463,0.000000
151.849182,4145.153275,8364.327145,0.000000
151.849503,4737.318029,6587.832884,766.095498
151.849824,5773.606348,5477.523971,1762.019645
151.850144,6957.935855,7328.038826,919.314598
151.850465,5477.523971,9474.636058,-1455.581446
151.850786,5033.400406,8734.430116,-3064.381992
151.851106,6957.935855,6883.915261,-2451.505594
151.851427,7328.038826,5699.585753,229.828649
151.851748,7031.956449,5773.606348,1072.533697
151.852068,6217.729913,7698.141797,-536.266849
151.852389,5181.441594,8512.368333,-2528.115143
151.852710,5921.647536,8882.471304,-1608.800546
151.853030,6883.915261,7105.977043,0.000000
151.853351,7476.080014,5921.647536,383.047749
151.853672,6143.709319,7105.977043,-153.219100
151.853992,4663.297435,8512.368333,-1378.971896
151.854313,4737.318029,8734.430116,-995.924147
151.854634,5033.400406,7328.038826,-1072.533697
151.854955,5403.503377,6587.832884,229.828649
151.855275,5403.503377,8364.327145,842.705048
151.855596,3923.091493,10658.965565,0.000000
151.855917,3182.885551,10807.006753,-1302.362347
151.856237,4145.153275,8438.347739,-995.924147
151.856558,4737.318029,6513.812290,383.047749
151.856879,4367.215058,6587.832884,1532.190996
151.857199,4071.132681,8438.347739,766.095498
151.857520,3108.864956,10881.027347,-689.485948
151.857841,4071.132681,10436.903782,-1302.362347
151.858161,4737.318029,7846.182985,-536.266849
151.858482,6587.832884,6291.750507,995.924147
151.858803,6217.729913,7920.203579,1608.800546
151.859123,4737.318029,10288.862594,-306.438199
151.859444,4663.297435,9918.759623,-2221.676944
151.859765,5921.647536,8290.306550,-2068.457845
151.860085,7031.956449,7698.141797,459.657299
151.860406,6883.915261,7698.141797,1608.800546
151.860727,5329.482782,8290.306550,-229.828649
151.861047,4811.338623,8586.388927,-2757.943793
151.861368,4737.318029,7920.203579,-2374.896044
151.861689,6069.688724,6587.832884,-76.609550
151.862009,7624.121203,5921.647536,1225.752797
151.862330,5625.565159,7402.059420,842.705048
151.862651,3775.050304,9548.656652,-612.876398
151.862971,4441.235652,10288.862594,-1072.533697
151.863292,4367.215058,8364.327145,-383.047749
151.863613,5181.441594,6883.915261,1302.362347
151.863934,5625.565159,7550.100608,2145.067394
151.864254,3627.009116,9696.697840,153.219100
151.864575,2368.659014,9474.636058,-1991.848295
151.864896,4219.173869,8512.368333,-919.314598
151.865216,4959.379811,7179.997637,612.876398
151.865537,4885.359217,6513.812290,2298.286494
151.865858,4737.318029,7920.203579,1685.410096
151.866178,4071.132681,9548.656652,-536.266849
151.866499,3256.906145,8660.409521,-766.095498
151.866820,4293.194464,5921.647536,153.219100
151.867140,6587.832884,5107.421000,1225.752797
151.867461,6291.750507,6957.935855,1915.238745
151.867782,4663.297435,8512.368333,-383.047749
151.868102,5329.482782,9178.553681,-3140.991542
151.868423,5921.647536,8068.244768,-2298.286494
151.868744,6513.812290,6661.853478,766.095498
151.869064,7105.977043,6143.709319,1072.533697
151.869385,5847.626942,7105.977043,306.438199
151.869706,4367.215058,8882.471304,-995.924147
151.870026,4441.235652,7698.141797,-689.485948
151.870347,6069.688724,5773.606348,459.657299
151.870668,6587.832884,5477.523971,1149.143247
151.870988,5847.626942,7624.121203,306.438199
151.871309,4589.276840,9474.636058,-1838.629195
151.871630,4441.235652,9844.739029,-1991.848295
151.871950,4737.318029,7328.038826,-76.609550
151.872271,6217.729913,6069.688724,1608.800546
151.872592,5477.523971,7105.977043,1608.800546
151.872912,3997.112087,9178.553681,-76.609550
151.873233,3775.050304,10732.986159,-1149.143247
151.873554,5107.421000,9326.594869,-995.924147
151.873875,5773.606348,6735.874072,76.609550
151.874195,5921.647536,5773.606348,919.314598
151.874516,5107.421000,7179.997637,1072.533697
151.874837,3701.029710,9844.739029,-919.314598
151.875157,3478.967927,8882.471304,-1762.019645
151.875478,5107.421000,7105.977043,-1072.533697
151.875799,6883.915261,6069.688724,919.314598
151.876119,6661.853478,8068.244768,1608.800546
151.876440,5255.462188,10807.006753,0.000000
151.876761,4959.379811,9992.780217,-2451.505594
151.877081,6143.709319,8956.491898,-2374.896044
151.877402,5477.523971,7105.977043,-76.609550
151.877723,5255.462188,6661.853478,919.314598
151.878043,5329.482782,8808.450710,306.438199
151.878364,4071.132681,10140.821405,-1455.581446
151.878685,3701.029710,10140.821405,-1915.238745
151.879006,4959.379811,7994.224174,-995.924147
151.879326,4515.256246,7476.080014,-306.438199
151.879647,3552.988522,8882.471304,1149.143247
151.879968,3775.050304,11399.171507,536.266849
151.880289,3849.070898,11473.192101,-919.314598
151.880609,3034.844362,8512.368333,-842.705048
151.880930,3404.947333,6587.832884,0.000000
151.881251,3997.112087,7254.018232,1915.238745
151.881572,3330.926739,8364.327145,842.705048
151.881892,3849.070898,9474.636058,-1532.190996
151.882213,6661.853478,8438.347739,-2145.067394
151.882534,6809.894666,6809.894666,-1532.190996
151.882855,6069.688724,5995.668130,689.485948
151.883176,5699.585753,7772.162391,1225.752797
151.883496,6217.729913,9030.512492,153.219100
151.883817,6365.771101,8364.327145,-995.924147
151.884138,7698.141797,6217.729913,-1532.190996
151.884459,7031.956449,5551.544565,-842.705048
151.884779,5921.647536,7105.977043,-229.828649
151.885100,5329.482782,9400.615463,-76.609550
151.885421,5403.503377,8956.491898,-1302.362347
151.885742,5699.585753,7031.956449,-536.266849
151.886062,6365.771101,6365.771101,995.924147
151.886383,3997.112087,6143.709319,229.828649
151.886704,3034.844362,7846.182985,306.438199
151.887025,2442.679609,9104.533087,-536.266849
151.887345,4071.132681,8882.471304,-1608.800546
151.887666,4737.318029,6957.935855,459.657299
151.887987,4515.256246,6439.791695,1991.848295
151.888308,4293.194464,9178.553681,1225.752797
151.888628,2368.659014,10881.027347,0.000000
151.888949,1628.453072,10658.965565,-1455.581446
151.889270,4959.379811,8142.265362,-459.657299
151.889591,6291.750507,6883.915261,2068.457845
151.889912,5033.400406,7846.182985,2987.772442
151.890232,4515.256246,9178.553681,1149.143247
151.890553,4219.173869,10214.842000,-2221.676944
151.890874,4219.173869,8956.491898,-2451.505594
151.891195,5477.523971,6883.915261,536.266849
151.891515,8068.244768,6291.750507,2298.286494
151.891836,6291.750507,7624.121203,1915.238745
151.892157,3701.029710,8438.347739,-306.438199
151.892478,4219.173869,7846.182985,-2528.115143
151.892798,5477.523971,6661.853478,-2068.457845
151.893119,6587.832884,6735.874072,919.314598
151.893440,7698.141797,7846.182985,1378.971896
151.893761,6735.874072,9918.759623,-2068.457845
151.894081,4737.318029,10066.800811,-3830.477490
151.894402,5181.441594,8216.285956,-2528.115143
151.894723,6217.729913,6513.812290,459.657299
151.895044,5625.565159,5921.647536,2068.457845
151.895364,4145.153275,7550.100608,1378.971896
151.895685,3330.926739,9770.718434,-1838.629195
151.896006,3478.967927,10881.027347,-2374.896044
151.896327,3108.864956,8660.409521,-689.485948
151.896647,5329.482782,7328.038826,1302.362347
151.896968,5255.462188,7920.203579,1762.019645
151.897289,2960.823768,9696.697840,612.876398
151.897610,2442.679609,10658.965565,-842.705048
151.897931,3552.988522,8882.471304,-1149.143247
151.898251,4959.379811,7254.018232,459.657299
151.898572,5995.668130,7179.997637,1915.238745
151.898893,5107.421000,7624.121203,306.438199
151.899214,3997.112087,9400.615463,-1455.581446
151.899534,3849.070898,9400.615463,-2145.067394
151.899855,4145.153275,7328.038826,-459.657299
151.900176,5847.626942,6217.729913,689.485948
151.900497,6661.853478,7402.059420,1149.143247
151.900817,5033.400406,9622.677246,-995.924147
151.901138,5551.544565,10066.800811,-1532.190996
151.901459,5773.606348,8142.265362,-842.705048
151.901780,6365.771101,6587.832884,689.485948
151.902100,7105.977043,6809.894666,1225.752797
151.902421,6513.812290,7179.997637,-306.438199
151.902742,4885.359217,8438.347739,-2451.505594
151.903063,5107.421000,6957.935855,-1302.362347
151.903383,5625.565159,6365.771101,153.219100
151.903704,6735.874072,6217.729913,919.314598
151.904025,5847.626942,7624.121203,0.000000
151.904346,5329.482782,9918.759623,-1838.629195
151.904666,5107.421000,10140.821405,-2221.676944
151.904987,5255.462188,8586.388927,-536.266849
151.905308,5921.647536,7402.059420,2145.067394
151.905629,5477.523971,7772.162391,2451.505594
151.905950,3627.009116,9474.636058,612.876398
151.906270,2442.679609,10362.883188,-919.314598
151.906591,2220.617826,9252.574275,-1455.581446
151.906912,3552.988522,6883.915261,766.095498
151.907233,3923.091493,6143.709319,2757.943793
151.907553,3775.050304,8290.306550,1302.362347
151.907874,3034.844362,10140.821405,-229.828649
151.908195,2220.617826,8734.430116,-1532.190996
151.908516,4663.297435,7624.121203,-306.438199
151.908836,5625.565159,7105.977043,1838.629195
151.909157,4663.297435,8290.306550,1532.190996
151.909478,5107.421000,9992.780217,-1225.752797
151.909799,4737.318029,10066.800811,-2451.505594
151.910119,4811.338623,8512.368333,-1455.581446
151.910440,5921.647536,6587.832884,1072.533697
151.910761,6069.688724,6661.853478,919.314598
151.911082,4885.359217,8438.347739,-612.876398
151.911402,3997.112087,9770.718434,-1762.019645
151.911723,4737.318029,9474.636058,-1915.238745
151.912044,5551.544565,6439.791695,153.219100
151.912365,6143.709319,4589.276840,2068.457845
151.912686,6365.771101,6587.832884,1302.362347
151.913006,3701.029710,8586.388927,-536.266849
151.913327,2590.720797,8882.471304,-1915.238745
151.913648,4959.379811,8068.244768,-1149.143247
151.913969,7328.038826,7994.224174,1225.752797
151.914289,6365.771101,8586.388927,1532.190996
151.914610,5477.523971,9844.739029,-459.657299
151.914931,4885.359217,9474.636058,-2068.457845
151.915252,4441.235652,7698.141797,-1762.019645
151.915572,4737.318029,5181.441594,612.876398
151.915893,6439.791695,5921.647536,2145.067394
151.916214,5699.585753,8734.430116,919.314598
151.916535,4145.153275,9992.780217,-1072.533697
151.916855,5551.544565,9178.553681,-2145.067394
151.917176,4959.379811,6661.853478,-1225.752797
151.917497,5625.565159,4959.379811,1608.800546
151.917818,5995.668130,7179.997637,2298.286494
151.918138,5107.421000,9178.553681,-536.266849
151.918459,4441.235652,9844.739029,-1991.848295
151.918780,5773.606348,9178.553681,-689.485948
151.919101,6513.812290,6957.935855,-689.485948
151.919421,5625.565159,7031.956449,919.314598
151.919742,5477.523971,8512.368333,76.609550
151.920063,5033.400406,9696.697840,-1915.238745
151.920384,5181.441594,8512.368333,-1225.752797
151.920705,5847.626942,6217.729913,-306.438199
151.921025,5847.626942,5773.606348,995.924147
151.921346,5181.441594,7550.100608,995.924147
151.921667,3997.112087,10658.965565,-766.095498
151.921988,3552.988522,11029.068536,-1762.019645
151.922308,4071.132681,8660.409521,-612.876398
151.922629,5107.421000,7254.018232,1225.752797
151.922950,4589.276840,6587.832884,1838.629195
151.923271,3775.050304,9030.512492,383.047749
151.923591,3256.906145,10140.821405,-1225.752797
151.923912,3923.091493,8660.409521,-2068.457845
151.924233,5033.400406,7179.997637,0.000000
151.924554,5625.565159,6883.915261,2145.067394
151.924874,4663.297435,8364.327145,1378.971896
151.925195,4145.153275,10214.842000,-1302.362347
151.925516,4663.297435,9992.780217,-2834.553343
151.925837,4737.318029,6661.853478,-1378.971896
151.926157,6513.812290,5773.606348,919.314598
151.926478,6587.832884,7698.141797,1991.848295
151.926799,4589.276840,9770.718434,-536.266849
151.927120,4589.276840,10066.800811,-2451.505594
151.927441,7031.956449,8142.265362,-1455.581446
151.927761,5921.647536,5921.647536,689.485948
151.928082,5847.626942,4293.194464,2834.553343
151.928403,6661.853478,6957.935855,995.924147
151.928724,5255.462188,9400.615463,-919.314598
151.929044,4737.318029,8956.491898,-1838.629195
151.929365,7846.182985,6513.812290,-842.705048
151.929686,7031.956449,6143.709319,766.095498
151.930007,5033.400406,6661.853478,1608.800546
151.930327,4737.318029,9104.533087,459.657299
151.930648,4589.276840,10362.883188,-2221.676944
151.930969,3923.091493,8512.368333,-1915.238745
151.931290,5033.400406,7698.141797,612.876398
151.931610,5107.421000,7624.121203,1149.143247
151.931931,2960.823768,9474.636058,612.876398
151.932252,1406.391290,10140.821405,-383.047749
151.932573,3478.967927,9030.512492,-1378.971896
151.932893,4737.318029,7550.100608,766.095498
151.933214,3701.029710,6217.729913,2528.115143
151.933535,4293.194464,8216.285956,1149.143247
151.933856,4071.132681,10584.944971,-842.705048
151.934176,2886.803174,10362.883188,-2145.067394
151.934497,5181.441594,7624.121203,-1225.752797
151.934818,6735.874072,6217.729913,766.095498
151.935139,6069.688724,7328.038826,1838.629195
151.935460,3849.070898,9400.615463,-306.438199
151.935780,4219.173869,10584.944971,-2987.772442
151.936101,5329.482782,9104.533087,-2374.896044
151.936422,6143.709319,6143.709319,1072.533697
151.936743,7624.121203,5551.544565,2528.115143
151.937063,6143.709319,7105.977043,919.314598
151.937384,3552.988522,8438.347739,-2068.457845
151.937705,4737.318029,8142.265362,-2068.457845
151.938026,6661.853478,7031.956449,-153.219100
151.938346,7179.997637,5995.668130,1762.019645
151.938667,6365.771101,7550.100608,766.095498
151.938988,5107.421000,9474.636058,-2221.676944
151.939309,4589.276840,10584.944971,-3217.601092
151.939629,4811.338623,7994.224174,-1532.190996
151.939950,6143.709319,5921.647536,229.828649
151.940271,6291.750507,6513.812290,1762.019645
151.940592,3775.050304,8586.388927,153.219100
151.940912,2886.803174,9844.739029,-1608.800546
151.941233,4293.194464,9400.615463,-1532.190996
151.941554,4959.379811,6661.853478,0.000000
151.941875,5551.544565,5995.668130,2451.505594
151.942196,5551.544565,7624.121203,2374.896044
151.942516,3478.967927,9918.759623,-153.219100
151.942837,3034.844362,10584.944971,-1915.238745
151.943158,5773.606348,8808.450710,-919.314598
151.943479,6143.709319,6291.750507,536.266849
151.943799,6587.832884,6883.915261,1685.410096
151.944120,6069.688724,8068.244768,689.485948
151.944441,4885.359217,8882.471304,-1915.238745
151.944762,5033.400406,8142.265362,-2298.286494
151.945082,6439.791695,6365.771101,-689.485948
151.945403,6883.915261,5921.647536,0.000000
151.945724,6587.832884,7624.121203,0.000000
151.946045,5551.544565,8734.430116,-1225.752797
151.946365,5625.565159,8882.471304,-1685.410096
151.946686,5921.647536,7846.182985,0.000000
151.947007,5847.626942,6883.915261,766.095498
151.947328,7031.956449,7550.100608,612.876398
151.947648,5699.585753,9252.574275,-459.657299
151.947969,4367.215058,9474.636058,-1915.238745
151.948290,4737.318029,7105.977043,-1302.362347
151.948611,5625.565159,6661.853478,612.876398
151.948931,4515.256246,6143.709319,1532.190996
151.949252,4219.173869,7105.977043,306.438199
151.949573,5033.400406,8882.471304,-1378.971896
151.949894,3997.112087,9400.615463,-1915.238745
151.950215,4663.297435,8438.347739,-306.438199
151.950535,5773.606348,7254.018232,2068.457845
151.950856,6365.771101,8882.471304,1608.800546
151.951177,4589.276840,10510.924376,689.485948
151.951498,3404.947333,9844.739029,-1685.410096
151.951818,4145.153275,8142.265362,-3064.381992
151.952139,4663.297435,7254.018232,153.219100
151.952460,4293.194464,7105.977043,2145.067394
151.952781,5255.462188,8438.347739,995.924147
151.953101,3552.988522,8586.388927,-995.924147
151.953422,2664.741391,8660.409521,-1762.019645
151.953743,3775.050304,7179.997637,-459.657299
151.954064,4293.194464,6661.853478,1225.752797
151.954384,4589.276840,7920.203579,766.095498
151.954705,5033.400406,9696.697840,-383.047749
151.955026,3923.091493,10362.883188,-2221.676944
151.955347,4219.173869,9770.718434,-1302.362347
151.955667,5033.400406,8142.265362,689.485948
151.955988,5551.544565,8216.285956,689.485948
151.956309,4293.194464,8586.388927,0.000000
151.956630,3849.070898,9548.656652,-1302.362347
151.956950,4663.297435,9104.533087,-1685.410096
151.957271,4367.215058,7105.977043,919.314598
151.957592,4885.359217,6291.750507,1991.848295
151.957913,5551.544565,7328.038826,919.314598
151.958234,3775.050304,8734.430116,-842.705048
151.958554,4515.256246,9178.553681,-842.705048
151.958875,5625.565159,7179.997637,306.438199
151.959196,6365.771101,5847.626942,1072.533697
151.959517,7105.977043,6809.894666,1608.800546
151.959837,5403.503377,8808.450710,0.000000
151.960158,4737.318029,9918.759623,-2604.724693
151.960479,5403.503377,8882.471304,-2451.505594
151.960800,6439.791695,6143.709319,-306.438199
151.961120,7328.038826,6069.688724,2068.457845
151.961441,5995.668130,7179.997637,995.924147
151.961762,4145.153275,8364.327145,-2068.457845
151.962083,4293.194464,8660.409521,-2757.943793
151.962403,4885.359217,6735.874072,-306.438199
151.962724,5255.462188,5107.421000,1302.362347
151.963045,5921.647536,6587.832884,1685.410096
151.963366,4737.318029,8734.430116,-229.828649
151.963686,3330.926739,10214.842000,-2145.067394
151.964007,4589.276840,9178.553681,-1378.971896
151.964328,5773.606348,7105.977043,842.705048
151.964649,5625.565159,6809.894666,1838.629195
151.964970,5107.421000,7328.038826,766.095498
151.965290,4589.276840,8882.471304,-1302.362347
151.965611,4885.359217,8734.430116,-1455.581446
151.965932,5255.462188,6735.874072,-919.314598
151.966253,6439.791695,5847.626942,0.000000
151.966573,6365.771101,7328.038826,-76.609550
151.966894,4811.338623,9474.636058,-995.924147
151.967215,4441.235652,10510.924376,-1838.629195
151.967536,5625.565159,8882.471304,-536.266849
151.967856,6069.688724,7476.080014,1072.533697
151.968177,5625.565159,7476.080014,2068.457845
151.968498,5551.544565,9252.574275,612.876398
151.968819,3775.050304,9770.718434,-2068.457845
151.969139,2960.823768,7920.203579,-2298.286494
151.969460,4515.256246,6735.874072,0.000000
151.969781,5477.523971,7105.977043,1915.238745
151.970102,3997.112087,7179.997637,1532.190996
151.970422,5033.400406,9252.574275,-842.705048
151.970743,4219.173869,9770.718434,-2451.505594
151.971064,3108.864956,8512.368333,-1608.800546
151.971385,4737.318029,7624.121203,919.314598
151.971705,6143.709319,8438.347739,1915.238745
151.972026,4737.318029,9918.759623,0.000000
151.972347,4737.318029,10955.047942,-1225.752797
151.972668,4219.173869,9030.512492,-2604.724693
151.972989,3701.029710,7031.956449,-995.924147
151.973309,4441.235652,7624.121203,2068.457845
151.973630,5107.421000,8290.306550,1455.581446
151.973951,3997.112087,9992.780217,-306.438199
151.974272,2516.700203,8882.471304,-995.924147
151.974592,4145.153275,6957.935855,-1302.362347
151.974913,5403.503377,5699.585753,1225.752797
151.975234,4515.256246,7105.977043,2068.457845
151.975555,4737.318029,9474.636058,-153.219100
151.975875,4885.359217,10658.965565,-1915.238745
151.976196,3552.988522,9992.780217,-1532.190996
151.976517,5033.400406,7920.203579,306.438199
151.976838,6439.791695,7105.977043,1378.971896
151.977158,5255.462188,9622.677246,229.828649
151.977479,2294.638420,10214.842000,-1991.848295
151.977800,3627.009116,8586.388927,-1915.238745
151.978120,5773.606348,7254.018232,536.266849
151.978441,5181.441594,6069.688724,3447.429741
151.978762,4959.379811,6439.791695,2145.067394
151.979082,4441.235652,8142.265362,-919.314598
151.979403,3775.050304,9696.697840,-1378.971896
151.979724,4441.235652,8438.347739,-76.609550
151.980044,5921.647536,5551.544565,919.314598
151.980365,6735.874072,5921.647536,612.876398
151.980686,5921.647536,8290.306550,0.000000
151.981006,4441.235652,9400.615463,-1762.019645
151.981327,5847.626942,8216.285956,-2145.067394
151.981647,6143.709319,6365.771101,-612.876398
151.981968,6439.791695,5995.668130,1225.752797
151.982289,6587.832884,7624.121203,1149.143247
151.982609,5847.626942,9400.615463,-1378.971896
151.982930,5551.544565,8808.450710,-2451.505594
151.983251,6069.688724,6513.812290,-842.705048
151.983571,6143.709319,5181.441594,612.876398
151.983892,4737.318029,6587.832884,995.924147
151.984213,4959.379811,9400.615463,-153.219100
151.984533,4663.297435,10584.944971,-1991.848295
151.984854,4663.297435,9326.594869,-1838.629195
151.985174,5107.421000,7328.038826,766.095498
151.985495,5477.523971,7179.997637,2374.896044
151.985816,3775.050304,8956.491898,1685.410096
151.986136,3182.885551,10510.924376,0.000000
151.986457,3701.029710,9474.636058,-1991.848295
151.986778,5181.441594,7550.100608,-766.095498
151.987098,5181.441594,6365.771101,1225.752797
151.987419,4589.276840,7402.059420,766.095498
151.987740,3627.009116,8808.450710,-536.266849
151.988060,3330.926739,9400.615463,-1608.800546
151.988381,5625.565159,8808.450710,-306.438199
151.988701,6143.709319,7105.977043,1072.533697
151.989022,5921.647536,6957.935855,1455.581446
151.989343,5921.647536,8882.471304,-842.705048
151.989663,5033.400406,11473.192101,-1762.019645
151.989984,4441.235652,9474.636058,-1838.629195
151.990305,6587.832884,5773.606348,-919.314598
151.990625,7846.182985,5033.400406,383.047749
151.990946,5107.421000,6735.874072,229.828649
151.991267,3849.070898,8956.491898,-1072.533697
151.991587,4663.297435,9548.656652,-2068.457845
151.991908,5625.565159,7920.203579,-1378.971896
151.992229,7179.997637,7031.956449,1532.190996
151.992549,5921.647536,7772.162391,1991.848295
151.992870,3849.070898,9992.780217,-1149.143247
151.993190,2220.617826,10807.006753,-1991.848295
151.993511,3182.885551,9474.636058,-1225.752797
151.993832,5033.400406,7624.121203,459.657299
151.994152,5255.462188,7105.977043,2298.286494
151.994473,3182.885551,8734.430116,1072.533697
151.994794,2812.782580,11103.089130,-842.705048
151.995114,2146.597232,10066.800811,-766.095498
151.995435,3997.112087,7328.038826,612.876398
151.995756,5625.565159,5329.482782,3370.820191
151.996076,4589.276840,6735.874072,2834.553343
151.996397,3034.844362,8882.471304,1072.533697
151.996717,3552.988522,9474.636058,-1072.533697
151.997038,5255.462188,8290.306550,-1608.800546
151.997359,5773.606348,6735.874072,0.000000
151.997679,6513.812290,6291.750507,536.266849
151.998000,6365.771101,7846.182985,-383.047749
151.998321,5329.482782,9326.594869,-919.314598
151.998641,5625.565159,8882.471304,-1302.362347
151.998962,6883.915261,5847.626942,-919.314598
151.999283,7254.018232,4885.359217,0.000000
151.999603,6957.935855,6735.874072,1072.533697
151.999924,5773.606348,8216.285956,0.000000
152.000244,5107.421000,8660.409521,-2068.457845
152.000565,5847.626942,7402.059420,-1608.800546
152.000886,6143.709319,4959.379811,153.219100
152.001206,6291.750507,5921.647536,1455.581446
152.001527,5033.400406,8586.388927,689.485948
152.001848,3034.844362,9918.759623,-1378.971896
152.002168,4219.173869,10288.862594,-1532.190996
152.002489,5477.523971,7772.162391,0.000000
152.002810,5403.503377,6957.935855,1915.238745
152.003130,4737.318029,8586.388927,2068.457845
152.003451,2442.679609,10436.903782,0.000000
152.003771,1998.556043,10066.800811,-2068.457845
152.004092,3552.988522,7846.182985,-229.828649
152.004413,4367.215058,6957.935855,1455.581446
152.004733,4145.153275,7105.977043,1685.410096
152.005054,4367.215058,9104.533087,383.047749
152.005375,3552.988522,9622.677246,-1225.752797
152.005695,3627.009116,8216.285956,-1378.971896
152.006016,5995.668130,6587.832884,689.485948
152.006337,7328.038826,6957.935855,1378.971896
152.006657,5773.606348,9326.594869,0.000000
152.006978,4811.338623,10658.965565,-1685.410096
152.007298,6735.874072,9326.594869,-2757.943793
152.007619,6735.874072,7105.977043,-1302.362347
152.007940,6883.915261,5329.482782,612.876398
152.008260,7105.977043,6365.771101,536.266849
152.008581,6439.791695,8882.471304,-919.314598
152.008902,5255.462188,8956.491898,-1991.848295
152.009222,5625.565159,6735.874072,-1915.238745
152.009543,7105.977043,6069.688724,0.000000
152.009864,6143.709319,8142.265362,1608.800546
152.010184,3997.112087,10140.821405,689.485948
152.010505,4811.338623,10140.821405,-1838.629195
152.010825,3775.050304,9178.553681,-2451.505594
152.011146,2442.679609,6809.894666,0.000000
152.011467,4071.132681,6735.874072,2681.334243
152.011787,4145.153275,8956.491898,2451.505594
152.012108,2516.700203,10881.027347,-229.828649
152.012429,2812.782580,11103.089130,-1915.238745
152.012749,3701.029710,9178.553681,-1378.971896
152.013070,3478.967927,7179.997637,1378.971896
152.013391,4071.132681,7105.977043,4136.915689
152.013711,4885.359217,8882.471304,1532.190996
152.014032,4219.173869,9474.636058,-1225.752797
152.014353,3108.864956,7402.059420,-2374.896044
152.014673,5403.503377,5995.668130,-1455.581446
152.014994,7328.038826,5921.647536,919.314598
152.015314,6143.709319,7476.080014,536.266849
152.015635,6513.812290,8512.368333,-1225.752797
152.015956,6661.853478,8216.285956,-2604.724693
152.016276,5477.523971,6735.874072,-1225.752797
152.016597,7031.956449,5773.606348,1532.190996
152.016918,8364.327145,7179.997637,1532.190996
152.017238,6439.791695,8956.491898,-1608.800546
152.017559,5181.441594,8808.450710,-3064.381992
152.017880,5847.626942,7105.977043,-2068.457845
152.018200,6883.915261,5181.441594,1225.752797
152.018521,6143.709319,5033.400406,2681.334243
152.018841,5033.400406,6957.935855,383.047749
152.019162,3923.091493,9696.697840,-2298.286494
152.019483,3552.988522,10288.862594,-1685.410096
152.019803,4663.297435,8364.327145,1072.533697
152.020124,5625.565159,6217.729913,2911.162892
152.020445,4885.359217,7846.182985,2451.505594
152.020765,2590.720797,9622.677246,-612.876398
152.021086,1998.556043,9474.636058,-2451.505594
152.021407,4071.132681,7994.224174,-766.095498
152.021727,5255.462188,7105.977043,1838.629195
152.022048,5255.462188,7476.080014,2528.115143
152.022368,5107.421000,9326.594869,383.047749
152.022689,4145.153275,9918.759623,-2451.505594
152.023010,4811.338623,8142.265362,-1532.190996
152.023330,6069.688724,5403.503377,1072.533697
152.023651,6587.832884,4589.276840,1685.410096
152.023972,5773.606348,6883.915261,0.000000
152.024292,5107.421000,10214.842000,-2145.067394
152.024613,4367.215058,10658.965565,-3600.648841
152.024934,5847.626942,8586.388927,-2068.457845
152.025254,7105.977043,6587.832884,1378.971896
152.025575,6661.853478,7179.997637,2068.457845
152.025895,4811.338623,9326.594869,-306.438199
152.026216,3923.091493,10732.986159,-2451.505594
152.026537,3923.091493,9918.759623,-2068.457845
152.026857,4811.338623,7328.038826,306.438199
152.027178,5847.626942,5699.585753,2451.505594
152.027499,6365.771101,7550.100608,1225.752797
152.027819,3330.926739,9770.718434,-919.314598
152.028140,1184.329507,9252.574275,-1991.848295
152.028461,3775.050304,7105.977043,-459.657299
152.028781,6291.750507,6587.832884,2374.896044
152.029102,4959.379811,7846.182985,2604.724693
152.029422,4441.235652,10436.903782,0.000000
152.029743,3849.070898,12213.398043,-3064.381992
152.030064,2812.782580,10658.965565,-1608.800546
152.030384,5033.400406,6809.894666,1915.238745
152.030705,7031.956449,5329.482782,3064.381992
152.031026,5403.503377,7328.038826,76.609550
152.031346,2812.782580,8216.285956,-1762.019645
152.031667,4071.132681,8216.285956,-2528.115143
152.031988,6069.688724,6513.812290,-995.924147
152.032308,7624.121203,5625.565159,1608.800546
152.032629,7328.038826,6439.791695,1072.533697
152.032949,5995.668130,8512.368333,-2451.505594
152.033270,4663.297435,9918.759623,-2374.896044
152.033591,5181.441594,8216.285956,-842.705048
152.033911,7179.997637,5995.668130,1378.971896
152.034232,6957.935855,5403.503377,689.485948
152.034553,5551.544565,8512.368333,-766.095498
152.034873,4737.318029,10510.924376,-2451.505594
152.035194,4145.153275,9622.677246,-1838.629195
152.035515,5773.606348,6217.729913,0.000000
152.035835,6587.832884,4441.235652,2757.943793
152.036156,4885.359217,6365.771101,2681.334243
152.036477,3478.967927,9030.512492,612.876398
152.036797,3775.050304,9252.574275,-1532.190996
152.037118,4145.153275,8216.285956,-1608.800546
152.037438,5107.421000,7476.080014,1225.752797
152.037759,5921.647536,7846.182985,1838.629195
152.038080,5329.482782,9400.615463,0.000000
152.038400,4293.194464,10214.842000,-1225.752797
152.038721,4145.153275,9104.533087,-995.924147
152.039042,5033.400406,7105.977043,153.219100
152.039362,5255.462188,6143.709319,1378.971896
152.039683,5477.523971,7698.141797,1225.752797
152.040004,5181.441594,9178.553681,-76.609550
152.040324,5107.421000,9030.512492,-1149.143247
152.040645,5255.462188,7031.956449,-766.095498
152.040965,5699.585753,5107.421000,76.609550
152.041286,6661.853478,6365.771101,459.657299
152.041607,5995.668130,9104.533087,-383.047749
152.041927,4737.318029,9770.718434,-2298.286494
152.042248,5033.400406,8956.491898,-2221.676944
152.042569,5699.585753,7328.038826,-383.047749
152.042889,5477.523971,7328.038826,1072.533697
152.043210,5551.544565,9178.553681,842.705048
152.043531,4367.215058,11103.089130,-1149.143247
152.043851,3034.844362,9622.677246,-1915.238745
152.044172,3478.967927,6365.771101,766.095498
152.044492,4663.297435,5033.400406,2528.115143
152.044813,4589.276840,7328.038826,2451.505594
152.045134,3404.947333,9474.636058,536.266849
152.045454,1258.350101,10066.800811,-2911.162892
152.045775,3034.844362,8586.388927,-2298.286494
152.046096,5255.462188,7476.080014,1608.800546
152.046416,6291.750507,8068.244768,3524.039291
152.046737,5107.421000,10066.800811,383.047749
152.047058,3256.906145,11843.295072,-3140.991542
152.047378,3108.864956,10362.883188,-2834.553343
152.047699,5107.421000,7179.997637,459.657299
152.048019,6661.853478,5329.482782,3140.991542
152.048340,7105.977043,7105.977043,2451.505594
152.048661,5625.565159,7846.182985,-766.095498
152.048981,3552.988522,6217.729913,-2987.772442
152.049302,5255.462188,4737.318029,-1455.581446
152.049623,7920.203579,4737.318029,1225.752797
152.049943,7254.018232,6809.894666,1532.190996
152.050264,7105.977043,9326.594869,-1762.019645
152.050585,6957.935855,10510.924376,-4213.525239
152.050905,5625.565159,8956.491898,-2528.115143
152.051226,5551.544565,6809.894666,459.657299
152.051546,6439.791695,6513.812290,1225.752797
152.051867,5329.482782,8512.368333,0.000000
152.052188,4071.132681,10066.800811,-2374.896044
152.052508,3108.864956,9030.512492,-2757.943793
152.052829,3997.112087,7105.977043,-229.828649
152.053150,4441.235652,6291.750507,3140.991542
152.053470,4441.235652,7254.018232,3753.867940
152.053791,3627.009116,9770.718434,919.314598
152.054112,2146.597232,9696.697840,-1762.019645
152.054432,2368.659014,7698.141797,-1302.362347
152.054753,4219.173869,7105.977043,1455.581446
152.055073,5921.647536,8364.327145,2374.896044
152.055394,5033.400406,9992.780217,-383.047749
152.055715,4663.297435,10807.006753,-3217.601092
152.056035,4219.173869,9474.636058,-2834.553343
152.056356,4811.338623,7105.977043,1149.143247
152.056677,5847.626942,5699.585753,3830.477490
152.056997,6735.874072,7179.997637,1225.752797
152.057318,5847.626942,8956.491898,-1838.629195
152.057639,5107.421000,8734.430116,-3140.991542
152.057959,5847.626942,7031.956449,-1685.410096
152.058280,7179.997637,6217.729913,1532.190996
152.058600,7402.059420,7105.977043,1838.629195
152.058921,5847.626942,9252.574275,-842.705048
152.059242,4367.215058,9696.697840,-3217.601092
152.059562,4811.338623,8808.450710,-1532.190996
152.059883,5181.441594,6957.935855,1685.410096
152.060204,5477.523971,6735.874072,2451.505594
152.060524,4737.318029,8586.388927,229.828649
152.060845,2664.741391,10288.862594,-2451.505594
152.061166,2220.617826,10066.800811,-2681.334243
152.061486,3701.029710,7846.182985,919.314598
152.061807,4737.318029,6513.812290,2987.772442
152.062128,4737.318029,7920.203579,2451.505594
152.062448,2664.741391,10881.027347,0.000000
152.062769,1702.473667,11695.253884,-1991.848295
152.063089,2220.617826,9548.656652,153.219100
152.063410,4515.256246,7476.080014,2757.943793
152.063731,5329.482782,7105.977043,2757.943793
152.064051,4663.297435,8512.368333,-229.828649
152.064372,3849.070898,9918.759623,-2604.724693
152.064693,3849.070898,8956.491898,-2528.115143
152.065013,5625.565159,6143.709319,536.266849
152.065334,7846.182985,4737.318029,3064.381992
152.065655,7550.100608,6143.709319,1762.019645
152.065975,5477.523971,8438.347739,-2221.676944
152.066296,5329.482782,8808.450710,-3753.867940
152.066616,6957.935855,7105.977043,-1762.019645
152.066937,8364.327145,5033.400406,1378.971896
152.067258,8512.368333,5921.647536,1149.143247
152.067578,7105.977043,8438.347739,-2221.676944
152.067899,4737.318029,10584.944971,-4596.572988
152.068220,4441.235652,9104.533087,-2451.505594
152.068540,6439.791695,6217.729913,1302.362347
152.068861,7920.203579,5181.441594,3140.991542
152.069182,5477.523971,6217.729913,1225.752797
152.069502,2368.659014,7920.203579,-1378.971896
152.069823,2294.638420,8290.306550,-1838.629195
152.070143,2886.803174,7402.059420,306.438199
152.070464,4219.173869,5847.626942,2451.505594
152.070785,6735.874072,8142.265362,1608.800546
152.071105,4145.153275,11325.150913,-1378.971896
152.071426,1776.494261,12361.439231,-2757.943793
152.071747,3478.967927,9696.697840,-459.657299
152.072067,5329.482782,7328.038826,2145.067394
152.072388,5033.400406,7105.977043,3140.991542
152.072709,4737.318029,9326.594869,1225.752797
152.073029,2960.823768,10881.027347,-3064.381992
152.073350,3034.844362,9696.697840,-2604.724693
152.073670,4367.215058,6809.894666,383.047749
152.073991,6661.853478,4737.318029,1991.848295
152.074312,6661.853478,5995.668130,2145.067394
152.074632,4737.318029,7772.162391,-459.657299
152.074953,4959.379811,9400.615463,-2911.162892
152.075274,6365.771101,9548.656652,-1991.848295
152.075594,7105.977043,8364.327145,-229.828649
152.075915,7772.162391,8142.265362,842.705048
152.076236,7031.956449,9104.533087,-229.828649
152.076556,5255.462188,9770.718434,-1991.848295
152.076877,4145.153275,7994.224174,-1532.190996
152.077198,4071.132681,5403.503377,-459.657299
152.077518,5033.400406,6587.832884,536.266849
152.077839,5477.523971,8734.430116,842.705048
152.078160,4219.173869,10288.862594,-842.705048
152.078480,4367.215058,10436.903782,-919.314598
152.078801,4145.153275,8512.368333,689.485948
152.079122,3256.906145,6365.771101,1991.848295
152.079442,3552.988522,6217.729913,2528.115143
152.079763,3997.112087,8512.368333,1072.533697
152.080084,3108.864956,10140.821405,-383.047749
152.080404,3701.029710,9178.553681,-612.876398
152.080725,5107.421000,7105.977043,0.000000
152.081046,5255.462188,6809.894666,842.705048
152.081366,5107.421000,8068.244768,536.266849
152.081687,4811.338623,9104.533087,-1532.190996
152.082008,4811.338623,8216.285956,-2757.943793
152.082328,6143.709319,7105.977043,-229.828649
152.082649,6661.853478,6439.791695,1762.019645
152.082970,6883.915261,7402.059420,842.705048
152.083290,5847.626942,8882.471304,-1455.581446
152.083611,4663.297435,8808.450710,-2451.505594
152.083932,6365.771101,7402.059420,-1225.752797
152.084252,7105.977043,5329.482782,1685.410096
152.084573,6661.853478,5107.421000,2068.457845
152.084894,6069.688724,7402.059420,-76.609550
152.085214,4737.318029,9548.656652,-2374.896044
152.085535,4441.235652,8586.388927,-1915.238745
152.085856,6217.729913,6883.915261,612.876398
152.086176,6957.935855,5403.503377,2068.457845
152.086497,4959.379811,7105.977043,842.705048
152.086818,3849.070898,9696.697840,-1532.190996
152.087138,3108.864956,10362.883188,-3217.601092
152.087459,3478.967927,9252.574275,-1302.362347
152.087780,6143.709319,7550.100608,2374.896044
152.088100,5773.606348,8068.244768,2451.505594
152.088421,3404.947333,10066.800811,0.000000
152.088742,1702.473667,10955.047942,-1225.752797
152.089062,2294.638420,9622.677246,-1685.410096
152.089383,3701.029710,6143.709319,1225.752797
152.089704,6439.791695,5255.462188,3217.601092
152.090024,5329.482782,6513.812290,1762.019645
152.090345,3404.947333,8512.368333,-2068.457845
152.090666,3108.864956,9548.656652,-2528.115143
152.090986,4737.318029,8512.368333,-1225.752797
152.091307,6439.791695,7254.018232,842.705048
152.091628,8734.430116,7402.059420,1149.143247
152.091948,7105.977043,9696.697840,-1685.410096
152.092269,4293.194464,10584.944971,-3677.258390
152.092590,4441.235652,8290.306550,-1991.848295
152.092910,6661.853478,6809.894666,153.219100
152.093231,7476.080014,6513.812290,1455.581446
152.093552,6513.812290,8512.368333,383.047749
152.093872,4367.215058,9770.718434,-2221.676944
152.094193,2368.659014,9326.594869,-2451.505594
152.094514,2738.761985,6587.832884,536.266849
152.094834,4515.256246,4885.359217,3140.991542
152.095155,5107.421000,7254.018232,2911.162892
152.095476,2886.803174,9696.697840,0.000000
152.095796,2368.659014,10881.027347,-2604.724693
152.096117,3404.947333,10436.903782,-1685.410096
152.096438,4293.194464,8882.471304,1302.362347
152.096758,6143.709319,7846.182985,2604.724693
152.097079,6069.688724,9252.574275,919.314598
152.097400,3775.050304,10881.027347,-1762.019645
152.097720,2590.720797,9252.574275,-2145.067394
152.098041,4219.173869,6291.750507,-612.876398
152.098362,5773.606348,5477.523971,1378.971896
152.098682,7179.997637,8068.244768,1608.800546
152.099003,5921.647536,10066.800811,-536.266849
152.099324,5181.441594,9918.759623,-2911.162892
152.099644,6069.688724,7772.162391,-1225.752797
152.099965,6439.791695,5551.544565,1302.362347
152.100286,6661.853478,5625.565159,2298.286494
152.100606,7105.977043,7846.182985,0.000000
152.100927,5181.441594,8956.491898,-2221.676944
152.101248,6291.750507,8216.285956,-1225.752797
152.101568,7402.059420,5995.668130,612.876398
152.101889,7550.100608,4737.318029,1608.800546
152.102210,6513.812290,6143.709319,842.705048
152.102530,5773.606348,8142.265362,-842.705048
152.102851,4293.194464,8290.306550,-1915.238745
152.103172,5773.606348,7179.997637,306.438199
152.103492,7476.080014,5773.606348,1915.238745
152.103813,5477.523971,6735.874072,1072.533697
152.104134,4811.338623,8216.285956,-995.924147
152.104454,4367.215058,9696.697840,-1991.848295
152.104775,4663.297435,8512.368333,-1149.143247
152.105096,5107.421000,7179.997637,1378.971896
152.105416,4737.318029,7105.977043,1762.019645
152.105737,3404.947333,8290.306550,-689.485948
152.106058,2960.823768,9622.677246,-1225.752797
152.106378,3182.885551,8882.471304,-612.876398
152.106699,3849.070898,6957.935855,383.047749
152.107020,3997.112087,5329.482782,1838.629195
152.107340,4441.235652,7105.977043,76.609550
152.107661,4367.215058,10732.986159,-1915.238745
152.107982,3256.906145,10584.944971,-2145.067394
152.108302,4811.338623,9030.512492,-1838.629195
152.108623,6513.812290,6957.935855,842.705048
152.108944,5107.421000,7550.100608,1838.629195
152.109264,4959.379811,9696.697840,76.609550
152.109585,4959.379811,10955.047942,-2374.896044
152.109906,3997.112087,9622.677246,-2681.334243
152.110227,5551.544565,7328.038826,-306.438199
152.110547,7105.977043,5551.544565,2221.676944
152.110868,5847.626942,7105.977043,1532.190996
152.111189,3775.050304,9178.553681,0.000000
152.111509,3182.885551,9696.697840,-2298.286494
152.111830,4293.194464,7698.141797,-1762.019645
152.112151,5921.647536,6957.935855,1225.752797
152.112471,6365.771101,8438.347739,2145.067394
152.112792,5329.482782,11029.068536,-995.924147
152.113113,3182.885551,11695.253884,-2604.724693
152.113433,2664.741391,10288.862594,-2145.067394
152.113754,5329.482782,7994.224174,919.314598
152.114075,6513.812290,7105.977043,2987.772442
152.114395,4589.276840,8142.265362,612.876398
152.114716,1924.535449,9326.594869,-1608.800546
152.115037,2368.659014,9178.553681,-1838.629195
152.115357,4367.215058,7105.977043,229.828649
152.115678,5699.585753,4737.318029,2987.772442
152.115999,8142.265362,5773.606348,2451.505594
152.116319,6291.750507,8734.430116,-1455.581446
152.116640,3478.967927,9992.780217,-3600.648841
152.116961,4441.235652,8956.491898,-1915.238745
152.117281,8068.244768,6217.729913,612.876398
152.117602,9474.636058,5551.544565,1991.848295
152.117923,8438.347739,8586.388927,153.219100
152.118243,4589.276840,9252.574275,-3600.648841
152.118564,2886.803174,7920.203579,-4136.915689
152.118885,5477.523971,5255.462188,0.000000
152.119205,8068.244768,4219.173869,2834.553343
152.119526,7402.059420,5181.441594,2451.505594
152.119847,4737.318029,7772.162391,-1838.629195
152.120167,3182.885551,9696.697840,-4060.306139
152.120488,3701.029710,8438.347739,-1915.238745
152.120809,5847.626942,6069.688724,1915.238745
152.121129,7105.977043,6735.874072,2221.676944
152.121450,5255.462188,9252.574275,0.000000
152.121771,2886.803174,10584.944971,-1915.238745
152.122091,2812.782580,9326.594869,-1608.800546
152.122412,4219.173869,7624.121203,459.657299
152.122733,5255.462188,6661.853478,1685.410096
152.123053,5255.462188,7920.203579,536.266849
152.123374,4367.215058,9992.780217,-1455.581446
152.123695,3478.967927,10436.903782,-919.314598
152.124015,4367.215058,7402.059420,842.705048
152.124336,4737.318029,5329.482782,2068.457845
152.124657,5625.565159,6883.915261,2145.067394
152.124977,5847.626942,10362.883188,229.828649
152.125298,4737.318029,11621.233289,-2221.676944
152.125619,4959.379811,9918.759623,-1532.190996
152.125939,5329.482782,7105.977043,536.266849
152.126260,5625.565159,6143.709319,1991.848295
152.126581,5699.585753,8142.265362,919.314598
152.126901,4589.276840,10288.862594,-1455.581446
152.127222,3997.112087,9992.780217,-2451.505594
152.127543,4959.379811,7846.182985,-612.876398
152.127863,5329.482782,5699.585753,1685.410096
152.128184,5329.482782,5921.647536,1838.629195
152.128505,5107.421000,8216.285956,0.000000
152.128825,3849.070898,9992.780217,-2298.286494
152.129146,2812.782580,8734.430116,-2145.067394
152.129467,4293.194464,6661.853478,-383.047749
152.129787,6069.688724,7698.141797,536.266849
152.130108,5181.441594,9992.780217,-306.438199
152.130429,4219.173869,11843.295072,-2068.457845
152.130749,3775.050304,9696.697840,-2068.457845
152.131070,4071.132681,6883.915261,306.438199
152.131391,4441.235652,5921.647536,2987.772442
152.131711,3997.112087,7994.224174,1991.848295
152.132032,3627.009116,9844.739029,-689.485948
152.132353,3478.967927,10584.944971,-2068.457845
152.132673,3478.967927,7846.182985,-689.485948
152.132994,4885.359217,5033.400406,1149.143247
152.133315,5773.606348,5477.523971,2374.896044
152.133635,4071.132681,8512.368333,612.876398
152.133956,4219.173869,11103.089130,-2298.286494
152.134277,5625.565159,10140.821405,-2757.943793
152.134597,6661.853478,7402.059420,-536.266849
152.134918,7328.038826,6587.832884,2374.896044
152.135239,6143.709319,8142.265362,1685.410096
152.135559,4145.153275,9918.759623,-1149.143247
152.135880,4071.132681,8734.430116,-2987.772442
152.136201,6661.853478,5773.606348,-1378.971896
152.136521,7402.059420,3108.864956,1149.143247
152.136842,6735.874072,5181.441594,2145.067394
152.137163,4959.379811,8808.450710,76.609550
152.137483,4737.318029,10362.883188,-3064.381992
152.137804,6143.709319,8808.450710,-1991.848295
152.138125,7772.162391,7624.121203,919.314598
152.138445,6883.915261,6883.915261,1915.238745
152.138766,4885.359217,8142.265362,536.266849
152.139087,4367.215058,9548.656652,-2221.676944
152.139407,3997.112087,9474.636058,-2145.067394
152.139728,4737.318029,6513.812290,0.000000
152.140049,5033.400406,4515.256246,1225.752797
152.140369,4885.359217,6513.812290,1149.143247
152.140690,2886.803174,10807.006753,536.266849
152.141011,3034.844362,10955.047942,-1072.533697
152.141331,4367.215058,8142.265362,-919.314598
152.141652,5699.585753,6069.688724,1608.800546
152.141973,5477.523971,6735.874072,2757.943793
152.142293,3923.091493,8956.491898,612.876398
152.142614,2368.659014,11103.089130,-2911.162892
152.142935,4219.173869,10584.944971,-3217.601092
152.143255,6069.688724,8290.306550,-1072.533697
152.143576,6217.729913,6661.853478,1608.800546
152.143897,6143.709319,7179.997637,1838.629195
152.144218,4071.132681,9474.636058,-766.095498
152.144538,2738.761985,8956.491898,-2374.896044
152.144859,3775.050304,6809.894666,-1302.362347
152.145180,5921.647536,5181.441594,1225.752797
152.145500,7254.018232,6439.791695,2374.896044
152.145821,5699.585753,9918.759623,76.609550
152.146142,3182.885551,11769.274478,-4060.306139
152.146462,2664.741391,10584.944971,-3677.258390
152.146783,3997.112087,7772.162391,306.438199
152.147104,5551.544565,6143.709319,2604.724693
152.147424,5847.626942,8216.285956,2451.505594
152.147745,3775.050304,10881.027347,-1225.752797
152.148066,2812.782580,11769.274478,-3753.867940
152.148386,3256.906145,9104.533087,-1302.362347
152.148707,5329.482782,6365.771101,2757.943793
152.149028,6809.894666,6069.688724,3140.991542
152.149348,5403.503377,8290.306550,842.705048
152.149669,2442.679609,10140.821405,-1915.238745
152.149990,2590.720797,8882.471304,-1532.190996
152.150310,5107.421000,6291.750507,459.657299
152.150631,7698.141797,6291.750507,2911.162892
152.150952,7550.100608,9104.533087,2451.505594
152.151272,4811.338623,11251.130318,-1991.848295
152.151593,2516.700203,9992.780217,-4673.182538
152.151914,4737.318029,6661.853478,-1532.190996
152.152234,6587.832884,4737.318029,2834.553343
152.152555,6957.935855,5625.565159,3447.429741
152.152876,5181.441594,8586.388927,0.000000
152.153196,2738.761985,10362.883188,-3830.477490
152.153517,3997.112087,8586.388927,-2451.505594
152.153838,5773.606348,5033.400406,1225.752797
152.154158,6735.874072,3997.112087,2681.334243
152.154479,7328.038826,7328.038826,766.095498
152.154800,4959.379811,10288.862594,-3217.601092
152.155120,2960.823768,9178.553681,-3830.477490
152.155441,4811.338623,7105.977043,0.000000
152.155762,7476.080014,6069.688724,2604.724693
152.156082,5773.606348,6809.894666,1762.019645
152.156403,6291.750507,9474.636058,-1225.752797
152.156724,4441.235652,10362.883188,-3677.258390
152.157044,2664.741391,7105.977043,-2528.115143
152.157365,4663.297435,3923.091493,1838.629195
152.157686,6809.894666,4959.379811,3447.429741
152.158006,5773.606348,9474.636058,1455.581446
152.158327,4885.359217,11621.233289,-1455.581446
152.158648,4219.173869,9992.780217,-3140.991542
152.158968,6069.688724,6587.832884,-766.095498
152.159289,6661.853478,5329.482782,4596.572988
152.159610,6291.750507,7031.956449,2834.553343
152.159930,5847.626942,9474.636058,-1532.190996
152.160251,3627.009116,9844.739029,-3983.696590
152.160572,3775.050304,7550.100608,-2834.553343
152.160892,5995.668130,5847.626942,1225.752797
152.161213,6143.709319,7698.141797,2987.772442
152.161534,5625.565159,11103.089130,76.609550
152.161854,3478.967927,11325.150913,-2757.943793
152.162175,3552.988522,8364.327145,-2451.505594
152.162496,4959.379811,5699.585753,1762.019645
152.162816,5403.503377,6217.729913,4290.134789
152.163137,4589.276840,9548.656652,1302.362347
152.163458,3627.009116,11547.212695,-2757.943793
152.163778,4145.153275,10288.862594,-3753.867940
152.164099,4737.318029,7179.997637,-766.095498
152.164420,5625.565159,5033.400406,3064.381992
152.164740,4811.338623,6883.915261,1991.848295
152.165061,3256.906145,9474.636058,-919.314598
152.165382,3849.070898,10140.821405,-2681.334243
152.165702,5255.462188,9030.512492,-536.266849
152.166023,5847.626942,6365.771101,2451.505594
152.166344,6365.771101,6735.874072,3140.991542
152.166664,5477.523971,9252.574275,306.438199
152.166985,3775.050304,11103.089130,-2987.772442
152.167306,3404.947333,9326.594869,-2221.676944
152.167626,5477.523971,6143.709319,0.000000
152.167947,6217.729913,5107.421000,2528.115143
152.168268,5181.441594,7254.018232,1838.629195
152.168588,3923.091493,9770.718434,-1378.971896
152.168909,3997.112087,10881.027347,-3217.601092
152.169230,4145.153275,7476.080014,-919.314598
152.169550,6439.791695,4959.379811,2221.676944
152.169871,7328.038826,5551.544565,3294.210641
152.170192,4959.379811,8216.285956,612.876398
152.170512,3627.009116,9696.697840,-2911.162892
152.170833,4219.173869,8364.327145,-3140.991542
152.171154,6291.750507,6661.853478,536.266849
152.171474,7254.018232,5625.565159,3294.210641
152.171795,6439.791695,7476.080014,842.705048
152.172116,4959.379811,9474.636058,-2987.772442
152.172436,3182.885551,9400.615463,-3677.258390
152.172757,4663.297435,7105.977043,-306.438199
152.173078,6809.894666,5625.565159,3064.381992
152.173398,5699.585753,6661.853478,2298.286494
152.173719,4515.256246,9104.533087,-612.876398
152.174040,3849.070898,10288.862594,-3370.820191
152.174360,3627.009116,8586.388927,-2145.067394
152.174681,5477.523971,5699.585753,2068.457845
152.175002,6661.853478,5995.668130,3830.477490
152.175322,5329.482782,9400.615463,1378.971896
152.175643,3404.947333,11325.150913,-2068.457845
152.175964,3478.967927,10362.883188,-3217.601092
152.176284,4959.379811,7846.182985,-229.828649
152.176605,5921.647536,5921.647536,3064.381992
152.176926,6365.771101,6735.874072,2374.896044
152.177246,4737.318029,10436.903782,-1608.800546
152.177567,1998.556043,11251.130318,-4290.134789
152.177888,2738.761985,7994.224174,-2374.896044
152.178209,6809.894666,5625.565159,2221.676944
152.178529,6661.853478,5773.606348,3677.258390
152.178850,5403.503377,8438.347739,1225.752797
152.179171,4885.359217,10510.924376,-2451.505594
152.179491,4589.276840,9696.697840,-3447.429741
152.179812,6735.874072,6735.874072,76.609550
152.180133,9252.574275,5255.462188,2911.162892
152.180453,8586.388927,5921.647536,612.876398
152.180774,6439.791695,7920.203579,-1532.190996
152.181095,6217.729913,7328.038826,-1838.629195
152.181415,8142.265362,5699.585753,-1762.019645
152.181736,9474.636058,3552.988522,2298.286494
152.182057,9474.636058,2960.823768,1532.190996
152.182378,9770.718434,5477.523971,-1378.971896
152.182698,9178.553681,7105.977043,-3217.601092
152.183019,8586.388927,6957.935855,-2604.724693
152.183340,10807.006753,5329.482782,-306.438199
152.183660,11251.130318,3997.112087,1302.362347
152.183981,9992.780217,5625.565159,1149.143247
152.184302,8882.471304,6957.935855,-995.924147
152.184623,7476.080014,7105.977043,-2451.505594
152.184943,7772.162391,5329.482782,-842.705048
152.185264,7624.121203,4367.215058,1762.019645
152.185585,8512.368333,4811.338623,1608.800546
152.185905,7550.100608,6809.894666,-536.266849
152.186226,6587.832884,7476.080014,-2451.505594
152.186547,6439.791695,7624.121203,-689.485948
152.186868,6957.935855,6143.709319,1915.238745
152.187188,8512.368333,5255.462188,3294.210641
152.187509,9992.780217,6439.791695,2068.457845
152.187830,7624.121203,6661.853478,-995.924147
152.188150,6661.853478,6883.915261,-2145.067394
152.188471,8438.347739,5329.482782,-306.438199
152.188792,9178.553681,3256.906145,1991.848295
152.189113,11103.089130,2146.597232,2221.676944
152.189433,11917.315666,3330.926739,0.000000
152.189754,10881.027347,4737.318029,-2834.553343
152.190075,10807.006753,3923.091493,-3064.381992
152.190395,12731.542202,2886.803174,-995.924147
152.190716,14656.077652,4071.132681,842.705048
152.191037,14211.954086,5107.421000,1762.019645
152.191358,11843.295072,6291.750507,-1302.362347
152.191678,10066.800811,5847.626942,-3524.039291
152.191999,9548.656652,5699.585753,-1915.238745
152.192320,9326.594869,4737.318029,0.000000
152.192640,9326.594869,4959.379811,1149.143247
152.192961,8068.244768,5921.647536,229.828649
152.193282,5329.482782,6809.894666,-612.876398
152.193603,4885.359217,6513.812290,306.438199
152.193923,5107.421000,5995.668130,1762.019645
152.194244,5995.668130,7031.956449,1991.848295
152.194565,6587.832884,7772.162391,1532.190996
152.194885,6291.750507,8586.388927,0.000000
152.195206,5847.626942,7994.224174,0.000000
152.195527,5625.565159,5921.647536,1302.362347
152.195847,7624.121203,5107.421000,1225.752797
152.196168,8882.471304,5625.565159,383.047749
152.196489,9844.739029,7105.977043,-919.314598
152.196810,10807.006753,7624.121203,-842.705048
152.197130,11695.253884,5625.565159,153.219100
152.197451,11695.253884,2664.741391,1838.629195
152.197772,12065.356855,1406.391290,1378.971896
152.198092,11695.253884,962.267725,-689.485948
152.198413,12879.583391,2220.617826,-2528.115143
152.198734,13915.871710,3997.112087,-2221.676944
152.199055,13693.809927,5403.503377,-1149.143247
152.199375,12583.501014,5921.647536,-689.485948
152.199696,11991.336260,5551.544565,-1302.362347
152.200017,10807.006753,5699.585753,-1915.238745
152.200337,8290.306550,5255.462188,-1149.143247
152.200658,7402.059420,4441.235652,-612.876398
152.200979,7179.997637,4663.297435,229.828649
152.201300,7105.977043,5699.585753,0.000000
152.201620,6291.750507,7402.059420,-229.828649
152.201941,5921.647536,9104.533087,-536.266849
152.202262,5403.503377,8068.244768,76.609550
152.202582,5181.441594,6661.853478,919.314598
152.202903,4959.379811,5107.421000,3294.210641
152.203224,4811.338623,5033.400406,2221.676944
152.203545,5773.606348,6217.729913,1302.362347
152.203865,7105.977043,7105.977043,689.485948
152.204186,8512.368333,7550.100608,-459.657299
152.204507,9992.780217,7476.080014,-612.876398
152.204827,11177.109724,6809.894666,-383.047749
152.205148,11547.212695,5847.626942,153.219100
152.205469,11917.315666,4737.318029,459.657299
152.205790,11991.336260,3627.009116,383.047749
152.206110,11843.295072,3182.885551,-383.047749
152.206431,11769.274478,3256.906145,-1149.143247
152.206752,11843.295072,3775.050304,-1532.190996
152.207072,11991.336260,5255.462188,-2221.676944
152.207393,12213.398043,5995.668130,-1608.800546
152.207714,11917.315666,6069.688724,-1302.362347
152.208035,11029.068536,6069.688724,-153.219100
152.208355,8068.244768,5107.421000,689.485948
152.208676,7476.080014,4811.338623,842.705048
152.208997,7920.203579,5329.482782,306.438199
152.209317,7105.977043,5847.626942,-383.047749
152.209638,7105.977043,5995.668130,-766.095498
152.209959,7254.018232,6217.729913,-1149.143247
152.210280,7402.059420,5699.585753,-612.876398
152.210600,7179.997637,4959.379811,612.876398
152.210921,7698.141797,4959.379811,842.705048
152.211242,7846.182985,5181.441594,383.047749
152.211562,7994.224174,5699.585753,842.705048
152.211883,8808.450710,5329.482782,1378.971896
152.212204,9474.636058,5551.544565,306.438199
152.212525,9770.718434,6439.791695,-153.219100
152.212845,9992.780217,7402.059420,-1072.533697
152.213166,10066.800811,7920.203579,-1762.019645
152.213487,9992.780217,6587.832884,-919.314598
152.213807,10214.842000,5181.441594,-153.219100
152.214128,10214.842000,3701.029710,1302.362347
152.214449,9696.697840,2516.700203,1838.629195
152.214769,9326.594869,1998.556043,995.924147
152.215090,9918.759623,2146.597232,229.828649
152.215411,10881.027347,2590.720797,-919.314598
152.215732,11473.192101,3330.926739,-1225.752797
152.216052,11843.295072,4589.276840,-2145.067394
152.216373,11917.315666,6439.791695,-2528.115143
152.216694,11547.212695,7254.018232,-2451.505594
152.217014,11843.295072,7772.162391,-2145.067394
152.217335,11399.171507,7698.141797,-1225.752797
152.217656,10214.842000,7624.121203,76.609550
152.217977,8882.471304,6439.791695,995.924147
152.218297,8142.265362,5329.482782,2145.067394
152.218618,7105.977043,4293.194464,2681.334243
152.218939,6513.812290,3627.009116,2987.772442
152.219259,6069.688724,3404.947333,1762.019645
152.219580,6143.709319,3627.009116,995.924147
152.219901,6809.894666,4145.153275,1225.752797
152.220222,8142.265362,5107.421000,1072.533697
152.220542,9400.615463,6735.874072,306.438199
152.220863,9992.780217,7698.141797,-153.219100
152.221184,10362.883188,8216.285956,-919.314598
152.221504,10732.986159,8364.327145,-842.705048
152.221825,10214.842000,7328.038826,-459.657299
152.222146,10288.862594,6217.729913,-153.219100
152.222467,10436.903782,5033.400406,-536.266849
152.222787,10510.924376,3775.050304,-842.705048
152.223108,9844.739029,2590.720797,-842.705048
152.223429,10214.842000,1776.494261,-153.219100
152.223749,10288.862594,2442.679609,-153.219100
152.224070,10214.842000,4071.132681,-383.047749
152.224391,10066.800811,6365.771101,536.266849
152.224712,9474.636058,7550.100608,919.314598
152.225032,8956.491898,7624.121203,689.485948
152.225353,7402.059420,7476.080014,536.266849
152.225674,6069.688724,7402.059420,-383.047749
152.225994,4663.297435,7179.997637,-536.266849
152.226315,4367.215058,7105.977043,-1149.143247
152.226636,4959.379811,6957.935855,-459.657299
152.226957,4959.379811,7550.100608,-459.657299
152.227277,4071.132681,8660.409521,689.485948
152.227598,4441.235652,9696.697840,2145.067394
152.227919,4589.276840,10288.862594,3370.820191
152.228239,5699.585753,10214.842000,4213.525239
152.228560,5847.626942,8956.491898,4519.963438
152.228881,5773.606348,7624.121203,3753.867940
152.229202,5033.400406,7550.100608,3753.867940
152.229522,5181.441594,7920.203579,3370.820191
152.229843,5699.585753,9030.512492,2834.553343
152.230164,7031.956449,9770.718434,2987.772442
152.230484,7402.059420,9918.759623,3294.210641
152.230805,7179.997637,8956.491898,4519.963438
152.231126,7254.018232,7846.182985,5286.058936
152.231447,7179.997637,7254.018232,4903.011187
152.231767,7254.018232,7402.059420,3983.696590
152.232088,7698.141797,7846.182985,4060.306139
152.232409,7550.100608,8290.306550,3983.696590
152.232729,8290.306550,9030.512492,4903.011187
152.233050,8216.285956,9400.615463,6052.154434
152.233371,7328.038826,9178.553681,7048.078582
152.233692,6661.853478,8216.285956,6588.421283
152.234012,6439.791695,7105.977043,6818.249932
152.234333,5847.626942,5995.668130,7124.688131
152.234654,5477.523971,5033.400406,7354.516781
152.234974,5181.441594,4885.359217,7124.688131
152.235295,5255.462188,6069.688724,6818.249932
152.235616,5699.585753,7254.018232,6511.811733
152.235936,5403.503377,7772.162391,6511.811733
152.236257,5403.503377,7698.141797,7507.735880
152.236578,4663.297435,7550.100608,8197.221829
152.236899,4589.276840,6957.935855,8656.879127
152.237219,3997.112087,6069.688724,8197.221829
152.237540,3552.988522,5699.585753,7354.516781
152.237861,3182.885551,5551.544565,6741.640382
152.238181,3034.844362,5551.544565,6741.640382
152.238502,2664.741391,5329.482782,6358.592633
152.238823,2812.782580,5551.544565,5975.544884
152.239144,3775.050304,6069.688724,6665.030833
152.239464,3775.050304,6809.894666,6741.640382
152.239785,3627.009116,6809.894666,7354.516781
152.240106,4071.132681,6809.894666,6588.421283
152.240426,3849.070898,6587.832884,5669.106685
152.240747,3627.009116,6439.791695,4673.182538
152.241068,3923.091493,6217.729913,4136.915689
152.241389,3923.091493,6069.688724,3907.087040
152.241709,4219.173869,6143.709319,4060.306139
152.242030,4145.153275,6069.688724,4290.134789
152.242351,3775.050304,6513.812290,3064.381992
152.242671,3923.091493,6587.832884,2451.505594
152.242992,4811.338623,7402.059420,3370.820191
152.243313,5181.441594,8586.388927,3677.258390
152.243634,5477.523971,9474.636058,3370.820191
152.243954,6217.729913,9844.739029,3140.991542
152.244275,6217.729913,10362.883188,4366.744339
152.244596,5995.668130,10658.965565,6052.154434
152.244916,5551.544565,10732.986159,5975.544884
152.245237,4737.318029,9696.697840,5515.887586
152.245558,4367.215058,8438.347739,5669.106685
152.245879,3923.091493,7031.956449,6052.154434
152.246199,3849.070898,4441.235652,4519.963438
152.246520,3627.009116,2960.823768,2145.067394
152.246841,4441.235652,3627.009116,459.657299
152.247161,5773.606348,6365.771101,-919.314598
152.247482,7994.224174,10807.006753,-1302.362347
152.247803,10066.800811,14878.139434,-1915.238745
152.248124,11103.089130,18209.066173,-1149.143247
152.248444,10955.047942,18357.107362,689.485948
152.248765,10510.924376,16210.510130,2604.724693
152.249086,7994.224174,12731.542202,5515.887586
152.249406,6217.729913,8364.327145,6741.640382
152.249727,5403.503377,6513.812290,7431.126331
152.250048,1628.453072,6365.771101,6511.811733
152.250369,814.226536,6587.832884,5056.230287
152.250689,1776.494261,5847.626942,4903.011187
152.251010,3701.029710,5403.503377,4519.963438
152.251331,3404.947333,5181.441594,4290.134789
152.251651,4811.338623,7254.018232,3907.087040
152.251972,6513.812290,10881.027347,3064.381992
152.252293,6143.709319,14285.974681,2528.115143
152.252614,6735.874072,15470.304188,1991.848295
152.252934,9548.656652,15322.262999,1915.238745
152.253255,8512.368333,13619.789333,3140.991542
152.253576,4959.379811,8956.491898,4826.401637
152.253896,4959.379811,4959.379811,5745.716235
152.254217,3849.070898,2738.761985,7048.078582
152.254538,1110.308913,3478.967927,5898.935335
152.254858,2368.659014,5403.503377,4749.792088
152.255179,4959.379811,7846.182985,4443.353888
152.255500,4885.359217,7254.018232,5975.544884
152.255821,5329.482782,5329.482782,8273.831378
152.256141,7031.956449,6661.853478,9422.974625
152.256462,4885.359217,9918.759623,7890.783629
152.256783,1258.350101,11325.150913,5592.497135
152.257103,3108.864956,9178.553681,3677.258390
152.257424,5329.482782,6587.832884,3447.429741
152.257745,5107.421000,4885.359217,6588.421283
152.258066,5033.400406,8068.244768,9422.974625
152.258386,2072.576638,9844.739029,8273.831378
152.258707,1036.288319,10510.924376,5822.325785
152.259028,2516.700203,7550.100608,5822.325785
152.259348,3775.050304,3256.906145,6435.202183
152.259669,3330.926739,0.000000,7814.174080
152.259990,4515.256246,1480.411884,8580.269578
152.260311,5847.626942,7550.100608,7201.297681
152.260631,4959.379811,11621.233289,5056.230287
152.260952,4219.173869,10140.821405,3677.258390
152.261273,4959.379811,7179.997637,5515.887586
152.261593,3997.112087,5995.668130,8273.831378
152.261914,2146.597232,4219.173869,9882.631924
152.262235,4145.153275,5551.544565,8427.050478
152.262556,3775.050304,8660.409521,6435.202183
152.262876,2664.741391,12287.418637,4060.306139
152.263197,4293.194464,12953.603985,3370.820191
152.263518,5995.668130,10955.047942,3983.696590
152.263838,3552.988522,7105.977043,5515.887586
152.264159,4219.173869,4145.153275,7584.345430
152.264480,5329.482782,3923.091493,8273.831378
152.264801,3775.050304,5625.565159,7277.907231
152.265121,2516.700203,5699.585753,4979.620737
152.265442,5477.523971,8216.285956,3983.696590
152.265763,5847.626942,10658.965565,4519.963438
152.266083,4441.235652,11621.233289,5132.839837
152.266404,6661.853478,10584.944971,5592.497135
152.266725,7402.059420,8586.388927,4136.915689
152.267046,4737.318029,6587.832884,2451.505594
152.267366,3997.112087,5181.441594,995.924147
152.267687,5625.565159,5921.647536,459.657299
152.268008,5995.668130,9326.594869,2298.286494
152.268328,5995.668130,12065.356855,3524.039291
152.268649,6883.915261,11843.295072,4443.353888
152.268970,6957.935855,10807.006753,3370.820191
152.269291,4441.235652,9770.718434,2221.676944
152.269611,3552.988522,8068.244768,1685.410096
152.269932,2812.782580,6365.771101,2068.457845
152.270253,3108.864956,5773.606348,2681.334243
152.270573,4145.153275,6957.935855,3600.648841
152.270894,4737.318029,8512.368333,1762.019645
152.271215,3627.009116,9918.759623,-536.266849
152.271536,3701.029710,10584.944971,-153.219100
152.271856,5403.503377,10436.903782,1302.362347
152.272177,6809.894666,9030.512492,2298.286494
152.272498,6217.729913,7920.203579,1532.190996
152.272818,5921.647536,8512.368333,919.314598
152.273139,5773.606348,10066.800811,-306.438199
152.273460,6735.874072,11177.109724,-153.219100
152.273780,6069.688724,10214.842000,612.876398
152.274101,5329.482782,7031.956449,842.705048
152.274422,5477.523971,4441.235652,2145.067394
152.274743,5551.544565,5329.482782,3294.210641
152.275063,3923.091493,6291.750507,1378.971896
152.275384,3552.988522,7105.977043,-842.705048
152.275705,5921.647536,8364.327145,-1225.752797
152.276025,6661.853478,9696.697840,1072.533697
152.276346,7254.018232,11103.089130,3370.820191
152.276667,7031.956449,11547.212695,2528.115143
152.276988,3997.112087,9918.759623,76.609550
152.277308,3034.844362,8216.285956,-383.047749
152.277629,3256.906145,8216.285956,689.485948
152.277950,3923.091493,8586.388927,2145.067394
152.278270,4737.318029,9992.780217,1915.238745
152.278591,3256.906145,10881.027347,766.095498
152.278912,740.205942,9252.574275,-842.705048
152.279233,2220.617826,6735.874072,1072.533697
152.279553,4219.173869,5403.503377,3294.210641
152.279874,4219.173869,6365.771101,3140.991542
152.280195,4145.153275,8660.409521,842.705048
152.280515,3627.009116,10214.842000,-1532.190996
152.280836,4219.173869,9770.718434,536.266849
152.281157,6661.853478,8882.471304,4749.792088
152.281477,6957.935855,7402.059420,3753.867940
152.281798,5255.462188,7105.977043,459.657299
152.282119,4441.235652,7846.182985,-1225.752797
152.282440,4885.359217,7994.224174,-612.876398
152.282760,6513.812290,6143.709319,459.657299
152.283081,6587.832884,5329.482782,2604.724693
152.283402,7179.997637,6957.935855,2068.457845
152.283722,5551.544565,7994.224174,689.485948
152.284043,4367.215058,7772.162391,306.438199
152.284364,3552.988522,6513.812290,536.266849
152.284684,4885.359217,5255.462188,1991.848295
152.285005,6291.750507,5847.626942,2604.724693
152.285326,4589.276840,6809.894666,536.266849
152.285646,2886.803174,7402.059420,-2451.505594
152.285967,4959.379811,7846.182985,-2374.896044
152.286288,5181.441594,7772.162391,-536.266849
152.286609,4737.318029,7179.997637,229.828649
152.286929,5625.565159,8956.491898,-612.876398
152.287250,5773.606348,10955.047942,-995.924147
152.287571,4811.338623,10584.944971,76.609550
152.287891,3701.029710,8956.491898,1838.629195
152.288212,2886.803174,6661.853478,1991.848295
152.288533,3182.885551,6365.771101,1225.752797
152.288853,3701.029710,8216.285956,76.609550
152.289174,3256.906145,10066.800811,-1225.752797
152.289495,1924.535449,9252.574275,-1608.800546
152.289815,3256.906145,7994.224174,842.705048
152.290136,4145.153275,7105.977043,2528.115143
152.290457,4293.194464,7179.997637,2068.457845
152.290778,4885.359217,9918.759623,-459.657299
152.291098,4589.276840,11843.295072,-3524.039291
152.291419,4219.173869,10510.924376,-2681.334243
152.291740,6365.771101,7105.977043,0.000000
152.292060,9918.759623,6513.812290,1225.752797
152.292381,7550.100608,7772.162391,-536.266849
152.292702,5181.441594,9400.615463,-4136.915689
152.293022,4663.297435,8586.388927,-5515.887586
152.293343,6217.729913,7254.018232,-2604.724693
152.293664,8586.388927,7105.977043,1455.581446
152.293985,9622.677246,7698.141797,612.876398
152.294305,6957.935855,9252.574275,-1532.190996
152.294626,3923.091493,9770.718434,-2681.334243
152.294947,3701.029710,7254.018232,-2221.676944
152.295267,4811.338623,3997.112087,-1225.752797
152.295588,6513.812290,4367.215058,306.438199
152.295909,7105.977043,8808.450710,-1762.019645
152.296229,4441.235652,11621.233289,-4366.744339
152.296550,2960.823768,10807.006753,-4519.963438
152.296871,5551.544565,9104.533087,-1149.143247
152.297191,6661.853478,7846.182985,2451.505594
152.297512,4959.379811,8512.368333,1685.410096
152.297833,3701.029710,9400.615463,-2145.067394
152.298154,2960.823768,8660.409521,-4826.401637
152.298474,2960.823768,5625.565159,-1838.629195
152.298795,5551.544565,3404.947333,1532.190996
152.299116,6217.729913,5033.400406,689.485948
152.299436,4959.379811,8512.368333,-2451.505594
152.299757,4219.173869,10658.965565,-5286.058936
152.300078,4737.318029,9252.574275,-4290.134789
152.300398,6513.812290,7402.059420,306.438199
152.300719,8882.471304,8068.244768,2987.772442
152.301040,7846.182985,9474.636058,-383.047749
152.301360,5255.462188,10584.944971,-4060.306139
152.301681,4219.173869,9696.697840,-4519.963438
152.302002,6143.709319,7550.100608,-1302.362347
152.302323,6809.894666,5329.482782,1685.410096
152.302643,5921.647536,5403.503377,536.266849
152.302964,5403.503377,7846.182985,-2145.067394
152.303285,4737.318029,10658.965565,-1838.629195
152.303605,5329.482782,10362.883188,76.609550
152.303926,5329.482782,7920.203579,1532.190996
152.304247,6143.709319,7772.162391,1455.581446
152.304567,6587.832884,9474.636058,2068.457845
152.304888,6143.709319,10510.924376,919.314598
152.305209,4959.379811,9030.512492,0.000000
152.305530,3478.967927,5255.462188,153.219100
152.305850,4219.173869,4589.276840,1072.533697
152.306171,4959.379811,7550.100608,1762.019645
152.306492,4589.276840,10288.862594,306.438199
152.306812,4367.215058,10214.842000,-2221.676944
152.307133,4885.359217,8512.368333,-2068.457845
152.307454,3478.967927,5255.462188,1149.143247
152.307774,4145.153275,4663.297435,3064.381992
152.308095,5625.565159,7846.182985,1225.752797
152.308416,4071.132681,10066.800811,-2911.162892
152.308736,2812.782580,8808.450710,-4213.525239
152.309057,5255.462188,6587.832884,-919.314598
152.309378,6661.853478,6365.771101,3907.087040
152.309699,6365.771101,7920.203579,3753.867940
152.310019,4589.276840,9178.553681,-995.924147
152.310340,2072.576638,7846.182985,-5592.497135
152.310661,2368.659014,5255.462188,-2221.676944
152.310981,6735.874072,3997.112087,3677.258390
152.311302,8216.285956,5255.462188,3294.210641
152.311623,5255.462188,8512.368333,-459.657299
152.311943,4367.215058,10288.862594,-3830.477490
152.312264,4071.132681,8512.368333,-2451.505594
152.312585,5033.400406,4737.318029,1838.629195
152.312905,7031.956449,3775.050304,3524.039291
152.313226,7402.059420,7698.141797,229.828649
152.313547,4515.256246,10807.006753,-3064.381992
152.313868,3182.885551,10140.821405,-3600.648841
152.314188,5255.462188,6957.935855,-536.266849
152.314509,6143.709319,4219.173869,1838.629195
152.314830,5773.606348,4737.318029,1838.629195
152.315150,4811.338623,7328.038826,-1762.019645
152.315471,4293.194464,9622.677246,-4903.011187
152.315792,4663.297435,8808.450710,-3907.087040
152.316112,7105.977043,6883.915261,0.000000
152.316433,8068.244768,7994.224174,2374.896044
152.316754,6439.791695,10732.986159,306.438199
152.317075,3775.050304,11251.130318,-4596.572988
152.317395,3478.967927,8882.471304,-6588.421283
152.317716,4737.318029,5995.668130,-2834.553343
152.318037,7105.977043,5699.585753,2298.286494
152.318357,6735.874072,8068.244768,1072.533697
152.318678,4811.338623,11251.130318,-3753.867940
152.318999,2960.823768,11177.109724,-6052.154434
152.319319,2738.761985,7698.141797,-3064.381992
152.319640,5255.462188,3404.947333,1225.752797
152.319961,7105.977043,4589.276840,842.705048
152.320281,5995.668130,9178.553681,-3064.381992
152.320602,4589.276840,12435.459826,-5975.544884
152.320923,5699.585753,12879.583391,-5515.887586
152.321244,6365.771101,11251.130318,-383.047749
152.321564,6365.771101,9326.594869,2911.162892
152.321885,5773.606348,8364.327145,1915.238745
152.322206,5625.565159,10140.821405,-1455.581446
152.322526,2442.679609,9992.780217,-3447.429741
152.322847,2442.679609,6735.874072,-2911.162892
152.323168,4737.318029,4737.318029,-766.095498
152.323488,6291.750507,6365.771101,919.314598
152.323809,5921.647536,9770.718434,0.000000
152.324130,5773.606348,12657.521608,-3983.696590
152.324450,4811.338623,11029.068536,-4903.011187
152.324771,5403.503377,7772.162391,0.000000
152.325092,7994.224174,6809.894666,4979.620737
152.325413,7698.141797,8882.471304,3294.210641
152.325733,4367.215058,11769.274478,-1838.629195
152.326054,3330.926739,10955.047942,-4979.620737
152.326375,3997.112087,6883.915261,-3217.601092
152.326695,5625.565159,4441.235652,3217.601092
152.327016,7328.038826,4885.359217,4903.011187
152.327337,6069.688724,7402.059420,536.266849
152.327657,3182.885551,9548.656652,-3447.429741
152.327978,2516.700203,8364.327145,-1685.410096
152.328299,5847.626942,6069.688724,3064.381992
152.328620,9178.553681,6217.729913,5132.839837
152.328940,7402.059420,8216.285956,1685.410096
152.329261,4589.276840,10066.800811,-3370.820191
152.329582,3627.009116,8290.306550,-3064.381992
152.329902,4441.235652,5773.606348,1532.190996
152.330223,5255.462188,3404.947333,4903.011187
152.330544,5477.523971,5403.503377,2451.505594
152.330864,3330.926739,9178.553681,-2145.067394
152.331185,1702.473667,9696.697840,-3294.210641
152.331506,3923.091493,7476.080014,0.000000
152.331826,5773.606348,4515.256246,3753.867940
152.332147,5255.462188,3849.070898,3677.258390
152.332468,3997.112087,6809.894666,995.924147
152.332789,2442.679609,8586.388927,-3064.381992
152.333109,3108.864956,7772.162391,-2604.724693
152.333430,5551.544565,6809.894666,1378.971896
152.333751,7254.018232,6957.935855,3524.039291
152.334071,7105.977043,9252.574275,2528.115143
152.334392,4293.194464,11251.130318,-612.876398
152.334713,2442.679609,9548.656652,-2374.896044
