#time,accel_x,accel_y,accel_z
512.421813,4885.359217,7994.224174,-153.219100
512.422134,5107.421000,8290.306550,0.000000
512.422454,4959.379811,8142.265362,-153.219100
512.422775,4959.379811,7994.224174,0.000000
512.423095,4959.379811,7920.203579,-76.609550
512.423415,5107.421000,8068.244768,0.000000
512.423736,5255.462188,8364.327145,0.000000
512.424056,4959.379811,8068.244768,0.000000
512.424377,4959.379811,8216.285956,0.000000
512.424697,4959.379811,8290.306550,0.000000
512.425017,4885.359217,8142.265362,0.000000
512.425338,4959.379811,8142.265362,0.000000
512.425658,4959.379811,8290.306550,-153.219100
512.425978,4811.338623,8142.265362,0.000000
512.426299,4885.359217,7994.224174,0.000000
512.426619,4589.276840,8290.306550,-229.828649
512.426940,5181.441594,8364.327145,0.000000
512.427260,4737.318029,8142.265362,-306.438199
512.427580,4737.318029,7994.224174,-153.219100
512.427901,4959.379811,7994.224174,-459.657299
512.428221,4885.359217,7994.224174,-153.219100
512.428542,4811.338623,7994.224174,0.000000
512.428862,5033.400406,8142.265362,-229.828649
512.429182,5033.400406,8068.244768,-306.438199
512.429503,4959.379811,8142.265362,0.000000
512.429823,5107.421000,7920.203579,0.000000
512.430144,5625.565159,8142.265362,0.000000
512.430464,5107.421000,8216.285956,-306.438199
512.430784,5033.400406,8216.285956,-153.219100
512.431105,4959.379811,8068.244768,0.000000
512.431425,5107.421000,7846.182985,-229.828649
512.431745,4885.359217,8068.244768,-229.828649
512.432066,5107.421000,7994.224174,0.000000
512.432386,4959.379811,7920.203579,76.609550
512.432707,4885.359217,7920.203579,-153.219100
512.433027,4663.297435,7624.121203,-612.876398
512.433347,4219.173869,7254.018232,0.000000
512.433668,4293.194464,7698.141797,0.000000
512.433988,4663.297435,8586.388927,-306.438199
512.434309,4663.297435,9622.677246,-612.876398
512.434629,4589.276840,9992.780217,-919.314598
512.434949,4589.276840,9474.636058,-1149.143247
512.435270,4367.215058,8956.491898,-459.657299
512.435590,3256.906145,8586.388927,459.657299
512.435911,2812.782580,9104.533087,842.705048
512.436231,2886.803174,9474.636058,689.485948
512.436551,2960.823768,8808.450710,0.000000
512.436872,2664.741391,8290.306550,-766.095498
512.437192,3034.844362,8438.347739,-536.266849
512.437512,3256.906145,9400.615463,153.219100
512.437833,3552.988522,9992.780217,153.219100
512.438153,2368.659014,9178.553681,459.657299
512.438474,2516.700203,8808.450710,229.828649
512.438794,2516.700203,9400.615463,0.000000
512.439114,1924.535449,10881.027347,-919.314598
512.439435,1850.514855,12139.377449,-1685.410096
512.439755,888.247130,12065.356855,-1685.410096
512.440076,814.226536,11029.068536,-1302.362347
512.440396,222.061783,11029.068536,-1149.143247
512.440716,-444.123565,11769.274478,-995.924147
512.441037,-1332.370696,12805.562797,0.000000
512.441357,-1850.514855,13249.686362,612.876398
512.441678,-2146.597232,12139.377449,1149.143247
512.441998,-1258.350101,11769.274478,1915.238745
512.442318,-1184.329507,12287.418637,2374.896044
512.442639,-1924.535449,12435.459826,1455.581446
512.442959,-2738.761985,11399.171507,-153.219100
512.443279,-1924.535449,10066.800811,-1149.143247
512.443600,-1406.391290,9992.780217,-306.438199
512.443920,-592.164754,10066.800811,1149.143247
512.444241,148.041188,10732.986159,842.705048
512.444561,222.061783,11547.212695,-306.438199
512.444881,888.247130,12065.356855,-1685.410096
512.445202,1480.411884,11177.109724,-1225.752797
512.445522,2886.803174,10288.862594,-536.266849
512.445843,3256.906145,10362.883188,842.705048
512.446163,2664.741391,9992.780217,-766.095498
512.446483,1850.514855,9474.636058,-2451.505594
512.446804,1998.556043,8882.471304,-2757.943793
512.447124,2294.638420,9474.636058,-1072.533697
512.447445,2442.679609,9770.718434,383.047749
512.447765,2294.638420,9992.780217,306.438199
512.448085,1480.411884,10584.944971,-766.095498
512.448406,888.247130,11029.068536,-536.266849
512.448726,296.082377,10807.006753,-76.609550
512.449046,74.020594,9918.759623,612.876398
512.449367,-222.061783,9770.718434,689.485948
512.449687,222.061783,10362.883188,995.924147
512.450008,-666.185348,10510.924376,842.705048
512.450328,-814.226536,10955.047942,689.485948
512.450648,-370.102971,11325.150913,1072.533697
512.450969,370.102971,11399.171507,1225.752797
512.451289,888.247130,11399.171507,459.657299
512.451610,962.267725,11177.109724,-689.485948
512.451930,1332.370696,10584.944971,-919.314598
512.452250,888.247130,10066.800811,-689.485948
512.452571,1332.370696,9474.636058,76.609550
512.452891,1184.329507,8956.491898,689.485948
512.453212,1776.494261,9252.574275,612.876398
512.453532,2220.617826,9992.780217,-153.219100
512.453852,2294.638420,10584.944971,0.000000
512.454173,2664.741391,10510.924376,-306.438199
512.454493,3034.844362,10214.842000,-1072.533697
512.454813,3627.009116,9622.677246,-1302.362347
512.455134,3552.988522,9696.697840,-842.705048
512.455454,3256.906145,9992.780217,-1149.143247
512.455775,2220.617826,10362.883188,-229.828649
512.456095,1998.556043,11103.089130,0.000000
512.456415,1184.329507,11399.171507,-536.266849
512.456736,740.205942,11325.150913,-1608.800546
512.457056,0.000000,10214.842000,-2374.896044
512.457377,-1036.288319,9178.553681,-1991.848295
512.457697,-1702.473667,8734.430116,-536.266849
512.458017,-1554.432478,9030.512492,1685.410096
512.458338,-962.267725,11103.089130,1685.410096
512.458658,-666.185348,12583.501014,1532.190996
512.458979,0.000000,13767.830521,1302.362347
512.459299,0.000000,13841.851115,536.266849
512.459619,1036.288319,12435.459826,-536.266849
512.459940,1406.391290,10881.027347,-536.266849
512.460260,1184.329507,9844.739029,-919.314598
512.460580,148.041188,9326.594869,-1378.971896
512.460901,-370.102971,9252.574275,-1608.800546
512.461221,-1850.514855,10584.944971,-1378.971896
512.461542,-1998.556043,11917.315666,-1225.752797
512.461862,-888.247130,12287.418637,-306.438199
512.462182,518.144159,12879.583391,459.657299
512.462503,888.247130,13175.665768,689.485948
512.462823,518.144159,13471.748144,536.266849
512.463144,296.082377,13249.686362,0.000000
512.463464,518.144159,12435.459826,-459.657299
512.463784,1480.411884,10140.821405,-919.314598
512.464105,1924.535449,8068.244768,-1072.533697
512.464425,2146.597232,8142.265362,-766.095498
512.464745,1480.411884,9548.656652,459.657299
512.465066,740.205942,11473.192101,1225.752797
512.465386,592.164754,10807.006753,1378.971896
512.465707,1110.308913,8808.450710,229.828649
512.466027,1406.391290,7920.203579,0.000000
512.466347,1258.350101,8808.450710,76.609550
512.466668,1110.308913,11177.109724,-919.314598
512.466988,888.247130,13175.665768,-2221.676944
512.467309,518.144159,13249.686362,-2604.724693
512.467629,888.247130,12509.480420,-2145.067394
512.467949,518.144159,12583.501014,-612.876398
512.468270,0.000000,12657.521608,995.924147
512.468590,-296.082377,12435.459826,1225.752797
512.468911,518.144159,10955.047942,766.095498
512.469231,-370.102971,9104.533087,766.095498
512.469551,-666.185348,8290.306550,1302.362347
512.469872,-1554.432478,7772.162391,1455.581446
512.470192,-1554.432478,8660.409521,1072.533697
512.470512,-592.164754,9178.553681,842.705048
512.470833,888.247130,9548.656652,153.219100
512.471153,1998.556043,11399.171507,0.000000
512.471474,1998.556043,13545.768739,76.609550
512.471794,1554.432478,13027.624579,-1378.971896
512.472114,2442.679609,9770.718434,-2757.943793
512.472435,2368.659014,7402.059420,-2451.505594
512.472755,2442.679609,8068.244768,0.000000
512.473076,2368.659014,11473.192101,1225.752797
512.473396,1110.308913,13619.789333,-153.219100
512.473716,592.164754,12805.562797,-3217.601092
512.474037,2146.597232,10881.027347,-3140.991542
512.474357,666.185348,8068.244768,-1225.752797
512.474678,-444.123565,7105.977043,-536.266849
512.474998,222.061783,10288.862594,383.047749
512.475318,-296.082377,12731.542202,612.876398
512.475639,-592.164754,13249.686362,383.047749
512.475959,296.082377,12657.521608,919.314598
512.476279,0.000000,11103.089130,1685.410096
512.476600,296.082377,11769.274478,2757.943793
512.476920,-444.123565,11399.171507,1838.629195
512.477241,444.123565,9696.697840,-919.314598
512.477561,2886.803174,8660.409521,-995.924147
512.477881,3404.947333,7920.203579,-689.485948
512.478202,1998.556043,7624.121203,0.000000
512.478522,3330.926739,7105.977043,1685.410096
512.478843,5107.421000,8956.491898,919.314598
512.479163,5477.523971,9548.656652,0.000000
512.479483,7105.977043,9918.759623,-1378.971896
512.479804,8660.409521,10807.006753,-2145.067394
512.480124,7772.162391,10362.883188,-1838.629195
512.480445,5995.668130,8142.265362,-1608.800546
512.480765,4959.379811,6069.688724,-2374.896044
512.481085,3256.906145,5033.400406,-2374.896044
512.481406,3552.988522,6809.894666,919.314598
512.481726,4145.153275,9770.718434,1608.800546
512.482046,3627.009116,10140.821405,0.000000
512.482367,4071.132681,10288.862594,-766.095498
512.482687,4293.194464,9548.656652,383.047749
512.483008,2516.700203,8438.347739,1455.581446
512.483328,2220.617826,6957.935855,2068.457845
512.483649,3552.988522,6439.791695,919.314598
512.483969,5033.400406,7105.977043,0.000000
512.484289,4663.297435,8808.450710,0.000000
512.484610,4219.173869,10140.821405,76.609550
512.484930,4441.235652,9548.656652,612.876398
512.485251,4663.297435,8808.450710,1608.800546
512.485571,5773.606348,6735.874072,842.705048
512.485892,6661.853478,4737.318029,-995.924147
512.486212,7031.956449,4737.318029,-1302.362347
512.486532,6957.935855,5255.462188,0.000000
512.486853,6587.832884,5477.523971,536.266849
512.487173,7031.956449,5921.647536,383.047749
512.487494,8290.306550,7772.162391,-1149.143247
512.487814,9252.574275,10066.800811,-2604.724693
512.488135,8290.306550,10140.821405,-3447.429741
512.488455,7476.080014,9104.533087,-3140.991542
512.488775,5847.626942,7105.977043,-995.924147
512.489096,4589.276840,6217.729913,919.314598
512.489416,3775.050304,7105.977043,1072.533697
512.489737,2590.720797,8512.368333,-383.047749
512.490057,2368.659014,9474.636058,-1302.362347
512.490378,2072.576638,9548.656652,-1225.752797
512.490698,2664.741391,8956.491898,-229.828649
512.491018,2368.659014,9178.553681,2221.676944
512.491339,3034.844362,10584.944971,2221.676944
512.491659,2368.659014,10510.924376,1532.190996
512.491980,2664.741391,10807.006753,1225.752797
512.492300,1924.535449,9918.759623,536.266849
512.492621,2442.679609,9252.574275,919.314598
512.492941,4145.153275,9104.533087,2221.676944
512.493261,4737.318029,9844.739029,1149.143247
512.493582,3701.029710,9030.512492,-1455.581446
512.493902,3552.988522,7698.141797,-3140.991542
512.494223,4367.215058,6957.935855,-1608.800546
512.494543,4885.359217,5255.462188,1225.752797
512.494864,6883.915261,5625.565159,2221.676944
512.495184,8364.327145,7105.977043,536.266849
512.495504,7920.203579,8956.491898,-2145.067394
512.495825,8438.347739,11103.089130,-2911.162892
512.496145,7254.018232,9844.739029,-3600.648841
512.496466,7105.977043,6513.812290,-2604.724693
512.496786,7920.203579,4959.379811,-229.828649
512.497107,7994.224174,5699.585753,-306.438199
512.497427,5625.565159,7031.956449,-2145.067394
512.497747,4071.132681,8438.347739,-2604.724693
512.498068,3923.091493,8068.244768,-2451.505594
512.498388,4293.194464,7105.977043,766.095498
512.498709,4959.379811,7105.977043,3370.820191
512.499029,4441.235652,7772.162391,1608.800546
512.499350,4367.215058,10288.862594,153.219100
512.499670,3701.029710,11473.192101,76.609550
512.499990,2738.761985,9474.636058,0.000000
512.500311,2590.720797,5255.462188,842.705048
512.500631,3775.050304,5847.626942,1302.362347
512.500952,3627.009116,8438.347739,2145.067394
512.501272,2812.782580,10584.944971,459.657299
512.501593,3182.885551,10658.965565,-1991.848295
512.501913,3923.091493,8216.285956,-2451.505594
512.502233,4589.276840,7031.956449,0.000000
512.502554,5847.626942,7994.224174,2451.505594
512.502874,4663.297435,9474.636058,1455.581446
512.503195,4811.338623,10214.842000,-689.485948
512.503515,5995.668130,9770.718434,-1149.143247
512.503836,4811.338623,7254.018232,-1608.800546
512.504156,5107.421000,5921.647536,-153.219100
512.504476,6809.894666,7550.100608,76.609550
512.504797,6439.791695,8364.327145,-1302.362347
512.505117,5921.647536,8512.368333,-2145.067394
512.505438,7031.956449,7920.203579,-612.876398
512.505758,5995.668130,6365.771101,229.828649
512.506079,4885.359217,6365.771101,1838.629195
512.506399,5181.441594,7328.038826,1455.581446
512.506719,5625.565159,7920.203579,-1072.533697
512.507040,5921.647536,8586.388927,-842.705048
512.507360,7254.018232,9178.553681,0.000000
512.507681,5329.482782,8142.265362,842.705048
512.508001,3552.988522,6439.791695,1762.019645
512.508322,4589.276840,7105.977043,1685.410096
512.508642,5477.523971,7550.100608,-306.438199
512.508962,4071.132681,7550.100608,-689.485948
512.509283,5403.503377,7920.203579,-229.828649
512.509603,4367.215058,6365.771101,-459.657299
512.509924,4589.276840,6291.750507,689.485948
512.510244,5255.462188,7994.224174,1149.143247
512.510565,5847.626942,9474.636058,-383.047749
512.510885,5551.544565,9992.780217,-536.266849
512.511205,6587.832884,9918.759623,76.609550
512.511526,4885.359217,7402.059420,-383.047749
512.511846,5033.400406,5699.585753,153.219100
512.512167,6217.729913,6217.729913,689.485948
512.512487,6439.791695,7328.038826,-459.657299
512.512808,6513.812290,8068.244768,-1302.362347
512.513128,6439.791695,7328.038826,-2221.676944
512.513448,5477.523971,6069.688724,-1915.238745
512.513769,5477.523971,5699.585753,766.095498
512.514089,6809.894666,7476.080014,1225.752797
512.514410,7179.997637,9104.533087,-306.438199
512.514730,6217.729913,9696.697840,-1991.848295
512.515051,5625.565159,9178.553681,-2145.067394
512.515371,5181.441594,7031.956449,-1225.752797
512.515691,5181.441594,5847.626942,1302.362347
512.516012,6143.709319,7031.956449,1915.238745
512.516332,5477.523971,7920.203579,76.609550
512.516653,4737.318029,8956.491898,-1302.362347
512.516973,4663.297435,9400.615463,-1685.410096
512.517294,3256.906145,7550.100608,-306.438199
512.517614,4737.318029,6143.709319,1302.362347
512.517934,5847.626942,7328.038826,1302.362347
512.518255,4811.338623,9104.533087,-306.438199
512.518575,4737.318029,10066.800811,-1838.629195
512.518896,5107.421000,9992.780217,-2068.457845
512.519216,4737.318029,9104.533087,-383.047749
512.519537,5033.400406,7994.224174,1991.848295
512.519857,6217.729913,8438.347739,1532.190996
512.520177,5551.544565,8438.347739,-229.828649
512.520498,5625.565159,8808.450710,-689.485948
512.520818,5403.503377,6957.935855,-766.095498
512.521139,5255.462188,4441.235652,-766.095498
512.521459,5699.585753,5181.441594,919.314598
512.521780,6661.853478,8660.409521,1225.752797
512.522100,5477.523971,9992.780217,-229.828649
512.522420,5255.462188,9770.718434,-1455.581446
512.522741,6587.832884,8660.409521,-1302.362347
512.523061,4589.276840,6957.935855,-919.314598
512.523382,4885.359217,5921.647536,229.828649
512.523702,5477.523971,7550.100608,-306.438199
512.524023,5033.400406,8216.285956,-1072.533697
512.524343,5847.626942,9030.512492,-229.828649
512.524663,5329.482782,7994.224174,0.000000
512.524984,3256.906145,6217.729913,-1378.971896
512.525304,4367.215058,6439.791695,76.609550
512.525625,5329.482782,8364.327145,919.314598
512.525945,5329.482782,9178.553681,612.876398
512.526266,5329.482782,8882.471304,0.000000
512.526586,5551.544565,8734.430116,-1149.143247
512.526906,4071.132681,7550.100608,-1072.533697
512.527227,4367.215058,7328.038826,995.924147
512.527547,5995.668130,7772.162391,689.485948
512.527868,5329.482782,7476.080014,0.000000
512.528188,5033.400406,7179.997637,-383.047749
512.528509,5255.462188,7846.182985,-229.828649
512.528829,3404.947333,7105.977043,-536.266849
512.529149,4737.318029,7994.224174,919.314598
512.529470,6069.688724,9474.636058,1149.143247
512.529790,5255.462188,9326.594869,-383.047749
512.530111,5921.647536,9474.636058,0.000000
512.530431,5033.400406,8808.450710,229.828649
512.530752,4071.132681,8142.265362,-536.266849
512.531072,4737.318029,7772.162391,-306.438199
512.531392,5995.668130,7550.100608,-995.924147
512.531713,6069.688724,7772.162391,-995.924147
512.532033,5921.647536,8512.368333,0.000000
512.532354,4811.338623,7550.100608,0.000000
512.532674,3478.967927,6439.791695,0.000000
512.532994,5107.421000,6587.832884,1225.752797
512.533315,5995.668130,7772.162391,1225.752797
512.533635,5625.565159,9104.533087,-612.876398
512.533956,6069.688724,10214.842000,-842.705048
512.534276,5477.523971,9844.739029,-536.266849
512.534597,4885.359217,7328.038826,-153.219100
512.534917,6513.812290,5773.606348,842.705048
512.535237,6291.750507,6217.729913,76.609550
512.535558,5847.626942,7402.059420,-689.485948
512.535878,5107.421000,8142.265362,-612.876398
512.536199,4663.297435,6661.853478,-1225.752797
512.536519,4663.297435,5107.421000,-383.047749
512.536840,5921.647536,5551.544565,1378.971896
512.537160,6291.750507,7994.224174,1302.362347
512.537480,5995.668130,9326.594869,-689.485948
512.537801,5699.585753,9770.718434,-1915.238745
512.538121,5181.441594,8808.450710,-1302.362347
512.538442,5329.482782,6957.935855,0.000000
512.538762,6587.832884,7698.141797,1149.143247
512.539083,6365.771101,8216.285956,-153.219100
512.539403,5551.544565,8216.285956,-2145.067394
512.539723,5255.462188,8216.285956,-2298.286494
512.540044,3849.070898,6957.935855,-1225.752797
512.540364,3701.029710,6439.791695,1532.190996
512.540685,5477.523971,7550.100608,1991.848295
512.541005,4663.297435,9326.594869,459.657299
512.541326,4145.153275,9844.739029,-1455.581446
512.541646,4441.235652,10362.883188,-1072.533697
512.541966,3404.947333,10066.800811,306.438199
512.542287,2590.720797,8882.471304,1302.362347
512.542607,4663.297435,9548.656652,1378.971896
512.542928,4441.235652,8956.491898,76.609550
512.543248,5033.400406,9178.553681,-459.657299
512.543569,4145.153275,8068.244768,-306.438199
512.543889,2146.597232,5995.668130,-612.876398
512.544209,2590.720797,5625.565159,689.485948
512.544530,5255.462188,8512.368333,1685.410096
512.544850,4811.338623,10140.821405,-383.047749
512.545171,5921.647536,10140.821405,-2145.067394
512.545491,6957.935855,10066.800811,-1991.848295
512.545812,4367.215058,8512.368333,-1225.752797
512.546132,3849.070898,7031.956449,229.828649
512.546452,5551.544565,7402.059420,536.266849
512.546773,6439.791695,8586.388927,-306.438199
512.547093,6439.791695,8364.327145,-306.438199
512.547414,5625.565159,7698.141797,-1378.971896
512.547734,3997.112087,6069.688724,-2911.162892
512.548055,4219.173869,6069.688724,-536.266849
512.548375,5773.606348,7328.038826,1378.971896
512.548695,5921.647536,6957.935855,459.657299
512.549016,5921.647536,8290.306550,-919.314598
512.549336,5181.441594,9696.697840,-1302.362347
512.549657,2664.741391,9178.553681,-1072.533697
512.549977,3775.050304,8512.368333,536.266849
512.550298,6143.709319,9252.574275,1149.143247
512.550618,5255.462188,8586.388927,-153.219100
512.550938,4441.235652,8512.368333,-1072.533697
512.551259,3552.988522,8438.347739,-919.314598
512.551579,1776.494261,7476.080014,0.000000
512.551900,3108.864956,5995.668130,2528.115143
512.552220,5551.544565,7105.977043,2298.286494
512.552541,5921.647536,9474.636058,229.828649
512.552861,4737.318029,11029.068536,-1072.533697
512.553181,3923.091493,10584.944971,-1532.190996
512.553502,3627.009116,7994.224174,-1532.190996
512.553822,4515.256246,5921.647536,1532.190996
512.554143,5699.585753,6439.791695,1838.629195
512.554463,5403.503377,7994.224174,-612.876398
512.554784,4071.132681,9474.636058,-2221.676944
512.555104,3997.112087,9770.718434,-2221.676944
512.555424,4219.173869,7772.162391,-1225.752797
512.555745,5181.441594,6365.771101,919.314598
512.556065,6957.935855,7920.203579,2145.067394
512.556386,6143.709319,9770.718434,0.000000
512.556706,4663.297435,10362.883188,-1532.190996
512.557027,3997.112087,8808.450710,-1991.848295
512.557347,4811.338623,6957.935855,-995.924147
512.557667,5847.626942,6439.791695,1608.800546
512.557988,5921.647536,7328.038826,1378.971896
512.558308,5255.462188,9548.656652,-1608.800546
512.558629,4071.132681,9918.759623,-2451.505594
512.558949,2886.803174,8882.471304,-1608.800546
512.559270,3849.070898,6883.915261,689.485948
512.559590,4737.318029,6587.832884,2451.505594
512.559910,5477.523971,8956.491898,2221.676944
512.560231,5033.400406,11103.089130,153.219100
512.560551,4441.235652,10955.047942,-1915.238745
512.560872,3997.112087,8882.471304,-2145.067394
512.561192,4737.318029,6513.812290,689.485948
512.561513,5699.585753,5773.606348,1838.629195
512.561833,5625.565159,7105.977043,689.485948
512.562153,4663.297435,8512.368333,-1302.362347
512.562474,3923.091493,9400.615463,-1991.848295
512.562794,4293.194464,7994.224174,-919.314598
512.563115,4959.379811,6291.750507,766.095498
512.563435,6809.894666,6809.894666,1302.362347
512.563756,6365.771101,8068.244768,306.438199
512.564076,5477.523971,9474.636058,-1838.629195
512.564396,5403.503377,9696.697840,-1838.629195
512.564717,5551.544565,8216.285956,-1149.143247
512.565037,5625.565159,6513.812290,0.000000
512.565358,6587.832884,6587.832884,76.609550
512.565678,5477.523971,7476.080014,-536.266849
512.565999,5033.400406,8068.244768,-995.924147
512.566319,5255.462188,8734.430116,-612.876398
512.566639,4219.173869,7994.224174,-689.485948
512.566960,4145.153275,7402.059420,0.000000
512.567280,5773.606348,7550.100608,842.705048
512.567601,4885.359217,9326.594869,153.219100
512.567921,4219.173869,10288.862594,0.000000
512.568242,3701.029710,10066.800811,-153.219100
512.568562,2960.823768,8808.450710,-229.828649
512.568882,3108.864956,7994.224174,919.314598
512.569203,3923.091493,9252.574275,1915.238745
512.569523,2960.823768,9696.697840,229.828649
512.569844,2072.576638,10214.842000,-689.485948
512.570164,1850.514855,9178.553681,229.828649
512.570485,2812.782580,8068.244768,229.828649
512.570805,2664.741391,6661.853478,1225.752797
512.571125,3701.029710,8142.265362,919.314598
512.571446,3182.885551,9992.780217,0.000000
512.571766,3182.885551,10584.944971,-995.924147
512.572087,4811.338623,9770.718434,-383.047749
512.572407,5329.482782,7920.203579,-536.266849
512.572728,5181.441594,7624.121203,229.828649
512.573048,5329.482782,7698.141797,0.000000
512.573368,4959.379811,8068.244768,-1072.533697
512.573689,5403.503377,8068.244768,-536.266849
512.574009,6143.709319,7328.038826,0.000000
512.574330,4959.379811,5847.626942,-229.828649
512.574650,5921.647536,5403.503377,306.438199
512.574971,6661.853478,7254.018232,-306.438199
512.575291,6735.874072,7994.224174,-1225.752797
512.575611,6513.812290,8808.450710,-1762.019645
512.575932,7031.956449,8734.430116,-919.314598
512.576252,5477.523971,7476.080014,-306.438199
512.576573,4737.318029,5921.647536,536.266849
512.576893,5403.503377,7031.956449,1072.533697
512.577214,5107.421000,8216.285956,229.828649
512.577534,4293.194464,8660.409521,-995.924147
512.577854,4737.318029,9178.553681,-1149.143247
512.578175,4367.215058,7105.977043,-383.047749
512.578495,3997.112087,6217.729913,1455.581446
512.578816,5033.400406,7402.059420,2068.457845
512.579136,4737.318029,8660.409521,0.000000
512.579457,4367.215058,9104.533087,-1072.533697
512.579777,5329.482782,8808.450710,-612.876398
512.580097,5329.482782,6883.915261,-229.828649
512.580418,5625.565159,6217.729913,1072.533697
512.580738,6217.729913,7772.162391,1225.752797
512.581059,6291.750507,8660.409521,-1225.752797
512.581379,5551.544565,8512.368333,-2221.676944
512.581700,6365.771101,7254.018232,-1685.410096
512.582020,6439.791695,6365.771101,-919.314598
512.582341,6957.935855,6883.915261,766.095498
512.582662,7105.977043,8290.306550,995.924147
512.582982,6661.853478,9178.553681,-229.828649
512.583303,6883.915261,8808.450710,-995.924147
512.583624,7179.997637,7994.224174,-612.876398
512.583944,5255.462188,6439.791695,-689.485948
512.584265,5403.503377,6217.729913,-459.657299
512.584586,5699.585753,7550.100608,-459.657299
512.584907,5033.400406,8290.306550,-612.876398
512.585227,5181.441594,8660.409521,-612.876398
512.585548,4737.318029,8512.368333,0.000000
512.585869,2516.700203,8290.306550,0.000000
512.586189,3330.926739,9178.553681,919.314598
512.586510,4367.215058,9918.759623,1072.533697
512.586831,4737.318029,9770.718434,459.657299
512.587152,5847.626942,9474.636058,766.095498
512.587472,3701.029710,8512.368333,153.219100
512.587793,1776.494261,6883.915261,-842.705048
512.588114,2368.659014,7254.018232,0.000000
512.588434,3923.091493,8586.388927,383.047749
512.588755,4589.276840,9474.636058,76.609550
512.589076,5773.606348,9030.512492,-153.219100
512.589396,4293.194464,7624.121203,-766.095498
512.589717,3775.050304,7179.997637,-612.876398
512.590038,4441.235652,8438.347739,1149.143247
512.590359,5551.544565,9548.656652,919.314598
512.590679,5921.647536,9030.512492,0.000000
512.591000,7105.977043,8586.388927,-919.314598
512.591321,5551.544565,8290.306550,-995.924147
512.591641,3108.864956,7031.956449,-995.924147
512.591962,4589.276840,7179.997637,842.705048
512.592283,4737.318029,7920.203579,229.828649
512.592603,4959.379811,7328.038826,76.609550
512.592924,5477.523971,7254.018232,76.609550
512.593245,3775.050304,7105.977043,-459.657299
512.593566,2368.659014,7105.977043,383.047749
512.593886,4737.318029,8216.285956,1378.971896
512.594207,5921.647536,8512.368333,383.047749
512.594528,5329.482782,8216.285956,-766.095498
512.594848,5403.503377,9178.553681,-612.876398
512.595169,3997.112087,9400.615463,-766.095498
512.595490,2368.659014,7994.224174,-766.095498
512.595811,4589.276840,7476.080014,766.095498
512.596131,5625.565159,7550.100608,76.609550
512.596452,5699.585753,8290.306550,689.485948
512.596773,5403.503377,8660.409521,919.314598
512.597093,3997.112087,8290.306550,-459.657299
512.597414,3923.091493,7179.997637,-612.876398
512.597735,6587.832884,6809.894666,919.314598
512.598055,7624.121203,7550.100608,229.828649
512.598376,8216.285956,7772.162391,-383.047749
512.598697,6957.935855,8438.347739,-612.876398
512.599018,5255.462188,7402.059420,-1532.190996
512.599338,5255.462188,6513.812290,-306.438199
512.599659,7254.018232,7105.977043,1302.362347
512.599980,6957.935855,7179.997637,995.924147
512.600300,7105.977043,7402.059420,76.609550
512.600621,6735.874072,6957.935855,-612.876398
512.600942,5477.523971,5181.441594,-1072.533697
512.601263,5773.606348,5255.462188,-153.219100
512.601583,7254.018232,7402.059420,1149.143247
512.601904,7550.100608,8586.388927,-842.705048
512.602225,7698.141797,8734.430116,-1302.362347
512.602545,7031.956449,8734.430116,-1915.238745
512.602866,4737.318029,7698.141797,-1685.410096
512.603187,4737.318029,7105.977043,229.828649
512.603507,5403.503377,7328.038826,612.876398
512.603828,5033.400406,7846.182985,0.000000
512.604149,4811.338623,8586.388927,-919.314598
512.604470,3849.070898,9104.533087,-1302.362347
512.604790,2738.761985,8142.265362,-1149.143247
512.605111,3330.926739,7994.224174,766.095498
512.605432,5477.523971,8142.265362,1455.581446
512.605752,5329.482782,8956.491898,766.095498
512.606073,4441.235652,9400.615463,-919.314598
512.606394,4145.153275,9474.636058,-919.314598
512.606714,4293.194464,8290.306550,-383.047749
512.607035,3997.112087,7698.141797,76.609550
512.607356,6069.688724,8142.265362,766.095498
512.607677,6217.729913,8660.409521,-306.438199
512.607997,4811.338623,8660.409521,-995.924147
512.608318,4515.256246,8660.409521,-919.314598
512.608639,3330.926739,7624.121203,-995.924147
512.608959,4737.318029,7254.018232,536.266849
512.609280,7031.956449,8364.327145,1378.971896
512.609601,6439.791695,9400.615463,153.219100
512.609922,5329.482782,9474.636058,-766.095498
512.610242,4589.276840,9104.533087,-766.095498
512.610563,3478.967927,6957.935855,-995.924147
512.610884,3923.091493,6291.750507,0.000000
512.611204,4811.338623,6809.894666,689.485948
512.611525,5847.626942,7550.100608,-306.438199
512.611846,4811.338623,8216.285956,-766.095498
512.612166,3775.050304,8438.347739,-842.705048
512.612487,4293.194464,8660.409521,-153.219100
512.612808,4367.215058,8142.265362,689.485948
512.613129,5033.400406,8808.450710,1455.581446
512.613449,6957.935855,8290.306550,1225.752797
512.613770,5329.482782,7550.100608,0.000000
512.614091,5181.441594,7328.038826,-306.438199
512.614411,4885.359217,7402.059420,-1225.752797
512.614732,5033.400406,6957.935855,-306.438199
512.615053,6439.791695,6957.935855,0.000000
512.615373,7328.038826,7698.141797,306.438199
512.615694,6143.709319,8216.285956,0.000000
512.616015,4959.379811,7698.141797,0.000000
512.616336,4293.194464,6217.729913,153.219100
512.616656,4959.379811,6809.894666,536.266849
512.616977,5773.606348,8142.265362,1149.143247
512.617298,6365.771101,9178.553681,-689.485948
512.617618,5477.523971,9770.718434,-1991.848295
512.617939,4441.235652,8290.306550,-1532.190996
512.618260,4959.379811,6661.853478,-766.095498
512.618581,4885.359217,5995.668130,612.876398
512.618901,4811.338623,7179.997637,995.924147
512.619222,5033.400406,8956.491898,153.219100
512.619543,3849.070898,8734.430116,-1378.971896
512.619863,4219.173869,7698.141797,-995.924147
512.620184,5033.400406,6809.894666,0.000000
512.620505,5995.668130,7031.956449,536.266849
512.620825,6661.853478,8808.450710,76.609550
512.621146,5181.441594,9548.656652,-1685.410096
512.621467,4441.235652,8882.471304,-2451.505594
512.621788,5403.503377,8956.491898,-76.609550
512.622108,4589.276840,7846.182985,766.095498
512.622429,4737.318029,7920.203579,689.485948
512.622750,5255.462188,8438.347739,306.438199
512.623070,4515.256246,8364.327145,-842.705048
512.623391,4663.297435,7698.141797,-766.095498
512.623712,4071.132681,7105.977043,0.000000
512.624032,4219.173869,6661.853478,153.219100
512.624353,5477.523971,7994.224174,842.705048
512.624674,5699.585753,9918.759623,229.828649
512.624995,5107.421000,9918.759623,-1838.629195
512.625315,4959.379811,9474.636058,-1532.190996
512.625636,4441.235652,8956.491898,-459.657299
512.625957,3552.988522,8142.265362,0.000000
512.626277,4885.359217,7624.121203,0.000000
512.626598,5329.482782,8882.471304,-995.924147
512.626919,4589.276840,9918.759623,-536.266849
512.627240,4441.235652,9770.718434,-229.828649
512.627560,4589.276840,7698.141797,0.000000
512.627881,3923.091493,5773.606348,229.828649
512.628202,5699.585753,6513.812290,1685.410096
512.628522,6143.709319,8364.327145,766.095498
512.628843,5255.462188,8808.450710,-1225.752797
512.629164,5847.626942,8956.491898,-1685.410096
512.629484,6735.874072,8734.430116,-1225.752797
512.629805,5329.482782,7402.059420,229.828649
512.630126,6143.709319,7179.997637,536.266849
512.630447,6217.729913,7920.203579,-459.657299
512.630767,4737.318029,7624.121203,-1915.238745
512.631088,4145.153275,7254.018232,-383.047749
512.631409,4737.318029,6661.853478,153.219100
512.631729,4737.318029,7105.977043,766.095498
512.632050,5847.626942,8734.430116,1455.581446
512.632371,5625.565159,9696.697840,153.219100
512.632692,4367.215058,9622.677246,-1225.752797
512.633012,4589.276840,9252.574275,-229.828649
512.633333,3923.091493,7624.121203,229.828649
512.633654,3330.926739,6735.874072,0.000000
512.633974,3478.967927,7179.997637,306.438199
512.634295,4219.173869,8956.491898,-383.047749
512.634616,3775.050304,8882.471304,-842.705048
512.634936,2886.803174,7994.224174,0.000000
512.635257,3552.988522,7328.038826,0.000000
512.635578,4367.215058,8142.265362,1225.752797
512.635899,4885.359217,8882.471304,1762.019645
512.636219,6291.750507,8364.327145,-842.705048
512.636540,6291.750507,7920.203579,-1838.629195
512.636861,6513.812290,8660.409521,-1072.533697
512.637181,5625.565159,7328.038826,0.000000
512.637502,5329.482782,6587.832884,383.047749
512.637823,7254.018232,7179.997637,76.609550
512.638143,7402.059420,8216.285956,-383.047749
512.638464,5551.544565,8068.244768,-1685.410096
512.638785,4885.359217,7402.059420,-1532.190996
512.639106,4885.359217,7254.018232,-306.438199
512.639426,4737.318029,7179.997637,1302.362347
512.639747,5921.647536,7994.224174,1991.848295
512.640068,5625.565159,9030.512492,0.000000
512.640388,4811.338623,9474.636058,-1915.238745
512.640709,3108.864956,9474.636058,-1608.800546
512.641030,3330.926739,8142.265362,-842.705048
512.641351,4293.194464,6809.894666,459.657299
512.641671,4737.318029,7105.977043,1608.800546
512.641992,4071.132681,8734.430116,-306.438199
512.642313,2812.782580,9844.739029,-842.705048
512.642633,2072.576638,9844.739029,-689.485948
512.642954,3330.926739,8290.306550,76.609550
512.643275,4811.338623,7105.977043,459.657299
512.643595,5699.585753,8290.306550,766.095498
512.643916,5033.400406,10288.862594,153.219100
512.644237,3552.988522,11103.089130,-1378.971896
512.644558,3701.029710,10436.903782,-1608.800546
512.644878,4071.132681,8438.347739,-612.876398
512.645199,4959.379811,6809.894666,0.000000
512.645520,6069.688724,7476.080014,1072.533697
512.645840,5255.462188,9252.574275,0.000000
512.646161,4589.276840,9622.677246,-1149.143247
512.646482,4663.297435,8364.327145,-919.314598
512.646802,4367.215058,6143.709319,-383.047749
512.647123,5773.606348,6957.935855,1455.581446
512.647444,6217.729913,8734.430116,1149.143247
512.647765,5329.482782,9326.594869,-995.924147
512.648085,4959.379811,10066.800811,-1838.629195
512.648406,4811.338623,8290.306550,-1378.971896
512.648727,4145.153275,7328.038826,-536.266849
512.649047,5329.482782,6957.935855,306.438199
512.649368,5847.626942,9104.533087,0.000000
512.649689,4293.194464,9400.615463,-459.657299
512.650010,3627.009116,8438.347739,-1378.971896
512.650330,3701.029710,6883.915261,-459.657299
512.650651,3478.967927,6291.750507,1225.752797
512.650972,4663.297435,7994.224174,2451.505594
512.651292,5329.482782,9918.759623,842.705048
512.651613,4219.173869,9770.718434,-1302.362347
512.651934,5255.462188,8290.306550,-1302.362347
512.652254,5921.647536,7476.080014,153.219100
512.652575,4811.338623,6143.709319,919.314598
512.652896,5255.462188,6661.853478,995.924147
512.653217,5551.544565,7254.018232,-919.314598
512.653537,4885.359217,7920.203579,-1762.019645
512.653858,5625.565159,8364.327145,-153.219100
512.654179,5551.544565,7772.162391,76.609550
512.654499,5181.441594,7698.141797,-459.657299
512.654820,6439.791695,7994.224174,-229.828649
512.655141,6291.750507,8438.347739,-76.609550
512.655461,5551.544565,9104.533087,-229.828649
512.655782,5107.421000,8734.430116,0.000000
512.656103,4811.338623,7624.121203,0.000000
512.656424,4293.194464,6661.853478,229.828649
512.656744,5403.503377,7254.018232,766.095498
512.657065,5403.503377,7846.182985,383.047749
512.657386,4367.215058,7550.100608,-842.705048
512.657706,4293.194464,8068.244768,-383.047749
512.658027,4737.318029,8438.347739,0.000000
512.658348,3478.967927,7179.997637,842.705048
512.658669,5477.523971,8142.265362,1149.143247
512.658989,7402.059420,9178.553681,536.266849
512.659310,4663.297435,9696.697840,-919.314598
512.659631,4737.318029,9474.636058,-1455.581446
512.659951,4737.318029,8512.368333,-1455.581446
512.660272,3923.091493,7476.080014,-689.485948
512.660593,5403.503377,7846.182985,1072.533697
512.660913,5403.503377,8808.450710,0.000000
512.661234,2886.803174,9400.615463,-1608.800546
512.661555,3256.906145,9400.615463,-306.438199
512.661876,3404.947333,7772.162391,919.314598
512.662196,3701.029710,7105.977043,1225.752797
512.662517,5033.400406,8068.244768,1608.800546
512.662838,4589.276840,8956.491898,-76.609550
512.663158,4515.256246,9918.759623,-1838.629195
512.663479,4663.297435,9918.759623,-306.438199
512.663800,4589.276840,8512.368333,-459.657299
512.664121,4441.235652,6883.915261,-153.219100
512.664441,5255.462188,7550.100608,383.047749
512.664762,4959.379811,9770.718434,0.000000
512.665083,4219.173869,10066.800811,-995.924147
512.665403,4737.318029,9252.574275,-995.924147
512.665724,4885.359217,6217.729913,0.000000
512.666045,4811.338623,5403.503377,1225.752797
512.666365,5403.503377,7550.100608,1991.848295
512.666686,4959.379811,8956.491898,-306.438199
512.667007,5921.647536,9474.636058,-1608.800546
512.667328,6291.750507,7994.224174,-1072.533697
512.667648,5625.565159,5699.585753,-229.828649
512.667969,6513.812290,5181.441594,919.314598
512.668290,6883.915261,7254.018232,919.314598
512.668610,5551.544565,7994.224174,-1225.752797
512.668931,6365.771101,7624.121203,-2221.676944
512.669252,7105.977043,6809.894666,-919.314598
512.669572,5995.668130,5625.565159,0.000000
512.669893,6143.709319,6143.709319,1455.581446
512.670214,6513.812290,8068.244768,1302.362347
512.670535,5033.400406,9178.553681,-995.924147
512.670855,5847.626942,8438.347739,-919.314598
512.671176,6143.709319,7624.121203,-1149.143247
512.671497,4737.318029,7031.956449,-1149.143247
512.671817,4219.173869,7550.100608,842.705048
512.672138,5255.462188,8364.327145,842.705048
512.672459,4367.215058,7920.203579,-153.219100
512.672780,4367.215058,8068.244768,0.000000
512.673100,4663.297435,8068.244768,459.657299
512.673421,3701.029710,7920.203579,153.219100
512.673742,4515.256246,7994.224174,766.095498
512.674062,6291.750507,8290.306550,0.000000
512.674383,6143.709319,8808.450710,-459.657299
512.674704,6217.729913,9474.636058,0.000000
512.675024,4737.318029,9178.553681,0.000000
512.675345,3478.967927,7846.182985,-919.314598
512.675666,4515.256246,7402.059420,-612.876398
512.675987,6217.729913,7698.141797,306.438199
512.676307,5773.606348,8808.450710,612.876398
512.676628,5477.523971,9326.594869,153.219100
512.676949,4071.132681,8364.327145,-919.314598
512.677269,4219.173869,7624.121203,-1225.752797
512.677590,4663.297435,7328.038826,536.266849
512.677911,5625.565159,8512.368333,1608.800546
512.678231,5403.503377,9548.656652,612.876398
512.678552,4811.338623,9918.759623,229.828649
512.678873,4441.235652,9400.615463,0.000000
512.679194,3330.926739,7105.977043,-306.438199
512.679514,2516.700203,6587.832884,-306.438199
512.679835,3552.988522,7698.141797,383.047749
512.680156,3923.091493,9252.574275,-459.657299
512.680476,4441.235652,8882.471304,-306.438199
512.680797,5033.400406,8068.244768,-766.095498
512.681118,3997.112087,7179.997637,-995.924147
512.681439,4219.173869,8586.388927,306.438199
512.681759,5625.565159,10066.800811,919.314598
512.682080,4959.379811,9918.759623,-383.047749
512.682401,6809.894666,8364.327145,0.000000
512.682721,6661.853478,6883.915261,536.266849
512.683042,4515.256246,5847.626942,0.000000
512.683363,4441.235652,6217.729913,153.219100
512.683683,5773.606348,7772.162391,-612.876398
512.684004,6069.688724,7254.018232,-1149.143247
512.684325,7105.977043,6217.729913,383.047749
512.684646,6735.874072,5995.668130,0.000000
512.684966,5033.400406,6217.729913,-842.705048
512.685287,5773.606348,7994.224174,766.095498
512.685608,6883.915261,8808.450710,459.657299
512.685929,7105.977043,8142.265362,-689.485948
512.686249,6883.915261,7476.080014,0.000000
512.686570,5773.606348,7105.977043,-536.266849
512.686891,4663.297435,6661.853478,-306.438199
512.687212,5181.441594,7402.059420,-689.485948
512.687533,7105.977043,8142.265362,-1685.410096
512.687853,6365.771101,6809.894666,-1225.752797
512.688174,5625.565159,6809.894666,383.047749
512.688495,4737.318029,7402.059420,1225.752797
512.688816,3849.070898,7402.059420,1072.533697
512.689136,4885.359217,8660.409521,459.657299
512.689457,5995.668130,8956.491898,-1149.143247
512.689778,5107.421000,8956.491898,-1072.533697
512.690099,4959.379811,9474.636058,229.828649
512.690419,3997.112087,8882.471304,0.000000
512.690740,3701.029710,8068.244768,-306.438199
512.691061,4737.318029,7772.162391,0.000000
512.691382,5181.441594,8438.347739,0.000000
512.691702,5329.482782,9474.636058,229.828649
512.692023,5477.523971,10066.800811,459.657299
512.692344,4589.276840,7550.100608,919.314598
512.692665,4515.256246,5847.626942,153.219100
512.692985,5477.523971,7402.059420,842.705048
512.693306,5107.421000,8586.388927,-536.266849
512.693627,5773.606348,9844.739029,-1378.971896
512.693948,6143.709319,9474.636058,-1149.143247
512.694269,4811.338623,9030.512492,-919.314598
512.694589,4811.338623,7624.121203,-153.219100
512.694910,5033.400406,8512.368333,0.000000
512.695231,4145.153275,9474.636058,153.219100
512.695552,4145.153275,9178.553681,229.828649
512.695872,4811.338623,7846.182985,0.000000
512.696193,3997.112087,6587.832884,-1225.752797
512.696514,3923.091493,6883.915261,0.000000
512.696835,4367.215058,8660.409521,383.047749
512.697155,4737.318029,9178.553681,-306.438199
512.697476,4367.215058,8956.491898,-153.219100
512.697797,5181.441594,8290.306550,-229.828649
512.698118,4589.276840,8216.285956,689.485948
512.698438,3775.050304,8660.409521,1149.143247
512.698759,4737.318029,9252.574275,612.876398
512.699080,5181.441594,8216.285956,-383.047749
512.699401,4811.338623,6809.894666,-766.095498
512.699722,5033.400406,6883.915261,76.609550
512.700042,4737.318029,6809.894666,153.219100
512.700363,5255.462188,7550.100608,459.657299
512.700684,6143.709319,9030.512492,76.609550
512.701005,6513.812290,8956.491898,-842.705048
512.701325,6143.709319,7772.162391,-1302.362347
512.701646,5477.523971,7550.100608,842.705048
512.701967,4441.235652,7476.080014,1149.143247
512.702288,4441.235652,6069.688724,612.876398
512.702608,5403.503377,5921.647536,-842.705048
512.702929,6365.771101,6365.771101,-1532.190996
512.703250,5625.565159,7031.956449,-1072.533697
512.703571,5921.647536,7105.977043,-995.924147
512.703891,5107.421000,6587.832884,-766.095498
512.704212,5847.626942,6883.915261,-383.047749
512.704533,7105.977043,8216.285956,306.438199
512.704854,7105.977043,9104.533087,-383.047749
512.705175,6365.771101,9474.636058,-689.485948
512.705495,5773.606348,9252.574275,-1149.143247
512.705816,4145.153275,7476.080014,-766.095498
512.706137,4589.276840,7402.059420,229.828649
512.706458,4959.379811,7254.018232,-459.657299
512.706778,4219.173869,7476.080014,-1225.752797
512.707099,4219.173869,7550.100608,-1225.752797
512.707420,3182.885551,8290.306550,-383.047749
512.707741,2812.782580,7846.182985,0.000000
512.708061,4589.276840,7772.162391,1149.143247
512.708382,5329.482782,9474.636058,766.095498
512.708703,4737.318029,10510.924376,612.876398
512.709024,5181.441594,11399.171507,-76.609550
512.709344,4367.215058,9918.759623,-1225.752797
512.709665,3923.091493,8142.265362,-1072.533697
512.709986,4663.297435,7402.059420,689.485948
512.710307,4885.359217,8660.409521,766.095498
512.710628,3775.050304,9326.594869,-842.705048
512.710948,3775.050304,9252.574275,-2374.896044
512.711269,4071.132681,8216.285956,-1685.410096
512.711590,4663.297435,7105.977043,-536.266849
512.711911,5625.565159,7550.100608,1455.581446
512.712231,5847.626942,9178.553681,1149.143247
512.712552,5255.462188,11029.068536,-919.314598
512.712873,5107.421000,11029.068536,-1378.971896
512.713194,4515.256246,9030.512492,-1072.533697
512.713514,4367.215058,7105.977043,-459.657299
512.713835,5255.462188,7105.977043,919.314598
512.714156,5329.482782,8216.285956,0.000000
512.714477,4663.297435,8586.388927,-1302.362347
512.714797,4589.276840,8142.265362,-689.485948
512.715118,4293.194464,7402.059420,-229.828649
512.715439,3923.091493,6291.750507,995.924147
512.715760,4589.276840,6809.894666,1532.190996
512.716080,6883.915261,8216.285956,689.485948
512.716401,5329.482782,8586.388927,-306.438199
512.716722,5181.441594,8660.409521,-919.314598
512.717043,4959.379811,8512.368333,-766.095498
512.717364,4515.256246,8290.306550,0.000000
512.717684,4737.318029,7698.141797,1149.143247
512.718005,5773.606348,7846.182985,229.828649
512.718326,5033.400406,7624.121203,-1225.752797
512.718647,4663.297435,7920.203579,-536.266849
512.718967,3627.009116,7179.997637,229.828649
512.719288,4293.194464,6365.771101,229.828649
512.719609,5033.400406,7031.956449,1149.143247
512.719930,5773.606348,7920.203579,306.438199
512.720250,5403.503377,9104.533087,-766.095498
512.720571,4663.297435,9178.553681,-229.828649
512.720892,4811.338623,8586.388927,229.828649
512.721213,4885.359217,7179.997637,306.438199
512.721533,5033.400406,6439.791695,383.047749
512.721854,5255.462188,7772.162391,0.000000
512.722175,4219.173869,9104.533087,-1302.362347
512.722496,3997.112087,9252.574275,-766.095498
512.722817,3997.112087,7031.956449,-153.219100
512.723137,4515.256246,5551.544565,76.609550
512.723458,5921.647536,7624.121203,1455.581446
512.723779,4663.297435,9178.553681,76.609550
512.724100,3701.029710,9696.697840,-2145.067394
512.724420,5773.606348,9104.533087,-1225.752797
512.724741,5995.668130,7550.100608,0.000000
512.725062,5551.544565,6883.915261,76.609550
512.725383,6069.688724,8142.265362,0.000000
512.725703,4737.318029,9622.677246,-1302.362347
512.726024,3775.050304,9326.594869,-1532.190996
512.726345,4737.318029,7994.224174,-229.828649
512.726666,4441.235652,5551.544565,-383.047749
512.726986,4145.153275,6365.771101,153.219100
512.727307,4737.318029,8660.409521,842.705048
512.727628,5773.606348,9844.739029,-766.095498
512.727949,4959.379811,9474.636058,-1608.800546
512.728270,5033.400406,8142.265362,-766.095498
512.728590,5477.523971,8586.388927,-153.219100
512.728911,4959.379811,9326.594869,459.657299
512.729232,4515.256246,9992.780217,0.000000
512.729553,5773.606348,9104.533087,-995.924147
512.729873,5255.462188,7624.121203,-1149.143247
512.730194,4367.215058,7328.038826,0.000000
512.730515,3182.885551,7476.080014,153.219100
512.730836,3627.009116,8512.368333,612.876398
512.731156,4959.379811,9474.636058,536.266849
512.731477,5181.441594,9030.512492,0.000000
512.731798,5033.400406,9326.594869,-383.047749
512.732119,4737.318029,9104.533087,153.219100
512.732439,3182.885551,8956.491898,919.314598
512.732760,3923.091493,7698.141797,612.876398
512.733081,6217.729913,8216.285956,76.609550
512.733402,4663.297435,7254.018232,-1455.581446
512.733723,3849.070898,7476.080014,-1378.971896
512.734043,4663.297435,8142.265362,-229.828649
512.734364,4737.318029,8068.244768,0.000000
512.734685,5255.462188,6957.935855,0.000000
512.735006,6217.729913,6957.935855,-766.095498
512.735326,5847.626942,8512.368333,-612.876398
512.735647,5551.544565,9548.656652,383.047749
512.735968,6291.750507,8734.430116,612.876398
512.736289,6365.771101,6809.894666,-383.047749
512.736609,5625.565159,5403.503377,-842.705048
512.736930,5921.647536,6513.812290,0.000000
512.737251,4885.359217,7550.100608,-766.095498
512.737572,4589.276840,7624.121203,-612.876398
512.737892,6291.750507,7179.997637,-306.438199
512.738213,5847.626942,5773.606348,0.000000
512.738534,5181.441594,6143.709319,919.314598
512.738855,4811.338623,8290.306550,1225.752797
512.739176,4145.153275,9178.553681,459.657299
512.739496,5033.400406,9252.574275,0.000000
512.739817,5551.544565,8882.471304,383.047749
512.740138,4589.276840,7550.100608,-689.485948
512.740459,4367.215058,7402.059420,0.000000
512.740779,4367.215058,9326.594869,383.047749
512.741100,4219.173869,9548.656652,-459.657299
512.741421,3997.112087,8216.285956,-229.828649
512.741742,4145.153275,6957.935855,229.828649
512.742062,3552.988522,6513.812290,842.705048
512.742383,3404.947333,7920.203579,1608.800546
512.742704,3775.050304,9326.594869,1072.533697
512.743025,4293.194464,9548.656652,-1225.752797
512.743345,5255.462188,9104.533087,-1302.362347
512.743666,5551.544565,8808.450710,0.000000
512.743987,4737.318029,8142.265362,153.219100
512.744308,4145.153275,8364.327145,383.047749
512.744628,4737.318029,7994.224174,-153.219100
512.744949,5033.400406,8068.244768,-1072.533697
512.745270,5255.462188,7698.141797,-842.705048
512.745591,4959.379811,7328.038826,0.000000
512.745912,4737.318029,7624.121203,-383.047749
512.746232,5255.462188,7920.203579,76.609550
512.746553,5033.400406,7994.224174,-689.485948
512.746874,5773.606348,8142.265362,-1762.019645
512.747195,6809.894666,9252.574275,-612.876398
512.747515,5773.606348,9844.739029,689.485948
512.747836,3627.009116,7772.162391,-153.219100
512.748157,4293.194464,7624.121203,-766.095498
512.748478,5181.441594,7994.224174,0.000000
512.748798,4219.173869,8216.285956,0.000000
512.749119,4367.215058,7994.224174,536.266849
512.749440,5477.523971,8216.285956,689.485948
512.749761,4737.318029,7105.977043,919.314598
512.750081,4441.235652,6513.812290,306.438199
512.750402,5625.565159,7105.977043,0.000000
512.750723,5699.585753,9326.594869,-153.219100
512.751044,5181.441594,9770.718434,383.047749
512.751365,5329.482782,7846.182985,-76.609550
512.751685,6957.935855,5921.647536,-766.095498
512.752006,5921.647536,6957.935855,0.000000
512.752327,5477.523971,8068.244768,76.609550
512.752648,5403.503377,8068.244768,-1072.533697
512.752968,6365.771101,7402.059420,-689.485948
512.753289,6661.853478,6439.791695,612.876398
512.753610,6217.729913,6291.750507,229.828649
512.753931,5255.462188,6661.853478,-766.095498
512.754251,5773.606348,8660.409521,-1762.019645
512.754572,5995.668130,8290.306550,-1149.143247
512.754893,6957.935855,7105.977043,-153.219100
512.755214,6587.832884,6735.874072,153.219100
512.755534,5255.462188,6513.812290,-459.657299
512.755855,4663.297435,8512.368333,-995.924147
512.756176,4663.297435,9400.615463,-995.924147
512.756497,5255.462188,8808.450710,-1762.019645
512.756818,6069.688724,7550.100608,-995.924147
512.757138,5107.421000,6957.935855,-153.219100
512.757459,3627.009116,8216.285956,919.314598
512.757780,3256.906145,9400.615463,766.095498
512.758101,3849.070898,9918.759623,153.219100
512.758421,4441.235652,9178.553681,0.000000
512.758742,4959.379811,8586.388927,612.876398
512.759063,4663.297435,8512.368333,1455.581446
512.759384,2960.823768,8290.306550,1072.533697
512.759704,3256.906145,8364.327145,229.828649
512.760025,4663.297435,8216.285956,-766.095498
512.760346,4663.297435,8290.306550,-383.047749
512.760667,4071.132681,8734.430116,76.609550
512.760987,4145.153275,8660.409521,383.047749
512.761308,3478.967927,8290.306550,0.000000
512.761629,4441.235652,9178.553681,-383.047749
512.761950,4959.379811,9474.636058,-383.047749
512.762271,4811.338623,9548.656652,-536.266849
512.762591,5107.421000,8882.471304,0.000000
512.762912,5477.523971,8438.347739,-76.609550
512.763233,4737.318029,6957.935855,-536.266849
512.763554,4885.359217,6809.894666,-842.705048
512.763874,5921.647536,7846.182985,-842.705048
512.764195,5551.544565,7772.162391,-919.314598
512.764516,5699.585753,7179.997637,0.000000
512.764837,5329.482782,6069.688724,0.000000
512.765157,4959.379811,6143.709319,-766.095498
512.765478,5847.626942,7105.977043,-536.266849
512.765799,6143.709319,8586.388927,-766.095498
512.766120,6513.812290,8882.471304,-536.266849
512.766440,7105.977043,8364.327145,76.609550
512.766761,5847.626942,7402.059420,0.000000
512.767082,4885.359217,6735.874072,-153.219100
512.767403,5699.585753,7105.977043,0.000000
512.767723,5699.585753,8290.306550,536.266849
512.768044,5625.565159,7476.080014,-306.438199
512.768365,5625.565159,6735.874072,-76.609550
512.768686,5181.441594,6439.791695,0.000000
512.769007,4737.318029,6587.832884,0.000000
512.769327,5551.544565,8586.388927,0.000000
512.769648,6439.791695,9326.594869,-919.314598
512.769969,5847.626942,8586.388927,-1455.581446
512.770290,5625.565159,7994.224174,-383.047749
512.770610,4811.338623,7920.203579,0.000000
512.770931,4219.173869,8438.347739,612.876398
512.771252,4737.318029,9474.636058,459.657299
512.771573,5699.585753,9252.574275,-1225.752797
512.771893,5255.462188,8142.265362,-1072.533697
512.772214,4885.359217,7550.100608,919.314598
512.772535,4737.318029,7254.018232,1225.752797
512.772856,5329.482782,7328.038826,1378.971896
512.773176,5107.421000,7698.141797,536.266849
512.773497,5773.606348,8512.368333,-1149.143247
512.773818,5921.647536,10214.842000,-1225.752797
512.774139,4663.297435,9622.677246,-766.095498
512.774460,4737.318029,8364.327145,229.828649
512.774780,6587.832884,7328.038826,689.485948
512.775101,5033.400406,7698.141797,-153.219100
512.775422,4071.132681,7772.162391,-995.924147
512.775743,4589.276840,8734.430116,-1149.143247
512.776063,4811.338623,8512.368333,76.609550
512.776384,4441.235652,7772.162391,306.438199
512.776705,4959.379811,8142.265362,459.657299
512.777026,5255.462188,7994.224174,-306.438199
512.777346,4367.215058,9178.553681,-153.219100
512.777667,4071.132681,8808.450710,842.705048
512.777988,3997.112087,7772.162391,153.219100
512.778309,4145.153275,7105.977043,0.000000
512.778629,3997.112087,6291.750507,-766.095498
512.778950,3849.070898,8142.265362,-689.485948
512.779271,4663.297435,9252.574275,0.000000
512.779592,4959.379811,8734.430116,0.000000
512.779913,4515.256246,7476.080014,-229.828649
512.780233,4589.276840,6883.915261,0.000000
512.780554,4885.359217,8290.306550,76.609550
512.780875,4589.276840,9474.636058,229.828649
512.781196,5329.482782,9696.697840,153.219100
512.781516,5995.668130,8438.347739,0.000000
512.781837,4885.359217,7105.977043,-383.047749
512.782158,4145.153275,6587.832884,459.657299
512.782479,4293.194464,6587.832884,1302.362347
512.782799,4959.379811,7550.100608,536.266849
512.783120,5625.565159,7402.059420,-229.828649
512.783441,6217.729913,6735.874072,0.000000
512.783762,5329.482782,6809.894666,-689.485948
512.784082,4737.318029,8142.265362,-306.438199
512.784403,4959.379811,9326.594869,-153.219100
512.784724,5699.585753,9178.553681,-995.924147
512.785044,7402.059420,8142.265362,-536.266849
512.785365,7624.121203,7994.224174,-612.876398
512.785686,6661.853478,7105.977043,-383.047749
512.786006,5329.482782,7328.038826,0.000000
512.786327,5625.565159,8068.244768,0.000000
512.786648,5921.647536,7698.141797,-1072.533697
512.786968,6217.729913,6957.935855,-919.314598
512.787289,6069.688724,7328.038826,-306.438199
512.787610,4959.379811,8142.265362,0.000000
512.787930,3849.070898,7994.224174,306.438199
512.788251,4885.359217,7994.224174,-153.219100
512.788572,5625.565159,8808.450710,-459.657299
512.788892,5107.421000,9326.594869,-229.828649
512.789213,4589.276840,9400.615463,229.828649
512.789534,3478.967927,8882.471304,0.000000
512.789854,3701.029710,7994.224174,229.828649
512.790175,4589.276840,7550.100608,459.657299
512.790496,4959.379811,8142.265362,0.000000
512.790816,5107.421000,8808.450710,-919.314598
512.791137,4589.276840,8512.368333,-76.609550
512.791458,4515.256246,7402.059420,0.000000
512.791778,5033.400406,6661.853478,-536.266849
512.792099,6809.894666,7179.997637,-919.314598
512.792419,6365.771101,9326.594869,-842.705048
512.792740,5773.606348,9770.718434,-1378.971896
512.793061,5255.462188,9178.553681,-1302.362347
512.793381,4885.359217,7846.182985,-919.314598
512.793702,4885.359217,7031.956449,0.000000
512.794023,5033.400406,7920.203579,842.705048
512.794343,4885.359217,8438.347739,-689.485948
512.794664,4441.235652,9326.594869,-919.314598
512.794985,4145.153275,8734.430116,-306.438199
512.795305,4219.173869,7550.100608,612.876398
512.795626,4663.297435,7254.018232,1149.143247
512.795947,4663.297435,8586.388927,842.705048
512.796267,5033.400406,9252.574275,-459.657299
512.796588,4959.379811,9474.636058,-1225.752797
512.796909,4219.173869,8142.265362,-1072.533697
512.797229,4589.276840,8142.265362,689.485948
512.797550,4663.297435,8142.265362,1532.190996
512.797871,3923.091493,9178.553681,995.924147
512.798191,4885.359217,9548.656652,0.000000
512.798512,4515.256246,8586.388927,-383.047749
512.798833,3997.112087,7846.182985,-612.876398
512.799153,4293.194464,6587.832884,689.485948
512.799474,4441.235652,7105.977043,1762.019645
512.799795,5551.544565,8068.244768,1149.143247
512.800115,4811.338623,9548.656652,-536.266849
512.800436,3849.070898,9326.594869,-1532.190996
512.800757,4441.235652,8216.285956,-689.485948
512.801077,5033.400406,7550.100608,1685.410096
512.801398,5255.462188,6513.812290,2528.115143
512.801719,5625.565159,6957.935855,459.657299
512.802039,4663.297435,7179.997637,-1455.581446
512.802360,3849.070898,7476.080014,-2145.067394
512.802681,4441.235652,7105.977043,153.219100
512.803001,5773.606348,6735.874072,612.876398
512.803322,6735.874072,6883.915261,306.438199
512.803643,6661.853478,7698.141797,-612.876398
512.803963,6365.771101,9474.636058,-1302.362347
512.804284,4885.359217,9326.594869,-1072.533697
512.804605,4219.173869,7920.203579,0.000000
512.804925,5329.482782,6661.853478,76.609550
512.805246,5551.544565,6365.771101,919.314598
512.805567,5329.482782,7772.162391,306.438199
512.805887,4441.235652,8364.327145,-919.314598
512.806208,4367.215058,8512.368333,-1991.848295
512.806528,4811.338623,8142.265362,-383.047749
512.806849,4515.256246,6883.915261,459.657299
512.807170,5995.668130,7179.997637,612.876398
512.807490,6439.791695,8586.388927,612.876398
512.807811,4441.235652,9548.656652,0.000000
512.808132,4811.338623,9104.533087,-153.219100
512.808452,5551.544565,8660.409521,229.828649
512.808773,4589.276840,7105.977043,0.000000
512.809094,5773.606348,6735.874072,-536.266849
512.809414,6439.791695,7550.100608,-1149.143247
512.809735,5107.421000,7994.224174,-1838.629195
512.810056,5181.441594,7550.100608,-1378.971896
512.810376,5773.606348,8142.265362,-612.876398
512.810697,5403.503377,7920.203579,-459.657299
512.811018,5921.647536,8586.388927,76.609550
512.811338,6365.771101,9474.636058,306.438199
512.811659,4811.338623,10288.862594,-1608.800546
512.811980,4737.318029,9844.739029,-1532.190996
512.812300,4737.318029,8882.471304,0.000000
512.812621,3849.070898,7476.080014,229.828649
512.812942,3330.926739,7772.162391,1072.533697
512.813262,3108.864956,8586.388927,-306.438199
512.813583,1998.556043,9326.594869,-1532.190996
512.813904,2738.761985,9918.759623,-459.657299
512.814224,3108.864956,9400.615463,383.047749
512.814545,3997.112087,8438.347739,766.095498
512.814866,4145.153275,9326.594869,1532.190996
512.815186,3701.029710,10955.047942,153.219100
512.815507,2886.803174,10881.027347,-1302.362347
512.815828,3701.029710,10140.821405,-766.095498
512.816148,4737.318029,8216.285956,459.657299
512.816469,4737.318029,6957.935855,766.095498
512.816790,5255.462188,6957.935855,689.485948
512.817110,4589.276840,8586.388927,-612.876398
512.817431,4219.173869,8882.471304,-919.314598
512.817752,5107.421000,7254.018232,153.219100
512.818072,6439.791695,5107.421000,919.314598
512.818393,7031.956449,4737.318029,1762.019645
512.818714,6587.832884,6587.832884,1532.190996
512.819034,5625.565159,8290.306550,-612.876398
512.819355,5995.668130,8216.285956,-2145.067394
512.819675,7402.059420,7550.100608,-1455.581446
512.819996,7624.121203,6365.771101,-383.047749
512.820317,6735.874072,5921.647536,0.000000
512.820637,6587.832884,7328.038826,-306.438199
512.820958,5699.585753,7550.100608,-919.314598
512.821279,4737.318029,6883.915261,-689.485948
512.821599,4811.338623,6661.853478,153.219100
512.821920,4811.338623,6957.935855,689.485948
512.822241,3256.906145,6809.894666,536.266849
512.822561,4885.359217,7402.059420,306.438199
512.822882,5477.523971,8216.285956,-689.485948
512.823203,3849.070898,8808.450710,-1991.848295
512.823523,3775.050304,8068.244768,-306.438199
512.823844,4441.235652,8142.265362,1608.800546
512.824165,4145.153275,7994.224174,1302.362347
512.824485,4219.173869,8438.347739,1532.190996
512.824806,4145.153275,8882.471304,-459.657299
512.825127,3701.029710,8956.491898,-1532.190996
512.825447,4515.256246,8586.388927,76.609550
512.825768,5033.400406,7402.059420,1072.533697
512.826089,5847.626942,6661.853478,612.876398
512.826409,5773.606348,7550.100608,-383.047749
512.826730,4145.153275,8956.491898,-2374.896044
512.827051,4663.297435,9474.636058,-2221.676944
512.827371,6217.729913,9844.739029,0.000000
512.827692,7179.997637,8216.285956,76.609550
512.828013,6365.771101,6513.812290,-459.657299
512.828333,5921.647536,7846.182985,-1302.362347
512.828654,4663.297435,8586.388927,-1302.362347
512.828975,4441.235652,8364.327145,-459.657299
512.829295,5847.626942,7920.203579,229.828649
512.829616,5625.565159,6513.812290,0.000000
512.829937,5181.441594,7179.997637,0.000000
512.830257,5329.482782,9992.780217,689.485948
512.830578,3997.112087,11251.130318,-995.924147
512.830899,4293.194464,9918.759623,-1225.752797
512.831219,5921.647536,8142.265362,0.000000
512.831540,5477.523971,7328.038826,919.314598
512.831861,4293.194464,7624.121203,1608.800546
512.832181,3108.864956,9252.574275,76.609550
512.832502,2738.761985,9474.636058,-1915.238745
512.832823,3701.029710,9622.677246,-306.438199
512.833143,4737.318029,7994.224174,842.705048
512.833464,4441.235652,6661.853478,842.705048
512.833784,4071.132681,7624.121203,842.705048
512.834105,4293.194464,9622.677246,383.047749
512.834426,4515.256246,10066.800811,-153.219100
512.834746,5033.400406,8956.491898,-153.219100
512.835067,6143.709319,8216.285956,76.609550
512.835388,5551.544565,7179.997637,153.219100
512.835708,5033.400406,7550.100608,0.000000
512.836029,4589.276840,7624.121203,-1072.533697
512.836350,4737.318029,6587.832884,-2221.676944
512.836670,5625.565159,6365.771101,-1455.581446
512.836991,5625.565159,7031.956449,229.828649
512.837312,4737.318029,7550.100608,766.095498
512.837632,5255.462188,8808.450710,229.828649
512.837953,5551.544565,9474.636058,-383.047749
512.838274,5847.626942,8290.306550,-995.924147
512.838594,6883.915261,7105.977043,229.828649
512.838915,6365.771101,5773.606348,1455.581446
512.839236,5255.462188,5107.421000,306.438199
512.839556,4959.379811,5847.626942,-766.095498
512.839877,6143.709319,7624.121203,-1225.752797
512.840198,6143.709319,8216.285956,-612.876398
512.840518,6587.832884,7920.203579,459.657299
512.840839,6513.812290,6883.915261,1072.533697
512.841160,4959.379811,5477.523971,459.657299
512.841480,4589.276840,5773.606348,919.314598
512.841801,6069.688724,7328.038826,536.266849
512.842122,5773.606348,9622.677246,-1149.143247
512.842442,5921.647536,10140.821405,-919.314598
512.842763,5921.647536,9474.636058,-229.828649
512.843084,5847.626942,7994.224174,459.657299
512.843404,5329.482782,6735.874072,689.485948
512.843725,4441.235652,7031.956449,76.609550
512.844046,4589.276840,8734.430116,-1378.971896
512.844366,3478.967927,9548.656652,-842.705048
512.844687,4219.173869,8216.285956,0.000000
512.845008,5773.606348,7328.038826,1072.533697
512.845328,4663.297435,8586.388927,995.924147
512.845649,3849.070898,9696.697840,76.609550
512.845970,3923.091493,9992.780217,-536.266849
512.846290,4145.153275,9474.636058,-995.924147
512.846611,4885.359217,8512.368333,0.000000
512.846932,4589.276840,7994.224174,536.266849
512.847252,4737.318029,8586.388927,-612.876398
512.847573,3849.070898,9770.718434,-919.314598
512.847893,3034.844362,8956.491898,-1072.533697
512.848214,3701.029710,7402.059420,-612.876398
512.848535,5107.421000,6809.894666,1302.362347
512.848855,4441.235652,7105.977043,766.095498
512.849176,5107.421000,8808.450710,0.000000
512.849497,6069.688724,9696.697840,-1532.190996
512.849817,6513.812290,9622.677246,-2911.162892
512.850138,6069.688724,7772.162391,-995.924147
512.850459,6735.874072,6069.688724,766.095498
512.850779,6587.832884,6809.894666,229.828649
512.851100,4811.338623,7994.224174,-229.828649
512.851421,4737.318029,8660.409521,-1685.410096
512.851741,5625.565159,8882.471304,-1915.238745
512.852062,4737.318029,8068.244768,0.000000
512.852383,4959.379811,7624.121203,1685.410096
512.852703,4589.276840,6365.771101,689.485948
512.853024,4885.359217,6957.935855,-842.705048
512.853345,4515.256246,8512.368333,-766.095498
512.853665,4737.318029,8956.491898,-766.095498
512.853986,5995.668130,9178.553681,0.000000
512.854307,5477.523971,8734.430116,536.266849
512.854627,4885.359217,7254.018232,153.219100
512.854948,5921.647536,8068.244768,0.000000
512.855269,4589.276840,8364.327145,-689.485948
512.855589,3478.967927,7846.182985,-1302.362347
512.855910,4811.338623,7179.997637,-153.219100
512.856231,5403.503377,6883.915261,612.876398
512.856551,5403.503377,7105.977043,1149.143247
512.856872,6365.771101,8142.265362,1072.533697
512.857193,5403.503377,8882.471304,-1532.190996
512.857513,5699.585753,8586.388927,-1608.800546
512.857834,6439.791695,7550.100608,-76.609550
512.858155,6291.750507,6809.894666,383.047749
512.858475,6439.791695,6217.729913,383.047749
512.858796,5625.565159,7105.977043,-383.047749
512.859117,4811.338623,7698.141797,-1991.848295
512.859437,4441.235652,7846.182985,-1455.581446
512.859758,5477.523971,7550.100608,0.000000
512.860079,5477.523971,7402.059420,383.047749
512.860399,5403.503377,7254.018232,459.657299
512.860720,5625.565159,8438.347739,306.438199
512.861040,5477.523971,9548.656652,0.000000
512.861361,4959.379811,9178.553681,536.266849
512.861682,5403.503377,8068.244768,459.657299
512.862002,4885.359217,6883.915261,76.609550
512.862323,4441.235652,6883.915261,153.219100
512.862644,4071.132681,8586.388927,-919.314598
512.862964,3997.112087,8956.491898,-2068.457845
512.863285,3627.009116,8660.409521,-1225.752797
512.863606,4071.132681,8216.285956,842.705048
512.863926,4145.153275,7920.203579,1991.848295
512.864247,4293.194464,8216.285956,1762.019645
512.864568,3775.050304,9178.553681,612.876398
512.864888,3997.112087,10140.821405,-1455.581446
512.865209,5921.647536,10140.821405,-842.705048
512.865530,6069.688724,8512.368333,0.000000
512.865850,4293.194464,6217.729913,229.828649
512.866171,4219.173869,5921.647536,0.000000
512.866492,4441.235652,7994.224174,306.438199
512.866812,3627.009116,9326.594869,-536.266849
512.867133,4737.318029,7920.203579,-919.314598
512.867454,6957.935855,6809.894666,-612.876398
512.867774,5921.647536,7476.080014,153.219100
512.868095,4145.153275,7772.162391,842.705048
512.868416,5181.441594,8882.471304,0.000000
512.868736,5625.565159,8882.471304,-1991.848295
512.869057,5403.503377,8956.491898,-1762.019645
512.869378,6365.771101,8660.409521,-842.705048
512.869698,4737.318029,7476.080014,-919.314598
512.870019,3701.029710,7994.224174,-229.828649
512.870340,3849.070898,8290.306550,0.000000
512.870660,4589.276840,7550.100608,-459.657299
512.870981,4959.379811,7328.038826,229.828649
512.871302,4367.215058,7031.956449,229.828649
512.871622,3478.967927,7105.977043,-383.047749
512.871943,4885.359217,8882.471304,153.219100
512.872264,5847.626942,10436.903782,536.266849
512.872584,5847.626942,9696.697840,-995.924147
512.872905,6439.791695,8734.430116,-1149.143247
512.873226,5329.482782,8660.409521,-536.266849
512.873546,3627.009116,7920.203579,-306.438199
512.873867,4737.318029,7328.038826,229.828649
512.874188,5847.626942,8142.265362,0.000000
512.874508,5551.544565,8586.388927,-612.876398
512.874829,4811.338623,8290.306550,-306.438199
512.875149,4737.318029,7550.100608,0.000000
512.875470,4737.318029,7179.997637,0.000000
512.875791,4737.318029,7550.100608,689.485948
512.876111,6439.791695,8438.347739,459.657299
512.876432,5995.668130,9400.615463,-536.266849
512.876753,5033.400406,9104.533087,-306.438199
512.877073,5255.462188,8660.409521,459.657299
512.877394,4811.338623,7772.162391,383.047749
512.877715,4219.173869,7328.038826,-459.657299
512.878035,5255.462188,7698.141797,-1149.143247
512.878356,5181.441594,7846.182985,-1149.143247
512.878677,5107.421000,8438.347739,0.000000
512.878997,4515.256246,7476.080014,306.438199
512.879318,3775.050304,6809.894666,0.000000
512.879639,4737.318029,7698.141797,153.219100
512.879959,4959.379811,9252.574275,306.438199
512.880280,5033.400406,9622.677246,-612.876398
512.880601,5625.565159,9992.780217,0.000000
512.880921,4737.318029,9104.533087,0.000000
512.881242,4071.132681,8068.244768,0.000000
512.881563,3923.091493,7772.162391,0.000000
512.881883,3701.029710,7920.203579,-459.657299
512.882204,3478.967927,8364.327145,0.000000
512.882525,3404.947333,8216.285956,536.266849
512.882845,3627.009116,7179.997637,612.876398
512.883166,4071.132681,7179.997637,-76.609550
512.883487,5329.482782,8586.388927,459.657299
512.883807,5329.482782,9696.697840,0.000000
512.884128,5033.400406,8734.430116,-689.485948
512.884449,5995.668130,8290.306550,0.000000
512.884769,5847.626942,7846.182985,459.657299
512.885090,4959.379811,8068.244768,0.000000
512.885411,4959.379811,7994.224174,-459.657299
512.885731,5329.482782,7772.162391,-1302.362347
512.886052,5181.441594,7254.018232,-1072.533697
512.886373,5329.482782,6661.853478,0.000000
512.886693,4589.276840,5847.626942,0.000000
512.887014,4515.256246,6883.915261,76.609550
512.887334,6365.771101,8068.244768,-306.438199
512.887655,5773.606348,8586.388927,-766.095498
512.887976,5551.544565,7994.224174,-1225.752797
512.888296,6735.874072,9104.533087,229.828649
512.888617,5773.606348,9104.533087,612.876398
512.888937,4589.276840,7994.224174,0.000000
512.889258,6957.935855,7994.224174,-536.266849
512.889579,6217.729913,8068.244768,-2068.457845
512.889899,4811.338623,7402.059420,-1455.581446
512.890220,4589.276840,6365.771101,0.000000
512.890541,5403.503377,6809.894666,153.219100
512.890861,4959.379811,8216.285956,689.485948
512.891182,5551.544565,9252.574275,612.876398
512.891502,5403.503377,9770.718434,-1455.581446
512.891823,4589.276840,9474.636058,-995.924147
512.892144,4293.194464,9030.512492,689.485948
512.892464,4737.318029,7846.182985,1455.581446
512.892785,4959.379811,7550.100608,995.924147
512.893105,5107.421000,8364.327145,-536.266849
512.893426,4367.215058,8956.491898,-1838.629195
512.893747,3775.050304,8586.388927,-1378.971896
512.894067,4293.194464,8290.306550,-229.828649
512.894388,4293.194464,7254.018232,536.266849
512.894708,4589.276840,7105.977043,842.705048
512.895029,4959.379811,9474.636058,-153.219100
512.895350,3034.844362,10658.965565,-1302.362347
512.895670,2516.700203,9918.759623,-1762.019645
512.895991,4663.297435,9104.533087,-229.828649
512.896312,4811.338623,9030.512492,919.314598
512.896632,3552.988522,9178.553681,1302.362347
512.896953,3330.926739,9326.594869,-306.438199
512.897273,3256.906145,9030.512492,-1378.971896
512.897594,3034.844362,8142.265362,-842.705048
512.897915,3849.070898,7105.977043,1685.410096
512.898235,4515.256246,6365.771101,689.485948
512.898556,3923.091493,7031.956449,0.000000
512.898876,4367.215058,9030.512492,-536.266849
512.899197,5773.606348,10214.842000,-1149.143247
512.899518,5995.668130,9030.512492,-1149.143247
512.899838,5773.606348,7772.162391,0.000000
512.900159,6587.832884,8068.244768,536.266849
512.900479,5403.503377,8660.409521,536.266849
512.900800,4589.276840,8512.368333,689.485948
512.901121,6661.853478,8068.244768,0.000000
512.901441,6513.812290,6439.791695,0.000000
512.901762,4737.318029,4737.318029,383.047749
512.902083,4737.318029,4441.235652,536.266849
512.902403,5181.441594,6513.812290,0.000000
512.902724,5625.565159,8512.368333,-153.219100
512.903044,6069.688724,9178.553681,-1378.971896
512.903365,6587.832884,9104.533087,-2298.286494
512.903686,5995.668130,9548.656652,-1072.533697
512.904006,4589.276840,8734.430116,1378.971896
512.904327,3997.112087,7105.977043,919.314598
512.904647,5625.565159,7402.059420,536.266849
512.904968,4663.297435,7402.059420,0.000000
512.905289,4293.194464,7846.182985,-1072.533697
512.905609,4441.235652,7624.121203,-536.266849
512.905930,4293.194464,6735.874072,-229.828649
512.906250,4959.379811,5995.668130,766.095498
512.906571,6143.709319,6883.915261,612.876398
512.906892,5329.482782,8290.306550,-536.266849
512.907212,4737.318029,9474.636058,-612.876398
512.907533,5477.523971,9474.636058,-919.314598
512.907854,5921.647536,8882.471304,-459.657299
512.908174,6217.729913,8142.265362,459.657299
512.908495,6661.853478,7994.224174,-229.828649
512.908815,5329.482782,8364.327145,-1378.971896
512.909136,4737.318029,7846.182985,-1608.800546
512.909457,4589.276840,6735.874072,-306.438199
512.909777,5181.441594,5921.647536,306.438199
512.910098,5699.585753,7031.956449,153.219100
512.910418,6143.709319,9252.574275,229.828649
512.910739,5551.544565,9992.780217,-383.047749
512.911060,6439.791695,9992.780217,-689.485948
512.911380,5773.606348,8216.285956,0.000000
512.911701,4737.318029,6809.894666,0.000000
512.912021,4515.256246,7402.059420,0.000000
512.912342,5477.523971,9696.697840,-536.266849
512.912663,4811.338623,9770.718434,-766.095498
512.912983,4737.318029,8512.368333,-766.095498
512.913304,4663.297435,7031.956449,-306.438199
512.913625,3627.009116,7772.162391,-153.219100
512.913945,2590.720797,8512.368333,995.924147
512.914266,4293.194464,9400.615463,995.924147
512.914586,5551.544565,8956.491898,-459.657299
512.914907,5255.462188,9326.594869,-766.095498
512.915228,4293.194464,8290.306550,0.000000
512.915548,3108.864956,8142.265362,0.000000
512.915869,4219.173869,7624.121203,306.438199
512.916189,5551.544565,8290.306550,0.000000
512.916510,5625.565159,7920.203579,-919.314598
512.916831,5033.400406,7254.018232,-1838.629195
512.917151,4367.215058,6957.935855,-919.314598
512.917472,5181.441594,7179.997637,306.438199
512.917792,6439.791695,7994.224174,919.314598
512.918113,6661.853478,8512.368333,-995.924147
512.918434,5995.668130,8216.285956,-1762.019645
512.918754,5847.626942,8290.306550,-1302.362347
512.919075,5181.441594,7920.203579,76.609550
512.919396,4885.359217,7624.121203,766.095498
512.919716,5551.544565,7328.038826,-612.876398
512.920037,5847.626942,8660.409521,-1302.362347
512.920357,4293.194464,9104.533087,-766.095498
512.920678,3849.070898,7772.162391,459.657299
512.920999,3404.947333,6735.874072,1455.581446
512.921319,3849.070898,6513.812290,1149.143247
512.921640,3997.112087,8808.450710,536.266849
512.921960,4367.215058,9770.718434,-229.828649
512.922281,4293.194464,9622.677246,-689.485948
512.922602,5033.400406,9400.615463,229.828649
512.922922,4885.359217,8290.306550,1455.581446
512.923243,4367.215058,7846.182985,766.095498
512.923563,4663.297435,7476.080014,-306.438199
512.923884,4885.359217,7994.224174,-612.876398
512.924205,5403.503377,8216.285956,0.000000
512.924525,4959.379811,6735.874072,612.876398
512.924846,5033.400406,5699.585753,229.828649
512.925167,5773.606348,6809.894666,-229.828649
512.925487,5921.647536,8660.409521,-995.924147
512.925808,5773.606348,9474.636058,-1378.971896
512.926128,5995.668130,8660.409521,-1378.971896
512.926449,7254.018232,7624.121203,-306.438199
512.926770,6883.915261,6735.874072,842.705048
512.927090,6069.688724,6883.915261,0.000000
512.927411,6217.729913,7476.080014,-1072.533697
512.927731,5699.585753,8512.368333,-1685.410096
512.928052,6365.771101,7994.224174,-689.485948
512.928373,6587.832884,6217.729913,306.438199
512.928693,6143.709319,5477.523971,383.047749
512.929014,5255.462188,6883.915261,-153.219100
512.929334,4293.194464,9104.533087,-536.266849
512.929655,3775.050304,9918.759623,-1378.971896
512.929976,5181.441594,9474.636058,-995.924147
512.930296,6143.709319,8882.471304,919.314598
512.930617,4811.338623,8734.430116,1302.362347
512.930938,2886.803174,9474.636058,76.609550
512.931258,2294.638420,10288.862594,-842.705048
512.931579,2368.659014,9474.636058,0.000000
512.931899,3627.009116,7994.224174,1072.533697
512.932220,4219.173869,7328.038826,1915.238745
512.932541,2960.823768,7328.038826,919.314598
512.932861,2812.782580,8068.244768,0.000000
512.933182,4145.153275,9104.533087,-536.266849
512.933502,5107.421000,8216.285956,-153.219100
512.933823,6217.729913,7179.997637,153.219100
512.934144,7031.956449,7624.121203,459.657299
512.934464,5995.668130,7624.121203,-383.047749
512.934785,4663.297435,7624.121203,-1072.533697
512.935105,6365.771101,7994.224174,-1532.190996
512.935426,7624.121203,9178.553681,-1991.848295
512.935747,6661.853478,8512.368333,-1302.362347
512.936067,6809.894666,7105.977043,-1225.752797
512.936388,6809.894666,6217.729913,-766.095498
512.936709,5033.400406,7031.956449,-459.657299
512.937029,5033.400406,7624.121203,-76.609550
512.937350,5477.523971,8660.409521,-383.047749
512.937670,5921.647536,8808.450710,-689.485948
512.937991,5255.462188,8734.430116,153.219100
512.938312,4515.256246,7698.141797,612.876398
512.938632,4219.173869,6735.874072,-153.219100
512.938953,3775.050304,7920.203579,229.828649
512.939273,3775.050304,7846.182985,153.219100
512.939594,4811.338623,8734.430116,842.705048
512.939915,4737.318029,8290.306550,1532.190996
512.940235,3256.906145,8512.368333,-229.828649
512.940556,3478.967927,8512.368333,0.000000
512.940876,4811.338623,9178.553681,229.828649
512.941197,5551.544565,9844.739029,76.609550
512.941518,5625.565159,8290.306550,689.485948
512.941838,5255.462188,7328.038826,536.266849
512.942159,4515.256246,7179.997637,153.219100
512.942480,3849.070898,6735.874072,0.000000
512.942800,5477.523971,7105.977043,-1072.533697
512.943121,5773.606348,7105.977043,-995.924147
512.943441,6439.791695,7105.977043,-995.924147
512.943762,6365.771101,7254.018232,-459.657299
512.944083,4737.318029,7105.977043,-842.705048
512.944403,5403.503377,7698.141797,-689.485948
512.944724,6439.791695,8438.347739,-306.438199
512.945044,6661.853478,8956.491898,-306.438199
512.945365,7031.956449,8660.409521,-306.438199
512.945686,5255.462188,7994.224174,0.000000
512.946006,4589.276840,7402.059420,-995.924147
512.946327,4663.297435,7402.059420,-995.924147
512.946647,4737.318029,7254.018232,-689.485948
512.946968,4959.379811,7772.162391,-612.876398
512.947289,4589.276840,8512.368333,0.000000
512.947609,2886.803174,8364.327145,536.266849
512.947930,3108.864956,8364.327145,1072.533697
512.948251,4145.153275,9326.594869,1455.581446
512.948571,4145.153275,10288.862594,383.047749
512.948892,4885.359217,10066.800811,-153.219100
512.949212,5181.441594,9326.594869,0.000000
512.949533,4441.235652,8290.306550,766.095498
512.949854,3923.091493,8068.244768,536.266849
512.950174,4145.153275,7994.224174,0.000000
512.950495,4737.318029,8512.368333,-766.095498
512.950815,4293.194464,9030.512492,-153.219100
512.951136,4515.256246,8142.265362,1072.533697
512.951457,4441.235652,7105.977043,842.705048
512.951777,3849.070898,7105.977043,0.000000
512.952098,4367.215058,8586.388927,-842.705048
512.952418,5033.400406,9104.533087,-1532.190996
512.952739,6809.894666,9178.553681,-1225.752797
512.953060,6143.709319,9030.512492,-689.485948
512.953380,4885.359217,8438.347739,-689.485948
512.953701,4367.215058,7402.059420,-1149.143247
512.954022,5329.482782,7624.121203,-306.438199
512.954342,5477.523971,7772.162391,0.000000
512.954663,5699.585753,7105.977043,-383.047749
512.954983,5551.544565,6439.791695,-689.485948
512.955304,4515.256246,6439.791695,153.219100
512.955625,4367.215058,6957.935855,0.000000
512.955945,5033.400406,6883.915261,76.609550
512.956266,7254.018232,8068.244768,-306.438199
512.956586,6365.771101,8364.327145,-842.705048
512.956907,4885.359217,7994.224174,0.000000
512.957228,5329.482782,7994.224174,306.438199
512.957548,5033.400406,8216.285956,0.000000
512.957869,4441.235652,8512.368333,0.000000
512.958189,6513.812290,8734.430116,-689.485948
512.958510,5625.565159,8660.409521,-689.485948
512.958831,3923.091493,7698.141797,612.876398
512.959151,3849.070898,6883.915261,842.705048
512.959472,4219.173869,7031.956449,229.828649
512.959793,4737.318029,8290.306550,153.219100
512.960113,5181.441594,9622.677246,-229.828649
512.960434,4885.359217,9326.594869,-1378.971896
512.960754,5181.441594,8660.409521,-689.485948
512.961075,4811.338623,7920.203579,1149.143247
512.961396,4367.215058,7031.956449,995.924147
512.961716,5551.544565,7328.038826,919.314598
512.962037,5181.441594,8142.265362,-766.095498
512.962357,4663.297435,7920.203579,-1685.410096
512.962678,5403.503377,7179.997637,76.609550
512.962999,6439.791695,6957.935855,1225.752797
512.963319,6069.688724,7328.038826,76.609550
512.963640,6217.729913,7624.121203,-1072.533697
512.963961,5921.647536,8734.430116,-1685.410096
512.964281,5551.544565,9326.594869,-919.314598
512.964602,5329.482782,8586.388927,76.609550
512.964922,5847.626942,7624.121203,229.828649
512.965243,4885.359217,7328.038826,-383.047749
512.965564,4441.235652,8808.450710,-306.438199
512.965884,3701.029710,9326.594869,-689.485948
512.966205,4071.132681,8142.265362,-536.266849
512.966525,4071.132681,7254.018232,612.876398
512.966846,3701.029710,6957.935855,995.924147
512.967167,3552.988522,7846.182985,306.438199
512.967487,4293.194464,9770.718434,229.828649
512.967808,4145.153275,11177.109724,-153.219100
512.968128,5403.503377,9770.718434,-229.828649
512.968449,4441.235652,7920.203579,0.000000
512.968770,3997.112087,6735.874072,0.000000
512.969090,4589.276840,7031.956449,766.095498
512.969411,4663.297435,8216.285956,229.828649
512.969732,4219.173869,8882.471304,-1302.362347
512.970052,4811.338623,8586.388927,-1532.190996
512.970373,4737.318029,7031.956449,-842.705048
512.970693,5255.462188,6513.812290,536.266849
512.971014,5995.668130,7179.997637,1378.971896
512.971335,5995.668130,8882.471304,-383.047749
512.971655,5551.544565,9030.512492,-1915.238745
512.971976,5773.606348,8216.285956,-1302.362347
512.972296,6143.709319,7698.141797,-306.438199
512.972617,5329.482782,7476.080014,919.314598
512.972938,4811.338623,7105.977043,536.266849
512.973258,4959.379811,7328.038826,-1072.533697
512.973579,4219.173869,8438.347739,-1302.362347
512.973899,4293.194464,9030.512492,-612.876398
512.974220,4441.235652,8290.306550,76.609550
512.974541,4811.338623,7846.182985,459.657299
512.974861,5181.441594,8586.388927,229.828649
512.975182,4293.194464,8734.430116,-612.876398
512.975503,4441.235652,8956.491898,-689.485948
512.975823,5329.482782,9400.615463,1072.533697
512.976144,4737.318029,9178.553681,1762.019645
512.976464,4589.276840,8068.244768,842.705048
512.976785,4959.379811,8142.265362,-612.876398
512.977106,4959.379811,8216.285956,-1225.752797
512.977426,4589.276840,8142.265362,153.219100
512.977747,5181.441594,6735.874072,1378.971896
512.978067,4959.379811,5847.626942,1532.190996
512.978388,4885.359217,6661.853478,1072.533697
512.978709,5181.441594,8290.306550,0.000000
512.979029,5107.421000,9178.553681,-1455.581446
512.979350,6069.688724,9992.780217,-2145.067394
512.979670,7920.203579,8808.450710,76.609550
512.979991,6217.729913,6513.812290,-383.047749
512.980312,5699.585753,5255.462188,-536.266849
512.980632,5699.585753,7846.182985,306.438199
512.980953,4071.132681,9252.574275,-306.438199
512.981274,4219.173869,8956.491898,-1532.190996
512.981594,6809.894666,7550.100608,-612.876398
512.981915,5773.606348,6365.771101,76.609550
512.982235,4589.276840,5699.585753,689.485948
512.982556,4293.194464,6661.853478,459.657299
512.982877,4293.194464,8660.409521,-1532.190996
512.983197,4367.215058,9474.636058,-1149.143247
512.983518,4959.379811,9178.553681,-76.609550
512.983838,5181.441594,7920.203579,0.000000
512.984159,5255.462188,7550.100608,842.705048
512.984480,4293.194464,8882.471304,612.876398
512.984800,3478.967927,8808.450710,-1225.752797
512.985121,3849.070898,8142.265362,-1149.143247
512.985441,5329.482782,7698.141797,0.000000
512.985762,4959.379811,7994.224174,1149.143247
512.986083,4441.235652,7772.162391,1225.752797
512.986403,4811.338623,9474.636058,-229.828649
512.986724,5181.441594,10658.965565,-1225.752797
512.987045,4515.256246,9548.656652,-612.876398
512.987366,5773.606348,8734.430116,229.828649
512.987686,5477.523971,7624.121203,842.705048
512.988007,4071.132681,7179.997637,153.219100
512.988328,3775.050304,7698.141797,459.657299
512.988648,4441.235652,8956.491898,-459.657299
512.988969,4811.338623,9030.512492,-536.266849
512.989290,5329.482782,8290.306550,459.657299
512.989610,5329.482782,7476.080014,-306.438199
512.989931,4737.318029,7179.997637,-689.485948
512.990252,5107.421000,8512.368333,-383.047749
512.990572,5403.503377,9104.533087,-612.876398
512.990893,7031.956449,9178.553681,-76.609550
512.991214,7328.038826,7698.141797,1378.971896
512.991535,5255.462188,7031.956449,153.219100
512.991855,4589.276840,7105.977043,-306.438199
512.992176,4737.318029,8068.244768,-383.047749
512.992497,3701.029710,7550.100608,-1149.143247
512.992817,6365.771101,6291.750507,0.000000
512.993138,7105.977043,6587.832884,766.095498
512.993459,5033.400406,6587.832884,-306.438199
512.993779,4663.297435,7105.977043,-766.095498
512.994100,5255.462188,9326.594869,-689.485948
512.994421,5329.482782,9326.594869,-153.219100
512.994742,6957.935855,8586.388927,995.924147
512.995062,6291.750507,8216.285956,459.657299
512.995383,3923.091493,7254.018232,-536.266849
512.995704,3256.906145,7328.038826,-306.438199
512.996024,4071.132681,7994.224174,-842.705048
512.996345,4145.153275,7994.224174,-1149.143247
512.996666,4737.318029,7772.162391,-76.609550
512.996986,5181.441594,7994.224174,306.438199
512.997307,4367.215058,8068.244768,0.000000
512.997628,4145.153275,8660.409521,766.095498
512.997948,4885.359217,9030.512492,229.828649
512.998269,4737.318029,8586.388927,-612.876398
512.998590,5847.626942,8734.430116,1072.533697
512.998911,5403.503377,8438.347739,1072.533697
512.999231,4737.318029,7402.059420,-76.609550
512.999552,5255.462188,7550.100608,-842.705048
512.999873,5551.544565,7772.162391,-1532.190996
513.000193,5773.606348,7328.038826,-1149.143247
513.000514,5995.668130,7254.018232,0.000000
513.000835,6439.791695,7105.977043,766.095498
513.001155,6143.709319,7402.059420,306.438199
513.001476,6069.688724,7994.224174,-383.047749
513.001797,6143.709319,9030.512492,-1608.800546
513.002117,6439.791695,9400.615463,-1608.800546
513.002438,6143.709319,7994.224174,-229.828649
513.002759,5329.482782,7328.038826,612.876398
513.003080,3701.029710,7105.977043,536.266849
513.003400,4071.132681,7402.059420,76.609550
513.003721,3849.070898,8438.347739,-766.095498
513.004042,3997.112087,8216.285956,-689.485948
513.004362,5921.647536,8734.430116,536.266849
513.004683,4885.359217,7994.224174,689.485948
513.005004,3108.864956,6439.791695,-153.219100
513.005324,4885.359217,8364.327145,229.828649
513.005645,4737.318029,10066.800811,-229.828649
513.005966,3997.112087,10066.800811,-766.095498
513.006287,6513.812290,8956.491898,-536.266849
513.006607,5181.441594,7920.203579,-612.876398
513.006928,3849.070898,6809.894666,306.438199
513.007249,4959.379811,7105.977043,1455.581446
513.007569,5255.462188,7624.121203,0.000000
513.007890,5107.421000,7920.203579,0.000000
513.008211,6069.688724,8216.285956,0.000000
513.008531,5995.668130,7402.059420,-536.266849
513.008852,6143.709319,7105.977043,306.438199
513.009173,6439.791695,7179.997637,919.314598
513.009493,6883.915261,8290.306550,-842.705048
513.009814,5625.565159,8586.388927,-1378.971896
513.010135,5181.441594,7550.100608,-1072.533697
513.010456,5921.647536,7994.224174,-612.876398
513.010776,4737.318029,7402.059420,459.657299
513.011097,5181.441594,8290.306550,306.438199
513.011418,5107.421000,8364.327145,-1302.362347
513.011738,4145.153275,8068.244768,-1455.581446
513.012059,4145.153275,8734.430116,153.219100
513.012380,3923.091493,7994.224174,1072.533697
513.012700,3552.988522,6587.832884,536.266849
513.013021,4737.318029,7698.141797,1072.533697
513.013342,4737.318029,9696.697840,0.000000
513.013662,3775.050304,10807.006753,-459.657299
513.013983,3849.070898,10584.944971,0.000000
513.014304,3923.091493,9474.636058,383.047749
513.014625,4219.173869,7846.182985,689.485948
513.014945,3997.112087,7698.141797,919.314598
513.015266,3330.926739,8438.347739,76.609550
513.015587,3701.029710,8586.388927,-383.047749
513.015907,4367.215058,8808.450710,612.876398
513.016228,4589.276840,7624.121203,919.314598
513.016549,5255.462188,7254.018232,306.438199
513.016869,5551.544565,8882.471304,-306.438199
513.017190,4589.276840,9696.697840,-766.095498
513.017511,5107.421000,9178.553681,-459.657299
513.017832,6365.771101,8216.285956,1149.143247
513.018152,5551.544565,7105.977043,153.219100
513.018473,4959.379811,7105.977043,-306.438199
513.018794,5033.400406,7772.162391,-1072.533697
513.019114,4737.318029,7920.203579,-1838.629195
513.019435,5625.565159,6957.935855,-306.438199
513.019756,6513.812290,6217.729913,0.000000
513.020076,5921.647536,5773.606348,76.609550
513.020397,5477.523971,6439.791695,0.000000
513.020718,6069.688724,8068.244768,-766.095498
513.021038,5625.565159,8438.347739,-2221.676944
513.021359,6513.812290,8438.347739,-995.924147
513.021680,6735.874072,7772.162391,536.266849
513.022001,5403.503377,7772.162391,76.609550
513.022321,4959.379811,7624.121203,153.219100
513.022642,4959.379811,8216.285956,-612.876398
513.022963,4737.318029,8290.306550,-1378.971896
513.023283,4589.276840,7624.121203,-612.876398
513.023604,5329.482782,7550.100608,766.095498
513.023925,4663.297435,7846.182985,842.705048
513.024245,4515.256246,7550.100608,1302.362347
513.024566,4441.235652,7846.182985,76.609550
513.024887,3997.112087,8734.430116,-766.095498
513.025207,4293.194464,9400.615463,76.609550
513.025528,4441.235652,9326.594869,1072.533697
513.025849,4589.276840,8734.430116,1378.971896
513.026170,5477.523971,8068.244768,459.657299
513.026490,5995.668130,8142.265362,-766.095498
513.026811,4589.276840,7920.203579,-2987.772442
513.027132,4441.235652,7105.977043,-2145.067394
513.027452,5625.565159,7772.162391,153.219100
513.027773,6365.771101,7772.162391,842.705048
513.028094,6587.832884,8438.347739,0.000000
513.028414,7920.203579,9178.553681,-1072.533697
513.028735,5403.503377,9252.574275,-2757.943793
513.029056,4811.338623,8438.347739,-1532.190996
513.029377,6217.729913,7105.977043,1302.362347
513.029697,5847.626942,6365.771101,1149.143247
513.030018,5181.441594,7105.977043,0.000000
513.030339,4367.215058,9030.512492,-842.705048
513.030659,2664.741391,9548.656652,-1991.848295
513.030980,3256.906145,8734.430116,-612.876398
513.031301,4885.359217,7624.121203,1838.629195
513.031621,4145.153275,6513.812290,1302.362347
513.031942,3849.070898,7550.100608,536.266849
513.032263,3478.967927,9326.594869,-306.438199
513.032583,2664.741391,9918.759623,-1991.848295
513.032904,3849.070898,9030.512492,-383.047749
513.033225,4885.359217,8882.471304,459.657299
513.033546,4959.379811,8660.409521,919.314598
513.033866,3701.029710,8290.306550,995.924147
513.034187,3701.029710,8956.491898,0.000000
513.034508,4219.173869,8808.450710,-919.314598
513.034828,3478.967927,7402.059420,-153.219100
513.035149,4737.318029,6217.729913,1149.143247
513.035470,5551.544565,6365.771101,1072.533697
513.035790,6365.771101,8734.430116,919.314598
513.036111,5551.544565,9918.759623,-306.438199
513.036432,5255.462188,8364.327145,-2451.505594
513.036752,7105.977043,7179.997637,-1455.581446
513.037073,7105.977043,6735.874072,689.485948
513.037394,6513.812290,7105.977043,919.314598
513.037715,6217.729913,7624.121203,306.438199
513.038035,6143.709319,8438.347739,-1532.190996
513.038356,5625.565159,8364.327145,-1072.533697
513.038677,5181.441594,7550.100608,76.609550
513.038997,5625.565159,6365.771101,1685.410096
513.039318,5033.400406,6291.750507,1378.971896
513.039639,4441.235652,6957.935855,306.438199
513.039959,5477.523971,8586.388927,-689.485948
513.040280,4885.359217,8882.471304,-1225.752797
513.040601,4959.379811,8734.430116,-306.438199
513.040922,4885.359217,8808.450710,76.609550
513.041242,4515.256246,8438.347739,383.047749
513.041563,4441.235652,8586.388927,-383.047749
513.041884,4441.235652,8660.409521,-842.705048
513.042204,3849.070898,8512.368333,-1225.752797
513.042525,4293.194464,8586.388927,153.219100
513.042846,4515.256246,7920.203579,995.924147
513.043166,4663.297435,7698.141797,842.705048
513.043487,4737.318029,7920.203579,689.485948
513.043808,4515.256246,9178.553681,-306.438199
513.044128,4145.153275,9252.574275,-766.095498
513.044449,4959.379811,8882.471304,-306.438199
513.044770,5255.462188,7994.224174,1072.533697
513.045091,4959.379811,7179.997637,76.609550
513.045411,4885.359217,7031.956449,-995.924147
513.045732,4663.297435,8364.327145,-1838.629195
513.046053,4737.318029,8956.491898,-1838.629195
513.046373,5773.606348,8512.368333,-1532.190996
513.046694,5995.668130,7105.977043,-459.657299
513.047015,6217.729913,6587.832884,-229.828649
513.047335,6513.812290,8734.430116,766.095498
513.047656,4885.359217,9992.780217,-536.266849
513.047977,3849.070898,9474.636058,-1302.362347
513.048297,5033.400406,7920.203579,-536.266849
513.048618,5255.462188,7031.956449,919.314598
513.048939,4737.318029,6661.853478,1608.800546
513.049260,3849.070898,7328.038826,76.609550
513.049580,3256.906145,8808.450710,-1378.971896
513.049901,4663.297435,8512.368333,-1149.143247
513.050222,4959.379811,7105.977043,459.657299
513.050542,4885.359217,7179.997637,1072.533697
513.050863,5329.482782,8586.388927,536.266849
513.051184,4145.153275,10510.924376,-612.876398
513.051504,3923.091493,10658.965565,-1915.238745
513.051825,6439.791695,9918.759623,-459.657299
513.052146,5921.647536,8882.471304,229.828649
513.052466,3997.112087,7772.162391,612.876398
513.052787,3923.091493,7846.182985,842.705048
513.053108,4293.194464,8734.430116,-689.485948
513.053429,3997.112087,8142.265362,-842.705048
513.053749,4293.194464,7624.121203,536.266849
513.054070,4811.338623,6587.832884,766.095498
513.054391,4515.256246,7031.956449,2145.067394
513.054711,4293.194464,7920.203579,1991.848295
513.055032,5033.400406,8660.409521,0.000000
513.055353,5625.565159,8586.388927,-1455.581446
513.055673,5847.626942,8734.430116,-1762.019645
513.055994,6143.709319,7994.224174,0.000000
513.056315,5625.565159,7179.997637,612.876398
513.056636,6661.853478,7846.182985,-76.609550
513.056956,6069.688724,8068.244768,-1072.533697
513.057277,4367.215058,7328.038826,-1685.410096
513.057598,5551.544565,7105.977043,0.000000
513.057918,5477.523971,5921.647536,1072.533697
513.058239,4959.379811,4959.379811,1072.533697
513.058560,5773.606348,5625.565159,689.485948
513.058880,5995.668130,7698.141797,-1455.581446
513.059201,5033.400406,9844.739029,-1762.019645
513.059522,5181.441594,9770.718434,-459.657299
513.059842,6217.729913,8068.244768,-766.095498
513.060163,6143.709319,7402.059420,-306.438199
513.060484,5181.441594,7179.997637,383.047749
513.060805,4367.215058,8512.368333,-536.266849
513.061125,3256.906145,9178.553681,-1225.752797
513.061446,3552.988522,9030.512492,229.828649
513.061767,4219.173869,8142.265362,842.705048
513.062087,3923.091493,6439.791695,1072.533697
513.062408,4441.235652,7179.997637,612.876398
513.062729,3923.091493,8882.471304,-76.609550
513.063049,3997.112087,9844.739029,-536.266849
513.063370,4885.359217,9696.697840,0.000000
513.063691,5477.523971,7994.224174,536.266849
513.064011,5329.482782,7624.121203,459.657299
513.064332,4959.379811,8808.450710,153.219100
513.064653,3849.070898,9548.656652,-1378.971896
513.064974,4589.276840,8956.491898,-2604.724693
513.065294,5847.626942,7994.224174,-1455.581446
513.065615,5921.647536,7179.997637,0.000000
513.065936,5255.462188,7476.080014,842.705048
513.066256,4811.338623,9178.553681,536.266849
513.066577,4293.194464,10288.862594,0.000000
513.066898,4589.276840,9770.718434,-1302.362347
513.067218,5773.606348,8512.368333,153.219100
513.067539,5477.523971,7624.121203,1532.190996
513.067860,4589.276840,7328.038826,995.924147
513.068181,3775.050304,8142.265362,-229.828649
513.068501,3478.967927,8586.388927,-1915.238745
513.068822,4441.235652,8660.409521,-1762.019645
513.069143,4811.338623,8216.285956,229.828649
513.069463,5329.482782,7476.080014,1302.362347
513.069784,5329.482782,7624.121203,842.705048
513.070105,4663.297435,8734.430116,-306.438199
513.070425,3997.112087,9474.636058,-1608.800546
513.070746,4737.318029,8956.491898,-919.314598
513.071067,5551.544565,8512.368333,459.657299
513.071387,5107.421000,6883.915261,1915.238745
513.071708,5181.441594,6365.771101,995.924147
513.072029,4737.318029,6217.729913,-612.876398
513.072350,3923.091493,6883.915261,-1915.238745
513.072670,4219.173869,7550.100608,-1149.143247
513.072991,6143.709319,8290.306550,536.266849
513.073312,6365.771101,7328.038826,842.705048
513.073632,5921.647536,6809.894666,229.828649
513.073953,7476.080014,8364.327145,-689.485948
513.074274,5033.400406,9474.636058,-919.314598
513.074594,5329.482782,8808.450710,-1225.752797
513.074915,6439.791695,7105.977043,0.000000
513.075236,6365.771101,6291.750507,1149.143247
513.075556,5477.523971,6365.771101,766.095498
513.075877,4811.338623,7328.038826,-612.876398
513.076198,3775.050304,8438.347739,-2451.505594
513.076519,4367.215058,8808.450710,-1532.190996
513.076839,5847.626942,7476.080014,1378.971896
513.077160,6587.832884,6143.709319,1915.238745
513.077481,5551.544565,6809.894666,1302.362347
513.077801,4145.153275,8956.491898,-459.657299
513.078122,3701.029710,9548.656652,-2221.676944
513.078443,5033.400406,8438.347739,-1225.752797
513.078763,7105.977043,8586.388927,536.266849
513.079084,6217.729913,7920.203579,689.485948
513.079405,4737.318029,7550.100608,-766.095498
513.079726,4515.256246,8882.471304,-1455.581446
513.080046,3701.029710,8956.491898,-1225.752797
513.080367,4589.276840,7994.224174,-229.828649
513.080688,5773.606348,7105.977043,1072.533697
513.081008,5181.441594,7402.059420,919.314598
513.081329,4367.215058,9104.533087,306.438199
513.081650,3849.070898,10436.903782,0.000000
513.081970,4071.132681,9770.718434,-2221.676944
513.082291,5403.503377,8882.471304,-1532.190996
513.082612,6957.935855,8808.450710,689.485948
513.082932,5551.544565,8290.306550,1302.362347
513.083253,4145.153275,7476.080014,919.314598
513.083574,4071.132681,7846.182985,-229.828649
513.083895,4737.318029,9104.533087,-766.095498
513.084215,4737.318029,8512.368333,-383.047749
513.084536,5551.544565,6957.935855,459.657299
513.084857,5921.647536,6291.750507,306.438199
513.085177,4145.153275,6439.791695,229.828649
513.085502,4219.173869,6883.915261,-612.876398
513.085822,5107.421000,7624.121203,-1072.533697
513.086143,6735.874072,9474.636058,-1302.362347
513.086464,7031.956449,9770.718434,-766.095498
513.086784,5995.668130,8586.388927,-1149.143247
513.087105,4811.338623,7698.141797,-2221.676944
513.087425,4737.318029,7550.100608,-919.314598
513.087746,3775.050304,7105.977043,-689.485948
513.088067,4071.132681,6439.791695,-306.438199
513.088387,4515.256246,6439.791695,229.828649
513.088708,3404.947333,6883.915261,76.609550
513.089028,3849.070898,8586.388927,-459.657299
513.089349,3627.009116,9474.636058,-689.485948
513.089669,4663.297435,9844.739029,-536.266849
513.089990,5403.503377,8882.471304,0.000000
513.090311,5329.482782,7772.162391,919.314598
513.090631,4293.194464,7328.038826,459.657299
513.090952,3849.070898,8068.244768,76.609550
513.091272,3997.112087,9400.615463,-536.266849
513.091593,4737.318029,9252.574275,-612.876398
513.091914,6217.729913,8882.471304,0.000000
513.092234,6513.812290,8512.368333,459.657299
513.092555,4737.318029,7105.977043,536.266849
513.092875,4367.215058,7328.038826,-306.438199
513.093196,4515.256246,8364.327145,-612.876398
513.093516,4959.379811,9030.512492,-306.438199
513.093837,6365.771101,9252.574275,1072.533697
513.094158,7254.018232,9326.594869,1225.752797
513.094478,5847.626942,8512.368333,1225.752797
513.094799,4441.235652,8142.265362,-229.828649
513.095119,4589.276840,7920.203579,-1455.581446
513.095440,4811.338623,7105.977043,-612.876398
513.095761,5551.544565,5847.626942,536.266849
513.096081,6957.935855,6439.791695,1072.533697
513.096402,5477.523971,6661.853478,-536.266849
513.096722,4737.318029,7254.018232,-383.047749
513.097043,6069.688724,8734.430116,-1072.533697
513.097363,7179.997637,9844.739029,-229.828649
513.097684,6291.750507,9178.553681,536.266849
513.098005,6809.894666,7254.018232,766.095498
513.098325,6809.894666,7031.956449,0.000000
513.098646,4663.297435,7031.956449,0.000000
513.098966,4145.153275,6957.935855,-1072.533697
513.099287,5625.565159,7105.977043,-1455.581446
513.099608,5329.482782,7105.977043,-689.485948
513.099928,4737.318029,6809.894666,842.705048
513.100249,4589.276840,6217.729913,536.266849
513.100569,4515.256246,7105.977043,-842.705048
513.100890,3997.112087,9474.636058,-612.876398
513.101210,4441.235652,9918.759623,0.000000
513.101531,5921.647536,9178.553681,229.828649
513.101852,6143.709319,9030.512492,1378.971896
513.102172,4219.173869,8068.244768,766.095498
513.102493,3627.009116,7624.121203,-842.705048
513.102813,4071.132681,8512.368333,-2451.505594
513.103134,4515.256246,9548.656652,-2298.286494
513.103454,5107.421000,8438.347739,-612.876398
513.103775,4441.235652,7476.080014,842.705048
513.104096,3849.070898,7772.162391,1915.238745
513.104416,2590.720797,8438.347739,919.314598
513.104737,3330.926739,9622.677246,0.000000
513.105057,4589.276840,9400.615463,-1302.362347
513.105378,5403.503377,9474.636058,-306.438199
513.105699,5921.647536,9326.594869,842.705048
513.106019,4737.318029,8142.265362,383.047749
513.106340,4589.276840,7994.224174,-536.266849
513.106660,5625.565159,8660.409521,-1455.581446
513.106981,4589.276840,8882.471304,-1915.238745
513.107301,4589.276840,7402.059420,-919.314598
513.107622,6365.771101,6735.874072,1072.533697
513.107943,5995.668130,7105.977043,1072.533697
513.108263,5107.421000,8512.368333,229.828649
513.108584,4811.338623,9030.512492,-1072.533697
513.108904,5329.482782,9030.512492,-2451.505594
513.109225,6513.812290,8438.347739,-229.828649
513.109546,6217.729913,8290.306550,1608.800546
513.109866,4959.379811,7698.141797,459.657299
513.110187,4367.215058,7698.141797,-766.095498
513.110507,4367.215058,8586.388927,-995.924147
513.110828,4515.256246,8956.491898,-383.047749
513.111148,4811.338623,7772.162391,919.314598
513.111469,5329.482782,7105.977043,766.095498
513.111790,4145.153275,8290.306550,76.609550
513.112110,3034.844362,8290.306550,0.000000
513.112431,3849.070898,8364.327145,-919.314598
513.112751,4959.379811,8068.244768,-306.438199
513.113072,4589.276840,7624.121203,1225.752797
513.113393,3923.091493,7772.162391,1685.410096
513.113713,4219.173869,7846.182985,383.047749
513.114034,4663.297435,8586.388927,-383.047749
513.114354,5403.503377,8734.430116,-689.485948
513.114675,5699.585753,7179.997637,-536.266849
513.114995,5995.668130,6439.791695,-459.657299
513.115316,4737.318029,5551.544565,306.438199
513.115637,4367.215058,6143.709319,306.438199
513.115957,5255.462188,7476.080014,-612.876398
513.116278,5921.647536,9918.759623,-1838.629195
513.116598,6143.709319,9474.636058,-2221.676944
513.116919,6735.874072,8734.430116,-612.876398
513.117240,6217.729913,7328.038826,306.438199
513.117560,4441.235652,6735.874072,76.609550
513.117881,4663.297435,6735.874072,-306.438199
513.118201,4737.318029,8290.306550,-766.095498
513.118522,4737.318029,9030.512492,-842.705048
513.118842,5107.421000,7550.100608,229.828649
513.119163,6735.874072,6883.915261,766.095498
513.119484,6365.771101,6883.915261,229.828649
513.119804,4441.235652,7476.080014,-229.828649
513.120125,4885.359217,8586.388927,-459.657299
513.120445,5847.626942,9918.759623,-536.266849
513.120766,5773.606348,9400.615463,1302.362347
513.121087,6217.729913,8364.327145,1762.019645
513.121407,5847.626942,7624.121203,459.657299
513.121728,4515.256246,8586.388927,-1072.533697
513.122048,3775.050304,7772.162391,-1072.533697
513.122369,4219.173869,7105.977043,-459.657299
513.122689,5403.503377,7031.956449,1072.533697
513.123010,4885.359217,8438.347739,766.095498
513.123331,3849.070898,9622.677246,-383.047749
513.123651,3256.906145,9696.697840,-1915.238745
513.123972,4219.173869,9770.718434,-689.485948
513.124292,6365.771101,9104.533087,1225.752797
513.124613,5773.606348,7402.059420,1915.238745
513.124934,4515.256246,6439.791695,689.485948
513.125254,4071.132681,7105.977043,-1302.362347
513.125575,3923.091493,8364.327145,-1762.019645
513.125895,4367.215058,8512.368333,-1685.410096
513.126216,6143.709319,7698.141797,-919.314598
513.126536,6735.874072,7031.956449,0.000000
513.126857,5551.544565,7994.224174,0.000000
513.127178,4293.194464,8956.491898,0.000000
513.127498,3701.029710,8956.491898,-1302.362347
513.127819,4811.338623,9178.553681,-689.485948
513.128139,6143.709319,8882.471304,1149.143247
513.128460,5699.585753,8660.409521,1762.019645
513.128781,4663.297435,8512.368333,919.314598
513.129101,3182.885551,8068.244768,76.609550
513.129422,3478.967927,7772.162391,-1149.143247
513.129742,3775.050304,7846.182985,-536.266849
513.130063,4515.256246,7105.977043,306.438199
513.130383,4811.338623,7105.977043,612.876398
513.130704,5033.400406,8290.306550,1302.362347
513.131025,4071.132681,8956.491898,995.924147
513.131345,3701.029710,9474.636058,-153.219100
513.131666,4737.318029,9030.512492,-536.266849
513.131986,5625.565159,8808.450710,-459.657299
513.132307,5551.544565,8216.285956,689.485948
513.132628,5403.503377,7105.977043,1149.143247
513.132948,5329.482782,7254.018232,-383.047749
513.133269,5773.606348,7402.059420,-1302.362347
513.133589,4885.359217,7105.977043,-1608.800546
513.133910,5551.544565,7031.956449,-76.609550
513.134230,6661.853478,6735.874072,1072.533697
513.134551,5847.626942,6143.709319,1455.581446
513.134872,5403.503377,5921.647536,0.000000
513.135192,5773.606348,7402.059420,-1608.800546
513.135513,6291.750507,8882.471304,-1838.629195
513.135833,6365.771101,9400.615463,-995.924147
513.136154,6661.853478,8290.306550,0.000000
513.136475,5625.565159,7328.038826,0.000000
513.136795,5403.503377,7550.100608,0.000000
513.137116,5329.482782,8512.368333,-153.219100
513.137436,4367.215058,8586.388927,-995.924147
513.137757,4441.235652,7994.224174,-383.047749
513.138077,4737.318029,7105.977043,306.438199
513.138398,3478.967927,7698.141797,1225.752797
513.138719,3701.029710,8882.471304,1302.362347
513.139039,3478.967927,9770.718434,0.000000
513.139360,3775.050304,9696.697840,-919.314598
513.139680,4737.318029,9252.574275,76.609550
513.140001,4589.276840,8882.471304,1608.800546
513.140322,4367.215058,8808.450710,2221.676944
513.140642,3923.091493,8586.388927,229.828649
513.140963,4293.194464,8586.388927,-919.314598
513.141283,5699.585753,8808.450710,-1225.752797
513.141604,6069.688724,7254.018232,229.828649
513.141924,5329.482782,5847.626942,919.314598
513.142245,5847.626942,6513.812290,383.047749
513.142566,5329.482782,8586.388927,-612.876398
513.142886,4737.318029,9178.553681,-1991.848295
513.143207,6587.832884,8586.388927,-1838.629195
513.143527,7920.203579,7846.182985,-229.828649
513.143848,6217.729913,7624.121203,536.266849
513.144169,4959.379811,7105.977043,383.047749
513.144489,4885.359217,7846.182985,-229.828649
513.144810,4663.297435,8290.306550,-766.095498
513.145130,5181.441594,8586.388927,-919.314598
513.145451,5477.523971,7846.182985,-766.095498
513.145771,5107.421000,6735.874072,-536.266849
513.146092,4293.194464,6661.853478,0.000000
513.146413,4441.235652,7328.038826,153.219100
513.146733,4737.318029,8734.430116,-766.095498
513.147054,4959.379811,9696.697840,-153.219100
513.147374,5107.421000,9622.677246,536.266849
513.147695,4959.379811,8438.347739,919.314598
513.148016,5625.565159,8216.285956,536.266849
513.148336,6735.874072,8438.347739,0.000000
513.148657,6069.688724,7105.977043,-689.485948
513.148977,6587.832884,7179.997637,-306.438199
513.149298,7179.997637,6439.791695,919.314598
513.149618,6439.791695,5107.421000,689.485948
513.149939,7772.162391,3923.091493,689.485948
513.150260,8882.471304,5107.421000,306.438199
513.150580,9474.636058,7031.956449,-306.438199
513.150901,9474.636058,6957.935855,-383.047749
513.151221,9770.718434,5033.400406,-919.314598
513.151542,11473.192101,4589.276840,0.000000
513.151863,10436.903782,4737.318029,0.000000
513.152183,9030.512492,5329.482782,-1149.143247
513.152504,8956.491898,5403.503377,-2681.334243
513.152824,9918.759623,5847.626942,-1915.238745
513.153145,10288.862594,5847.626942,766.095498
513.153465,9474.636058,4663.297435,1302.362347
513.153786,8586.388927,4959.379811,-229.828649
513.154107,7624.121203,5181.441594,-1991.848295
513.154427,6883.915261,5995.668130,-1532.190996
513.154748,8142.265362,5551.544565,-229.828649
513.155068,9030.512492,5773.606348,1225.752797
513.155389,8734.430116,6809.894666,1378.971896
513.155710,7254.018232,8142.265362,76.609550
513.156030,5847.626942,8660.409521,-995.924147
513.156351,6661.853478,7846.182985,-612.876398
513.156671,7920.203579,6513.812290,1302.362347
513.156992,8808.450710,5699.585753,2374.896044
513.157312,8660.409521,5773.606348,1915.238745
513.157633,7179.997637,5255.462188,612.876398
513.157954,7402.059420,4441.235652,-612.876398
513.158274,9548.656652,4441.235652,-306.438199
513.158595,11029.068536,5255.462188,0.000000
513.158915,11769.274478,5921.647536,229.828649
513.159236,12065.356855,6365.771101,0.000000
513.159557,11621.233289,6735.874072,-229.828649
513.159877,10510.924376,5033.400406,-153.219100
513.160198,10140.821405,4219.173869,-766.095498
513.160518,10140.821405,4515.256246,-2068.457845
513.160839,9918.759623,5773.606348,-1762.019645
513.161159,10288.862594,6735.874072,-689.485948
513.161480,10066.800811,7179.997637,-153.219100
513.161801,8808.450710,7328.038826,0.000000
513.162121,8216.285956,6809.894666,306.438199
513.162442,6957.935855,5625.565159,0.000000
513.162762,7105.977043,3627.009116,459.657299
513.163083,7772.162391,2738.761985,1455.581446
513.163404,8734.430116,4441.235652,2068.457845
513.163724,7846.182985,6291.750507,1532.190996
513.164045,7846.182985,7698.141797,0.000000
513.164365,8956.491898,7031.956449,-1532.190996
513.164686,8734.430116,4589.276840,-766.095498
513.165006,8882.471304,2368.659014,612.876398
513.165327,10288.862594,2146.597232,536.266849
513.165648,10955.047942,3404.947333,-766.095498
513.165968,11473.192101,5625.565159,-1838.629195
513.166289,12583.501014,7328.038826,-2298.286494
513.166609,12139.377449,7105.977043,-1302.362347
513.166930,11991.336260,5699.585753,0.000000
513.167251,11251.130318,4071.132681,612.876398
513.167571,9770.718434,3404.947333,-919.314598
513.167892,8586.388927,3552.988522,-995.924147
513.168212,8512.368333,4737.318029,-1762.019645
513.168533,8586.388927,5847.626942,-766.095498
513.168853,8660.409521,6957.935855,0.000000
513.169174,9104.533087,8142.265362,306.438199
513.169495,8290.306550,8364.327145,229.828649
513.169815,7254.018232,7402.059420,536.266849
513.170136,7031.956449,5477.523971,1685.410096
513.170456,7105.977043,4219.173869,1455.581446
513.170777,7179.997637,4219.173869,1225.752797
513.171098,7105.977043,5921.647536,-689.485948
513.171418,7550.100608,6735.874072,-1762.019645
513.171739,9104.533087,7402.059420,-1455.581446
513.172059,10140.821405,7105.977043,-153.219100
513.172380,10732.986159,7105.977043,229.828649
513.172700,10362.883188,6217.729913,1149.143247
513.173021,9326.594869,5403.503377,1532.190996
513.173342,9104.533087,5107.421000,1532.190996
513.173662,9104.533087,4663.297435,459.657299
513.173983,9622.677246,4959.379811,-919.314598
513.174303,9992.780217,5625.565159,-1915.238745
513.174624,9474.636058,5477.523971,-2528.115143
513.174945,9474.636058,5329.482782,-1915.238745
513.175265,9400.615463,4885.359217,-689.485948
513.175586,9400.615463,5699.585753,1225.752797
513.175906,8290.306550,6439.791695,2145.067394
513.176227,8142.265362,6143.709319,1302.362347
513.176547,9252.574275,4885.359217,-229.828649
513.176868,9104.533087,4589.276840,-689.485948
513.177189,8438.347739,4811.338623,-1225.752797
513.177509,8882.471304,5625.565159,-995.924147
513.177830,9252.574275,6365.771101,-1225.752797
513.178150,9400.615463,6291.750507,-1149.143247
513.178471,9844.739029,5773.606348,229.828649
513.178792,9696.697840,4885.359217,919.314598
513.179112,8512.368333,3627.009116,1225.752797
513.179433,8808.450710,2590.720797,1072.533697
513.179753,9918.759623,2368.659014,689.485948
513.180074,10436.903782,2886.803174,383.047749
513.180394,10140.821405,3923.091493,-1149.143247
513.180715,10807.006753,5625.565159,-1915.238745
513.181036,11029.068536,6513.812290,-1762.019645
513.181356,11621.233289,6587.832884,-1378.971896
513.181677,11399.171507,6661.853478,-689.485948
513.181997,10955.047942,5477.523971,-383.047749
513.182318,9770.718434,5255.462188,153.219100
513.182639,8734.430116,4811.338623,1225.752797
513.182959,9030.512492,4737.318029,1149.143247
513.183280,9474.636058,4737.318029,919.314598
513.183600,8586.388927,5403.503377,536.266849
513.183921,8364.327145,4959.379811,0.000000
513.184241,8586.388927,4737.318029,-229.828649
513.184562,8882.471304,4663.297435,-306.438199
513.184883,8734.430116,5551.544565,-153.219100
513.185203,9696.697840,7031.956449,-536.266849
513.185524,10066.800811,8290.306550,-689.485948
513.185844,10140.821405,8364.327145,0.000000
513.186165,9918.759623,7698.141797,1072.533697
513.186486,10140.821405,6143.709319,1149.143247
513.186806,9400.615463,4959.379811,1149.143247
513.187127,8808.450710,4293.194464,919.314598
513.187447,8956.491898,3182.885551,153.219100
513.187768,9548.656652,2442.679609,229.828649
513.188089,10066.800811,3256.906145,689.485948
513.188409,10510.924376,4515.256246,0.000000
513.188730,10510.924376,6809.894666,-612.876398
513.189051,10288.862594,8142.265362,-612.876398
513.189371,10066.800811,8734.430116,536.266849
513.189692,9474.636058,8068.244768,383.047749
513.190013,7698.141797,6587.832884,689.485948
513.190333,6365.771101,6735.874072,229.828649
513.190654,4589.276840,6291.750507,-306.438199
513.190975,4515.256246,5551.544565,-766.095498
513.191295,4811.338623,5847.626942,-153.219100
513.191616,4959.379811,6661.853478,306.438199
513.191937,4663.297435,8364.327145,1455.581446
513.192257,4663.297435,9918.759623,2145.067394
513.192578,5773.606348,10362.883188,2528.115143
513.192899,5921.647536,10066.800811,3677.258390
513.193219,6069.688724,9178.553681,3447.429741
513.193540,5181.441594,7772.162391,3140.991542
513.193861,4959.379811,7328.038826,3064.381992
513.194181,5551.544565,7994.224174,3830.477490
513.194502,6291.750507,8734.430116,3064.381992
513.194823,7179.997637,8956.491898,3677.258390
513.195143,6957.935855,8512.368333,3907.087040
513.195464,6809.894666,7994.224174,4519.963438
513.195785,6735.874072,7624.121203,4596.572988
513.196105,6883.915261,7328.038826,4519.963438
513.196426,7772.162391,7105.977043,4136.915689
513.196747,7846.182985,7994.224174,4596.572988
513.197068,7624.121203,9178.553681,4903.011187
513.197388,7402.059420,9548.656652,6052.154434
513.197709,7254.018232,9548.656652,6358.592633
513.198030,6661.853478,8438.347739,6894.859482
513.198350,7031.956449,7476.080014,7124.688131
513.198671,6661.853478,6439.791695,6665.030833
513.198992,5847.626942,5551.544565,6435.202183
513.199312,5699.585753,4737.318029,6818.249932
513.199633,5773.606348,5477.523971,7048.078582
513.199954,6365.771101,7105.977043,6741.640382
513.200274,5921.647536,8438.347739,6894.859482
513.200595,5551.544565,8660.409521,6588.421283
513.200916,5773.606348,8142.265362,7201.297681
513.201236,5403.503377,7476.080014,8273.831378
513.201557,4441.235652,6809.894666,8580.269578
513.201878,3478.967927,6217.729913,7507.735880
513.202198,2960.823768,5921.647536,6588.421283
513.202519,2516.700203,5773.606348,6281.983084
513.202840,2516.700203,5625.565159,5669.106685
513.203160,2442.679609,6069.688724,5975.544884
513.203481,2664.741391,6587.832884,6128.763984
513.203802,2664.741391,7402.059420,6588.421283
513.204122,2886.803174,7254.018232,7048.078582
513.204443,3627.009116,7624.121203,7277.907231
513.204764,3997.112087,8068.244768,6588.421283
513.205084,3627.009116,8142.265362,5515.887586
513.205405,3849.070898,7920.203579,4826.401637
513.205726,3849.070898,7031.956449,4443.353888
513.206047,3923.091493,5329.482782,4903.011187
513.206367,3701.029710,4885.359217,4903.011187
513.206688,3552.988522,4737.318029,4826.401637
513.207009,3108.864956,5033.400406,3600.648841
513.207329,4071.132681,6217.729913,2987.772442
513.207650,5847.626942,7476.080014,3064.381992
513.207971,6365.771101,8956.491898,3524.039291
513.208291,6809.894666,10436.903782,3140.991542
513.208612,7105.977043,11029.068536,3064.381992
513.208933,7031.956449,10140.821405,4136.915689
513.209253,6587.832884,9104.533087,5132.839837
513.209574,5773.606348,8660.409521,6052.154434
513.209895,5329.482782,9104.533087,5745.716235
513.210215,4737.318029,8438.347739,5669.106685
513.210536,4071.132681,7105.977043,5056.230287
513.210857,3034.844362,4663.297435,2911.162892
513.211177,3404.947333,1628.453072,1991.848295
513.211498,4737.318029,2368.659014,1685.410096
513.211819,6069.688724,6661.853478,306.438199
513.212139,7624.121203,11917.315666,-1225.752797
513.212460,9400.615463,15248.242405,-2451.505594
513.212781,11103.089130,17987.004391,-1072.533697
513.213101,10584.944971,18283.086767,1838.629195
513.213422,9104.533087,15618.345376,4596.572988
513.213743,6883.915261,11399.171507,4979.620737
513.214063,5107.421000,8068.244768,6435.202183
513.214384,4367.215058,6587.832884,8656.879127
513.214705,1110.308913,5403.503377,7201.297681
513.215026,0.000000,4959.379811,4826.401637
513.215346,1184.329507,5255.462188,3524.039291
513.215667,2886.803174,5403.503377,2987.772442
513.215988,4441.235652,6069.688724,3677.258390
513.216308,6661.853478,8512.368333,3677.258390
513.216629,7402.059420,12953.603985,2757.943793
513.216950,6439.791695,16506.592507,2681.334243
513.217270,7550.100608,16950.716072,2374.896044
513.217591,9400.615463,15692.365970,2374.896044
513.217912,7402.059420,12139.377449,3677.258390
513.218232,4737.318029,6587.832884,4979.620737
513.218553,4959.379811,4219.173869,6971.469032
513.218874,2368.659014,3997.112087,7660.954980
513.219194,814.226536,5477.523971,5898.935335
513.219515,3627.009116,7031.956449,4519.963438
513.219836,5773.606348,7105.977043,4903.011187
513.220156,3775.050304,5995.668130,7737.564530
513.220477,5329.482782,5181.441594,10035.851024
513.220798,6809.894666,7254.018232,9269.755526
513.221118,4441.235652,11251.130318,7124.688131
513.221439,1776.494261,11177.109724,5209.449386
513.221760,4293.194464,9400.615463,3064.381992
513.222080,6439.791695,7328.038826,4596.572988
513.222401,3775.050304,5403.503377,7354.516781
513.222722,5033.400406,6439.791695,9193.145976
513.223042,2294.638420,7254.018232,7431.126331
513.223363,666.185348,7846.182985,5439.278036
513.223684,2442.679609,6069.688724,5898.935335
513.224005,4811.338623,3775.050304,6052.154434
513.224325,3849.070898,2590.720797,7048.078582
513.224646,4959.379811,4737.318029,8120.612279
513.224967,6217.729913,9030.512492,7507.735880
513.225287,4737.318029,10510.924376,5975.544884
513.225608,2738.761985,7550.100608,4903.011187
513.225929,3552.988522,5403.503377,5362.668486
513.226249,3256.906145,4811.338623,7124.688131
513.226570,1332.370696,4737.318029,8963.317327
513.226891,4885.359217,7179.997637,9116.536426
513.227211,3330.926739,10214.842000,6358.592633
513.227532,2738.761985,12361.439231,3830.477490
513.227853,3478.967927,11251.130318,3140.991542
513.228173,5033.400406,8216.285956,3064.381992
513.228494,2664.741391,3849.070898,4136.915689
513.228815,4293.194464,1628.453072,6358.592633
513.229135,4885.359217,2812.782580,6665.030833
513.229456,4071.132681,5107.421000,5132.839837
513.229777,2590.720797,6513.812290,1608.800546
513.230097,5921.647536,8364.327145,-536.266849
513.230418,6143.709319,11029.068536,995.924147
513.230739,6217.729913,11991.336260,5132.839837
513.231059,7254.018232,11325.150913,5132.839837
513.231380,7846.182985,10288.862594,2834.553343
513.231701,4737.318029,8216.285956,0.000000
513.232021,3256.906145,5847.626942,-1685.410096
513.232342,4367.215058,4811.338623,-995.924147
513.232663,4811.338623,6069.688724,2374.896044
513.232984,5033.400406,8660.409521,3447.429741
513.233304,4145.153275,9548.656652,1838.629195
513.233625,4367.215058,9326.594869,153.219100
513.233946,4959.379811,9844.739029,-689.485948
513.234266,4663.297435,10362.883188,-1532.190996
513.234587,4737.318029,9400.615463,-1302.362347
513.234908,5551.544565,9622.677246,689.485948
513.235228,5699.585753,11251.130318,1991.848295
513.235549,6291.750507,12583.501014,1302.362347
513.235870,6291.750507,12583.501014,-1149.143247
513.236190,5181.441594,11843.295072,-2528.115143
513.236511,4959.379811,10510.924376,0.000000
513.236832,5477.523971,8364.327145,4213.525239
513.237152,5181.441594,6217.729913,4136.915689
513.237473,3701.029710,5329.482782,1838.629195
513.237794,3404.947333,6661.853478,-995.924147
513.238114,4811.338623,9104.533087,-3064.381992
513.238435,7328.038826,10510.924376,-2298.286494
513.238756,8364.327145,11325.150913,-689.485948
513.239076,8364.327145,11547.212695,229.828649
513.239397,8882.471304,11769.274478,995.924147
513.239718,7624.121203,11843.295072,766.095498
513.240038,5551.544565,10732.986159,-306.438199
513.240359,6365.771101,9474.636058,0.000000
513.240680,6439.791695,8512.368333,1149.143247
513.241000,4367.215058,7402.059420,3294.210641
513.241321,2664.741391,7031.956449,3830.477490
513.241642,2886.803174,6365.771101,1685.410096
513.241963,1628.453072,5181.441594,-766.095498
513.242283,2590.720797,5477.523971,0.000000
513.242604,1850.514855,6217.729913,1762.019645
513.242925,3182.885551,7328.038826,2757.943793
513.243245,5181.441594,9104.533087,3064.381992
513.243566,4737.318029,10362.883188,459.657299
513.243887,3627.009116,10140.821405,-2451.505594
513.244207,4737.318029,9918.759623,-1838.629195
513.244528,5181.441594,9400.615463,459.657299
513.244849,4441.235652,7624.121203,3064.381992
513.245169,3997.112087,6365.771101,2604.724693
513.245490,4367.215058,6439.791695,76.609550
513.245811,1554.432478,5995.668130,383.047749
513.246131,1628.453072,4663.297435,1762.019645
513.246452,3627.009116,3775.050304,2834.553343
