#time,accel_x,accel_y,accel_z
197.897436,5255.462188,7920.203579,-306.438199
197.897757,4885.359217,8216.285956,-229.828649
197.898079,5181.441594,7550.100608,229.828649
197.898400,4811.338623,8512.368333,-383.047749
197.898721,4885.359217,8068.244768,-76.609550
197.899042,5107.421000,8068.244768,-229.828649
197.899363,4885.359217,8290.306550,-153.219100
197.899685,5329.482782,8586.388927,-766.095498
197.900006,4885.359217,8290.306550,0.000000
197.900327,4885.359217,8068.244768,-153.219100
197.900648,5033.400406,7920.203579,-153.219100
197.900969,5107.421000,8216.285956,-306.438199
197.901291,5033.400406,7920.203579,0.000000
197.901612,5329.482782,7994.224174,0.000000
197.901933,4737.318029,8216.285956,-306.438199
197.902254,4885.359217,7994.224174,0.000000
197.902575,4885.359217,7920.203579,0.000000
197.902897,5033.400406,7994.224174,-229.828649
197.903218,4885.359217,7772.162391,-229.828649
197.903539,4959.379811,7994.224174,0.000000
197.903860,5181.441594,7846.182985,-229.828649
197.904181,5181.441594,8216.285956,0.000000
197.904503,5107.421000,7994.224174,-153.219100
197.904824,5181.441594,7772.162391,-153.219100
197.905145,4885.359217,8142.265362,-153.219100
197.905466,5107.421000,7994.224174,-306.438199
197.905787,5033.400406,8068.244768,0.000000
197.906109,5033.400406,7920.203579,-306.438199
197.906430,4959.379811,7994.224174,-306.438199
197.906751,4959.379811,7920.203579,0.000000
197.907072,4885.359217,7920.203579,-383.047749
197.907393,5107.421000,8290.306550,-153.219100
197.907715,4959.379811,7698.141797,-689.485948
197.908036,5181.441594,7698.141797,-459.657299
197.908357,4441.235652,7772.162391,-536.266849
197.908678,4515.256246,7550.100608,-536.266849
197.908999,4367.215058,7550.100608,-459.657299
197.909321,4589.276840,8364.327145,0.000000
197.909642,4663.297435,9326.594869,-383.047749
197.909963,4737.318029,9548.656652,-1149.143247
197.910284,4737.318029,9474.636058,-1072.533697
197.910605,4737.318029,9992.780217,-306.438199
197.910927,3849.070898,9474.636058,383.047749
197.911248,3182.885551,8438.347739,0.000000
197.911569,3256.906145,7105.977043,536.266849
197.911890,3256.906145,7550.100608,766.095498
197.912211,3997.112087,8290.306550,536.266849
197.912533,3849.070898,8512.368333,-459.657299
197.912854,4367.215058,8438.347739,-919.314598
197.913175,4293.194464,8438.347739,153.219100
197.913496,4515.256246,8734.430116,153.219100
197.913817,3701.029710,9622.677246,0.000000
197.914139,3256.906145,9400.615463,-1685.410096
197.914460,3478.967927,9474.636058,-1302.362347
197.914781,3627.009116,10584.944971,-612.876398
197.915102,2664.741391,10881.027347,-995.924147
197.915423,1850.514855,9918.759623,-919.314598
197.915745,2072.576638,9918.759623,-459.657299
197.916066,1406.391290,10362.883188,0.000000
197.916387,370.102971,10658.965565,-612.876398
197.916708,962.267725,10732.986159,-383.047749
197.917029,814.226536,9622.677246,306.438199
197.917351,1184.329507,10066.800811,1762.019645
197.917672,592.164754,10510.924376,2528.115143
197.917993,1036.288319,10288.862594,306.438199
197.918314,518.144159,10807.006753,-229.828649
197.918635,518.144159,11251.130318,-536.266849
197.918957,666.185348,9844.739029,-306.438199
197.919278,2294.638420,9474.636058,0.000000
197.919599,2442.679609,9326.594869,153.219100
197.919920,1628.453072,9696.697840,0.000000
197.920241,1924.535449,9918.759623,-383.047749
197.920563,2590.720797,9548.656652,-536.266849
197.920884,3330.926739,9400.615463,-383.047749
197.921205,4589.276840,9178.553681,229.828649
197.921526,4737.318029,9474.636058,306.438199
197.921847,3997.112087,9326.594869,0.000000
197.922169,3701.029710,8438.347739,-689.485948
197.922490,4515.256246,7254.018232,-995.924147
197.922811,4441.235652,6143.709319,-536.266849
197.923132,4737.318029,6883.915261,536.266849
197.923453,4959.379811,7031.956449,459.657299
197.923775,5699.585753,7105.977043,76.609550
197.924096,6069.688724,7179.997637,229.828649
197.924417,5625.565159,6439.791695,0.000000
197.924738,6661.853478,5921.647536,-689.485948
197.925059,7031.956449,6143.709319,-842.705048
197.925381,6809.894666,6365.771101,-919.314598
197.925702,7402.059420,6439.791695,-612.876398
197.926023,7994.224174,6809.894666,-536.266849
197.926344,7254.018232,7698.141797,-919.314598
197.926665,6439.791695,8142.265362,-1149.143247
197.926987,6587.832884,8142.265362,-1685.410096
197.927308,6365.771101,7994.224174,-766.095498
197.927629,5773.606348,7994.224174,-153.219100
197.927950,5477.523971,7846.182985,76.609550
197.928271,4737.318029,7476.080014,0.000000
197.928593,4515.256246,7846.182985,153.219100
197.928914,4441.235652,8438.347739,919.314598
197.929235,3923.091493,8290.306550,766.095498
197.929556,4293.194464,8068.244768,766.095498
197.929877,4293.194464,8364.327145,1302.362347
197.930199,4589.276840,8734.430116,1149.143247
197.930520,4367.215058,8364.327145,459.657299
197.930841,4515.256246,7994.224174,-612.876398
197.931162,4737.318029,7994.224174,-766.095498
197.931483,4885.359217,7846.182985,-306.438199
197.931805,5033.400406,8216.285956,76.609550
197.932126,5477.523971,9030.512492,-842.705048
197.932447,5921.647536,9474.636058,-1149.143247
197.932768,5773.606348,9696.697840,-1608.800546
197.933089,5033.400406,9622.677246,-1302.362347
197.933411,4737.318029,9474.636058,-306.438199
197.933732,4589.276840,9326.594869,-153.219100
197.934053,3701.029710,9104.533087,-306.438199
197.934374,3330.926739,9104.533087,0.000000
197.934695,3034.844362,8808.450710,0.000000
197.935017,3256.906145,9030.512492,229.828649
197.935338,2812.782580,8956.491898,536.266849
197.935659,2664.741391,8512.368333,919.314598
197.935980,2960.823768,7920.203579,842.705048
197.936301,3182.885551,7772.162391,689.485948
197.936623,3478.967927,7846.182985,229.828649
197.936944,4367.215058,7846.182985,383.047749
197.937265,4663.297435,8142.265362,-612.876398
197.937586,5107.421000,7920.203579,-995.924147
197.937907,5847.626942,7772.162391,-536.266849
197.938229,6365.771101,8142.265362,-1225.752797
197.938550,6513.812290,8068.244768,-842.705048
197.938871,6365.771101,8068.244768,-995.924147
197.939192,6439.791695,7772.162391,-1072.533697
197.939513,6365.771101,7402.059420,-995.924147
197.939835,5995.668130,7402.059420,-383.047749
197.940156,5551.544565,7105.977043,-76.609550
197.940477,5551.544565,7402.059420,-76.609550
197.940798,4885.359217,7476.080014,-229.828649
197.941119,4811.338623,7846.182985,0.000000
197.941441,4663.297435,7772.162391,76.609550
197.941762,4367.215058,7920.203579,153.219100
197.942083,4293.194464,8216.285956,612.876398
197.942404,3997.112087,7994.224174,612.876398
197.942725,3552.988522,8068.244768,612.876398
197.943047,4515.256246,8068.244768,842.705048
197.943368,4145.153275,8068.244768,153.219100
197.943689,4663.297435,7772.162391,153.219100
197.944010,5107.421000,7698.141797,0.000000
197.944331,5551.544565,7624.121203,-306.438199
197.944653,5921.647536,7476.080014,-306.438199
197.944974,6217.729913,7994.224174,-383.047749
197.945295,6143.709319,8216.285956,-459.657299
197.945616,5995.668130,8142.265362,-766.095498
197.945937,6217.729913,8512.368333,-1149.143247
197.946259,5847.626942,8512.368333,-536.266849
197.946580,5181.441594,9104.533087,-995.924147
197.946901,5033.400406,9252.574275,-766.095498
197.947222,4515.256246,9252.574275,-459.657299
197.947543,3627.009116,9252.574275,-612.876398
197.947865,3923.091493,8586.388927,76.609550
197.948186,3404.947333,7920.203579,306.438199
197.948507,3182.885551,7772.162391,612.876398
197.948828,3256.906145,7402.059420,612.876398
197.949149,3404.947333,7328.038826,383.047749
197.949471,3849.070898,7402.059420,0.000000
197.949792,4663.297435,7698.141797,-383.047749
197.950113,5033.400406,7994.224174,-536.266849
197.950434,5477.523971,8142.265362,-459.657299
197.950755,6143.709319,8364.327145,0.000000
197.951077,6217.729913,8364.327145,-459.657299
197.951398,6439.791695,8586.388927,-995.924147
197.951719,5847.626942,8290.306550,-1225.752797
197.952040,5921.647536,8290.306550,-766.095498
197.952361,6661.853478,8216.285956,-459.657299
197.952683,5625.565159,8068.244768,-229.828649
197.953004,5255.462188,7846.182985,-536.266849
197.953325,4515.256246,7920.203579,-536.266849
197.953646,4145.153275,7994.224174,-153.219100
197.953967,3997.112087,8290.306550,153.219100
197.954289,3775.050304,8438.347739,612.876398
197.954610,3923.091493,8142.265362,995.924147
197.954931,3627.009116,8660.409521,1225.752797
197.955252,3701.029710,8512.368333,1149.143247
197.955573,4071.132681,8216.285956,612.876398
197.955895,4367.215058,7920.203579,229.828649
197.956216,4737.318029,7920.203579,0.000000
197.956537,5329.482782,7402.059420,0.000000
197.956858,5773.606348,7698.141797,0.000000
197.957179,6069.688724,7772.162391,-229.828649
197.957500,6365.771101,8438.347739,-306.438199
197.957821,6365.771101,8142.265362,-612.876398
197.958142,6513.812290,7920.203579,-689.485948
197.958463,6217.729913,8364.327145,-383.047749
197.958784,5847.626942,8512.368333,-306.438199
197.959105,5551.544565,8512.368333,-689.485948
197.959426,5033.400406,8290.306550,-459.657299
197.959747,4589.276840,8438.347739,0.000000
197.960068,4219.173869,7994.224174,229.828649
197.960389,3997.112087,7698.141797,689.485948
197.960710,3552.988522,7624.121203,1225.752797
197.961032,3627.009116,6809.894666,1225.752797
197.961353,3923.091493,6809.894666,1072.533697
197.961674,3923.091493,6661.853478,919.314598
197.961995,4589.276840,7105.977043,306.438199
197.962316,5033.400406,6883.915261,-689.485948
197.962637,5255.462188,7328.038826,-1072.533697
197.962958,5847.626942,7254.018232,-995.924147
197.963279,6513.812290,7698.141797,-766.095498
197.963600,6809.894666,7920.203579,-1455.581446
197.963921,6439.791695,8438.347739,-1532.190996
197.964242,6365.771101,8512.368333,-1685.410096
197.964563,6291.750507,7920.203579,-1685.410096
197.964884,6217.729913,7994.224174,-1149.143247
197.965205,5995.668130,7920.203579,-689.485948
197.965526,5551.544565,8290.306550,-766.095498
197.965847,4737.318029,8068.244768,-995.924147
197.966168,4071.132681,8142.265362,-459.657299
197.966489,4071.132681,8364.327145,0.000000
197.966810,3478.967927,8882.471304,536.266849
197.967131,3478.967927,8956.491898,536.266849
197.967452,3256.906145,8660.409521,536.266849
197.967773,3404.947333,8586.388927,459.657299
197.968094,3701.029710,8660.409521,689.485948
197.968415,3775.050304,8808.450710,229.828649
197.968736,4737.318029,8734.430116,0.000000
197.969057,5329.482782,8586.388927,-306.438199
197.969378,5995.668130,8882.471304,-306.438199
197.969699,5995.668130,8882.471304,-306.438199
197.970020,5995.668130,8956.491898,-536.266849
197.970341,5995.668130,9178.553681,-995.924147
197.970662,5995.668130,9030.512492,-995.924147
197.970983,6143.709319,8586.388927,-612.876398
197.971304,5921.647536,8586.388927,-306.438199
197.971625,5551.544565,8808.450710,-536.266849
197.971946,5033.400406,8808.450710,-383.047749
197.972267,4885.359217,9178.553681,0.000000
197.972588,4589.276840,8734.430116,383.047749
197.972909,4293.194464,8068.244768,536.266849
197.973230,3701.029710,7772.162391,229.828649
197.973551,3775.050304,7105.977043,689.485948
197.973872,3923.091493,7105.977043,842.705048
197.974193,4145.153275,6587.832884,612.876398
197.974514,4737.318029,6365.771101,229.828649
197.974835,4811.338623,7031.956449,0.000000
197.975156,4959.379811,7254.018232,-459.657299
197.975477,5403.503377,7476.080014,-229.828649
197.975798,6661.853478,7772.162391,-919.314598
197.976119,7031.956449,7624.121203,-689.485948
197.976440,6809.894666,7328.038826,-842.705048
197.976761,5995.668130,7254.018232,-1455.581446
197.977082,6513.812290,7105.977043,-1072.533697
197.977403,6291.750507,7031.956449,-612.876398
197.977724,5773.606348,7328.038826,-229.828649
197.978045,5625.565159,7031.956449,-153.219100
197.978366,5773.606348,6661.853478,-306.438199
197.978687,4885.359217,7179.997637,0.000000
197.979008,4589.276840,7105.977043,689.485948
197.979329,4367.215058,7105.977043,536.266849
197.979650,4145.153275,7328.038826,536.266849
197.979971,3997.112087,7624.121203,842.705048
197.980292,3701.029710,8068.244768,766.095498
197.980613,4293.194464,7994.224174,153.219100
197.980934,4293.194464,8290.306550,0.000000
197.981255,4737.318029,8364.327145,0.000000
197.981576,5255.462188,7920.203579,229.828649
197.981897,5847.626942,7846.182985,-306.438199
197.982218,5773.606348,8808.450710,0.000000
197.982539,5403.503377,8956.491898,-383.047749
197.982860,5551.544565,8586.388927,-766.095498
197.983181,5773.606348,8808.450710,-536.266849
197.983502,5329.482782,9252.574275,0.000000
197.983823,5181.441594,9178.553681,0.000000
197.984144,4737.318029,9030.512492,0.000000
197.984465,4441.235652,9178.553681,0.000000
197.984786,4367.215058,9622.677246,-229.828649
197.985107,3775.050304,9548.656652,229.828649
197.985428,3997.112087,8882.471304,689.485948
197.985749,3552.988522,8586.388927,1072.533697
197.986070,3330.926739,8142.265362,919.314598
197.986391,3404.947333,7698.141797,766.095498
197.986712,3627.009116,7698.141797,459.657299
197.987033,4293.194464,7550.100608,76.609550
197.987354,4885.359217,7698.141797,0.000000
197.987675,5329.482782,7846.182985,-612.876398
197.987996,5847.626942,8142.265362,-306.438199
197.988317,6365.771101,8586.388927,-1225.752797
197.988638,6587.832884,8068.244768,-1532.190996
197.988959,6365.771101,7920.203579,-1378.971896
197.989280,6661.853478,7698.141797,-1378.971896
197.989601,6661.853478,7624.121203,-1378.971896
197.989922,6809.894666,7550.100608,-1302.362347
197.990243,5847.626942,7846.182985,-1149.143247
197.990564,5403.503377,7920.203579,-689.485948
197.990885,4959.379811,7772.162391,-612.876398
197.991206,5033.400406,7772.162391,0.000000
197.991527,4515.256246,7994.224174,536.266849
197.991848,4145.153275,7476.080014,536.266849
197.992169,3775.050304,7846.182985,153.219100
197.992490,3775.050304,7550.100608,383.047749
197.992811,4145.153275,7624.121203,612.876398
197.993132,3627.009116,7772.162391,536.266849
197.993453,4367.215058,7550.100608,153.219100
197.993774,4737.318029,7920.203579,0.000000
197.994095,5699.585753,7328.038826,-229.828649
197.994416,5995.668130,7254.018232,-229.828649
197.994737,6439.791695,7920.203579,-306.438199
197.995058,6069.688724,8438.347739,-612.876398
197.995379,6513.812290,8438.347739,-1072.533697
197.995700,6513.812290,8364.327145,-919.314598
197.996021,6217.729913,8734.430116,-766.095498
197.996342,6217.729913,8660.409521,-383.047749
197.996663,5551.544565,8734.430116,-536.266849
197.996984,5107.421000,8660.409521,0.000000
197.997305,4959.379811,8734.430116,76.609550
197.997626,4367.215058,8216.285956,306.438199
197.997947,3923.091493,8512.368333,766.095498
197.998268,3552.988522,7624.121203,1455.581446
197.998589,3775.050304,7328.038826,1378.971896
197.998910,3775.050304,6957.935855,1225.752797
197.999231,4145.153275,6883.915261,919.314598
197.999552,4367.215058,7179.997637,612.876398
197.999873,4737.318029,7402.059420,153.219100
198.000194,5329.482782,7624.121203,-306.438199
198.000515,5921.647536,8068.244768,-459.657299
198.000836,6439.791695,7994.224174,-612.876398
198.001157,6587.832884,8438.347739,-1072.533697
198.001478,6291.750507,8660.409521,-1225.752797
198.001799,6069.688724,8290.306550,-1225.752797
198.002120,6069.688724,7920.203579,-1072.533697
198.002441,5773.606348,8438.347739,-612.876398
198.002762,5033.400406,7994.224174,-536.266849
198.003083,4515.256246,7920.203579,-612.876398
198.003404,3997.112087,7846.182985,-459.657299
198.003725,3478.967927,7920.203579,0.000000
198.004046,3997.112087,7476.080014,-306.438199
198.004367,3330.926739,8142.265362,995.924147
198.004688,2960.823768,8216.285956,383.047749
198.005009,2960.823768,8586.388927,383.047749
198.005330,3182.885551,8512.368333,612.876398
198.005651,3701.029710,8586.388927,689.485948
198.005972,3775.050304,8734.430116,-383.047749
198.006293,4367.215058,8586.388927,-536.266849
198.006614,4663.297435,8512.368333,-536.266849
198.006935,5107.421000,8364.327145,0.000000
198.007256,5329.482782,8660.409521,-229.828649
198.007577,5403.503377,8808.450710,-919.314598
198.007898,5329.482782,8734.430116,-536.266849
198.008219,5847.626942,8438.347739,-689.485948
198.008540,5699.585753,8660.409521,-536.266849
198.008861,5995.668130,8808.450710,-459.657299
198.009182,5107.421000,8660.409521,0.000000
198.009503,4811.338623,8438.347739,-383.047749
198.009824,4663.297435,8438.347739,0.000000
198.010145,4737.318029,8734.430116,0.000000
198.010466,4367.215058,8290.306550,383.047749
198.010787,4293.194464,7994.224174,536.266849
198.011108,4071.132681,7550.100608,689.485948
198.011429,4441.235652,7179.997637,612.876398
198.011750,4589.276840,7105.977043,306.438199
198.012071,4959.379811,7328.038826,0.000000
198.012392,5329.482782,7328.038826,-153.219100
198.012713,5847.626942,7402.059420,-459.657299
198.013034,6439.791695,7624.121203,-689.485948
198.013355,6661.853478,7624.121203,-995.924147
198.013676,6957.935855,7920.203579,-1225.752797
198.013997,6587.832884,7476.080014,-919.314598
198.014318,6439.791695,7550.100608,-919.314598
198.014640,6069.688724,7624.121203,-995.924147
198.014961,6143.709319,7994.224174,-842.705048
198.015282,5773.606348,7846.182985,-459.657299
198.015603,5255.462188,7772.162391,-536.266849
198.015924,4737.318029,7476.080014,-459.657299
198.016245,4441.235652,7846.182985,0.000000
198.016566,4071.132681,7920.203579,229.828649
198.016887,3552.988522,7994.224174,306.438199
198.017208,3701.029710,8290.306550,612.876398
198.017529,3404.947333,8216.285956,842.705048
198.017850,3701.029710,7920.203579,842.705048
198.018171,3552.988522,8586.388927,612.876398
198.018492,3627.009116,8216.285956,0.000000
198.018813,4515.256246,8142.265362,-383.047749
198.019134,4737.318029,8142.265362,0.000000
198.019455,5033.400406,8216.285956,0.000000
198.019776,5995.668130,8438.347739,-306.438199
198.020097,5403.503377,8586.388927,-766.095498
198.020418,5551.544565,8512.368333,-766.095498
198.020739,5625.565159,8808.450710,-612.876398
198.021060,5477.523971,8882.471304,-612.876398
198.021381,4885.359217,9178.553681,0.000000
198.021702,4811.338623,9178.553681,0.000000
198.022023,4515.256246,9178.553681,-153.219100
198.022344,4293.194464,9104.533087,0.000000
198.022665,3997.112087,8956.491898,536.266849
198.022986,3330.926739,8290.306550,842.705048
198.023307,3256.906145,7476.080014,1302.362347
198.023628,3256.906145,7402.059420,1378.971896
198.023949,3627.009116,7179.997637,995.924147
198.024270,3997.112087,7105.977043,612.876398
198.024591,4293.194464,7328.038826,383.047749
198.024912,4811.338623,7328.038826,0.000000
198.025233,5625.565159,7402.059420,-153.219100
198.025554,6439.791695,7624.121203,-459.657299
198.025875,6809.894666,7920.203579,-919.314598
198.026196,6957.935855,8068.244768,-1378.971896
198.026517,7031.956449,8068.244768,-1685.410096
198.026838,6809.894666,7920.203579,-1838.629195
198.027159,6735.874072,7624.121203,-1455.581446
198.027480,7105.977043,7624.121203,-995.924147
198.027801,6143.709319,7698.141797,-536.266849
198.028122,5329.482782,7476.080014,-766.095498
198.028443,5107.421000,7550.100608,-536.266849
198.028764,4663.297435,7550.100608,0.000000
198.029085,4441.235652,7254.018232,995.924147
198.029406,4515.256246,7550.100608,995.924147
198.029727,3849.070898,7698.141797,459.657299
198.030048,3478.967927,7994.224174,383.047749
198.030369,3775.050304,8438.347739,76.609550
198.030690,4071.132681,8216.285956,0.000000
198.031011,4367.215058,8068.244768,0.000000
198.031332,4737.318029,8216.285956,153.219100
198.031653,5181.441594,8364.327145,-306.438199
198.031974,5255.462188,8364.327145,-766.095498
198.032295,5255.462188,8882.471304,-612.876398
198.032616,5625.565159,8734.430116,-689.485948
198.032937,5773.606348,8808.450710,-1072.533697
198.033258,5699.585753,8734.430116,-306.438199
198.033579,5403.503377,8956.491898,-383.047749
198.033900,5329.482782,8660.409521,-383.047749
198.034221,4663.297435,8364.327145,-383.047749
198.034542,4441.235652,8586.388927,0.000000
198.034863,4589.276840,8956.491898,-153.219100
198.035184,4071.132681,8586.388927,-153.219100
198.035505,3404.947333,8512.368333,612.876398
198.035826,3627.009116,7994.224174,1225.752797
198.036147,3701.029710,7550.100608,842.705048
198.036468,4071.132681,7550.100608,-229.828649
198.036789,3997.112087,7698.141797,-306.438199
198.037110,4663.297435,7920.203579,-612.876398
198.037431,5181.441594,7624.121203,-306.438199
198.037752,5477.523971,7698.141797,229.828649
198.038073,6439.791695,7994.224174,76.609550
198.038394,5995.668130,8068.244768,-689.485948
198.038715,5921.647536,8142.265362,-1532.190996
198.039036,6069.688724,8290.306550,-1302.362347
198.039357,6513.812290,7994.224174,-919.314598
198.039678,6365.771101,7624.121203,-919.314598
198.039999,5847.626942,7920.203579,-383.047749
198.040320,5181.441594,7994.224174,-229.828649
198.040641,4737.318029,7994.224174,0.000000
198.040962,4515.256246,7698.141797,-229.828649
198.041283,4663.297435,7920.203579,0.000000
198.041604,4441.235652,8142.265362,306.438199
198.041925,3997.112087,8142.265362,229.828649
198.042246,3701.029710,8068.244768,919.314598
198.042567,3923.091493,7920.203579,1072.533697
198.042888,4441.235652,7994.224174,1149.143247
198.043209,4219.173869,7624.121203,229.828649
198.043530,4441.235652,7846.182985,-229.828649
198.043851,5329.482782,7920.203579,0.000000
198.044172,5847.626942,7402.059420,689.485948
198.044493,6143.709319,7179.997637,383.047749
198.044814,6217.729913,7920.203579,-229.828649
198.045135,6143.709319,8290.306550,-1225.752797
198.045456,6513.812290,8438.347739,-1072.533697
198.045777,6291.750507,8586.388927,-612.876398
198.046098,6735.874072,8290.306550,-612.876398
198.046419,5921.647536,8660.409521,-689.485948
198.046740,5329.482782,8808.450710,-383.047749
198.047061,4663.297435,8734.430116,-612.876398
198.047382,4441.235652,8734.430116,0.000000
198.047703,4293.194464,8364.327145,153.219100
198.048024,3701.029710,8216.285956,306.438199
198.048345,3404.947333,7698.141797,919.314598
198.048666,3552.988522,7179.997637,1685.410096
198.048987,3997.112087,6809.894666,1378.971896
198.049308,4145.153275,7031.956449,766.095498
198.049629,4293.194464,7105.977043,459.657299
198.049950,4737.318029,7402.059420,-612.876398
198.050271,5477.523971,7846.182985,-612.876398
198.050592,5995.668130,8068.244768,0.000000
198.050913,6735.874072,7846.182985,-612.876398
198.051234,6883.915261,7846.182985,-1455.581446
198.051555,6365.771101,8068.244768,-1838.629195
198.051876,6365.771101,8808.450710,-1838.629195
198.052197,6365.771101,8512.368333,-1302.362347
198.052518,6957.935855,8068.244768,-842.705048
198.052839,5921.647536,8364.327145,-612.876398
198.053160,5477.523971,7698.141797,-612.876398
198.053481,4515.256246,7994.224174,-383.047749
198.053802,4663.297435,7920.203579,0.000000
198.054123,4441.235652,7920.203579,612.876398
198.054444,4145.153275,7846.182985,383.047749
198.054765,3849.070898,8142.265362,536.266849
198.055086,3849.070898,8364.327145,1149.143247
198.055407,4145.153275,8216.285956,612.876398
198.055728,3849.070898,8068.244768,766.095498
198.056049,4441.235652,8290.306550,0.000000
198.056370,4589.276840,8364.327145,-306.438199
198.056691,4811.338623,8438.347739,0.000000
198.057012,5699.585753,8438.347739,0.000000
198.057333,5773.606348,8956.491898,-306.438199
198.057654,5699.585753,8734.430116,-536.266849
198.057975,5773.606348,8586.388927,-919.314598
198.058296,5699.585753,8808.450710,-995.924147
198.058616,5699.585753,8956.491898,-689.485948
198.058937,5403.503377,8808.450710,0.000000
198.059258,5033.400406,8364.327145,229.828649
198.059579,4589.276840,8364.327145,153.219100
198.059900,4145.153275,7772.162391,-229.828649
198.060221,4145.153275,8290.306550,229.828649
198.060542,3849.070898,7772.162391,536.266849
198.060862,3701.029710,7624.121203,612.876398
198.061183,3997.112087,7031.956449,919.314598
198.061504,4145.153275,7105.977043,689.485948
198.061825,4071.132681,7328.038826,229.828649
198.062146,4663.297435,7105.977043,-383.047749
198.062467,4959.379811,7179.997637,-229.828649
198.062788,5773.606348,7254.018232,-229.828649
198.063109,6365.771101,7328.038826,0.000000
198.063429,6957.935855,7550.100608,-1302.362347
198.063750,6661.853478,8142.265362,-1378.971896
198.064071,6735.874072,8142.265362,-1608.800546
198.064392,6513.812290,7402.059420,-1532.190996
198.064713,6143.709319,7402.059420,-995.924147
198.065034,6439.791695,7254.018232,-306.438199
198.065355,5699.585753,7328.038826,-229.828649
198.065675,5033.400406,7254.018232,-612.876398
198.065996,4515.256246,7846.182985,-612.876398
198.066317,5033.400406,8142.265362,0.000000
198.066638,4515.256246,8068.244768,459.657299
198.066959,3701.029710,8290.306550,612.876398
198.067280,3775.050304,8216.285956,766.095498
198.067601,3775.050304,8586.388927,842.705048
198.067921,3923.091493,7920.203579,689.485948
198.068242,4219.173869,7994.224174,383.047749
198.068563,4441.235652,8882.471304,-612.876398
198.068884,4811.338623,8512.368333,-766.095498
198.069205,4885.359217,8438.347739,-689.485948
198.069526,6069.688724,8438.347739,0.000000
198.069847,6513.812290,8290.306550,0.000000
198.070167,6069.688724,8364.327145,-919.314598
198.070488,5699.585753,8734.430116,-1302.362347
198.070809,6069.688724,8808.450710,-1149.143247
198.071130,5995.668130,8438.347739,-919.314598
198.071451,5773.606348,8808.450710,0.000000
198.071772,5255.462188,9326.594869,-306.438199
198.072093,4811.338623,9326.594869,-153.219100
198.072414,4515.256246,9178.553681,-689.485948
198.072734,3849.070898,9030.512492,0.000000
198.073055,3997.112087,8512.368333,459.657299
198.073376,3627.009116,7920.203579,1072.533697
198.073697,3256.906145,7772.162391,842.705048
198.074018,3552.988522,7920.203579,1685.410096
198.074339,3627.009116,7476.080014,153.219100
198.074660,4145.153275,7550.100608,153.219100
198.074980,4885.359217,7550.100608,0.000000
198.075301,5329.482782,7328.038826,-306.438199
198.075622,6291.750507,7328.038826,0.000000
198.075943,6143.709319,7624.121203,-383.047749
198.076264,6513.812290,7698.141797,-995.924147
198.076585,6439.791695,7846.182985,-1378.971896
198.076906,6587.832884,7772.162391,-1991.848295
198.077226,6587.832884,7179.997637,-766.095498
198.077547,6587.832884,7550.100608,-383.047749
198.077868,5921.647536,7328.038826,76.609550
198.078189,5181.441594,7031.956449,76.609550
198.078510,4441.235652,7179.997637,-459.657299
198.078831,4367.215058,7476.080014,-306.438199
198.079152,4219.173869,7624.121203,459.657299
198.079472,4071.132681,7698.141797,842.705048
198.079793,4219.173869,7846.182985,919.314598
198.080114,3923.091493,7698.141797,1225.752797
198.080435,3552.988522,7476.080014,689.485948
198.080756,3849.070898,7698.141797,153.219100
198.081077,4367.215058,7846.182985,-306.438199
198.081398,4811.338623,8068.244768,153.219100
198.081718,5181.441594,8068.244768,76.609550
198.082039,5107.421000,8364.327145,-229.828649
198.082360,5403.503377,8438.347739,0.000000
198.082681,5477.523971,8808.450710,-306.438199
198.083002,5551.544565,8438.347739,-842.705048
198.083323,5329.482782,8364.327145,-1072.533697
198.083644,5255.462188,9030.512492,-689.485948
198.083965,5107.421000,9030.512492,0.000000
198.084285,4737.318029,9104.533087,229.828649
198.084606,4589.276840,9178.553681,536.266849
198.084927,4367.215058,9178.553681,0.000000
198.085248,3701.029710,8586.388927,-229.828649
198.085569,3404.947333,8290.306550,229.828649
198.085890,3552.988522,7994.224174,1225.752797
198.086211,3775.050304,7402.059420,995.924147
198.086531,3849.070898,7550.100608,459.657299
198.086852,3997.112087,7772.162391,306.438199
198.087173,4663.297435,7772.162391,0.000000
198.087494,5033.400406,7920.203579,-842.705048
198.087815,5773.606348,7846.182985,-1225.752797
198.088136,6217.729913,8068.244768,-1225.752797
198.088457,6809.894666,8438.347739,-1685.410096
198.088777,6587.832884,8438.347739,-1302.362347
198.089098,6587.832884,8290.306550,-1302.362347
198.089419,6439.791695,8068.244768,-1072.533697
198.089740,6365.771101,7846.182985,-1072.533697
198.090061,6143.709319,7624.121203,-1072.533697
198.090382,5625.565159,8068.244768,-536.266849
198.090703,5625.565159,7994.224174,0.000000
198.091023,4737.318029,7772.162391,-459.657299
198.091344,4441.235652,7550.100608,153.219100
198.091665,3997.112087,7994.224174,0.000000
198.091986,3997.112087,8068.244768,536.266849
198.092307,4293.194464,7772.162391,459.657299
198.092628,4293.194464,7698.141797,766.095498
198.092949,4589.276840,8068.244768,459.657299
198.093270,4145.153275,7920.203579,0.000000
198.093590,4663.297435,7994.224174,-306.438199
198.093911,5329.482782,8216.285956,-689.485948
198.094232,5773.606348,7772.162391,-153.219100
198.094553,5921.647536,7772.162391,-612.876398
198.094874,5995.668130,8068.244768,-689.485948
198.095195,6365.771101,8364.327145,-612.876398
198.095516,6439.791695,8512.368333,-459.657299
198.095836,5921.647536,8216.285956,-842.705048
198.096157,5847.626942,8364.327145,-919.314598
198.096478,5403.503377,8512.368333,-536.266849
198.096799,4885.359217,8956.491898,0.000000
198.097120,4885.359217,8512.368333,-229.828649
198.097441,4589.276840,8882.471304,0.000000
198.097762,3627.009116,8808.450710,76.609550
198.098082,3404.947333,8068.244768,536.266849
198.098403,2886.803174,7698.141797,1302.362347
198.098724,3182.885551,7846.182985,1455.581446
198.099045,3404.947333,7624.121203,842.705048
198.099366,3552.988522,7698.141797,383.047749
198.099687,4071.132681,7846.182985,229.828649
198.100008,4441.235652,7624.121203,306.438199
198.100328,4811.338623,7624.121203,0.000000
198.100649,5699.585753,7772.162391,536.266849
198.100970,6143.709319,7920.203579,-536.266849
198.101291,6217.729913,8364.327145,-842.705048
198.101612,6439.791695,7772.162391,-1072.533697
198.101933,6365.771101,7920.203579,-689.485948
198.102254,6513.812290,7698.141797,-459.657299
198.102575,6217.729913,7698.141797,-612.876398
198.102895,5551.544565,7624.121203,-766.095498
198.103216,5625.565159,7698.141797,-689.485948
198.103537,5181.441594,7698.141797,-76.609550
198.103858,4737.318029,7105.977043,229.828649
198.104179,4663.297435,7550.100608,383.047749
198.104500,4145.153275,7920.203579,383.047749
198.104821,3330.926739,8290.306550,383.047749
198.105141,3701.029710,8142.265362,459.657299
198.105462,3849.070898,7920.203579,383.047749
198.105783,3997.112087,8364.327145,229.828649
198.106104,4293.194464,8142.265362,76.609550
198.106425,4515.256246,8734.430116,76.609550
198.106746,4811.338623,7698.141797,229.828649
198.107067,4811.338623,7698.141797,229.828649
198.107387,4737.318029,8290.306550,0.000000
198.107708,5255.462188,8512.368333,-459.657299
198.108029,5403.503377,8808.450710,-919.314598
198.108350,5477.523971,8734.430116,-689.485948
198.108671,5329.482782,9030.512492,-536.266849
198.108992,5403.503377,9030.512492,-229.828649
198.109313,5033.400406,9104.533087,-383.047749
198.109633,4663.297435,9178.553681,-306.438199
198.109954,4663.297435,9400.615463,-383.047749
198.110275,4219.173869,8512.368333,-76.609550
198.110596,4219.173869,7920.203579,0.000000
198.110917,4219.173869,7328.038826,612.876398
198.111238,4145.153275,7254.018232,536.266849
198.111559,4515.256246,7105.977043,306.438199
198.111879,4663.297435,7179.997637,0.000000
198.112200,5181.441594,7254.018232,0.000000
198.112521,5551.544565,7550.100608,-536.266849
198.112842,6069.688724,7624.121203,-536.266849
198.113163,6291.750507,8068.244768,-995.924147
198.113484,6661.853478,8068.244768,-1225.752797
198.113805,6809.894666,7994.224174,-1838.629195
198.114126,6809.894666,8364.327145,-1915.238745
198.114446,6587.832884,7994.224174,-1302.362347
198.114767,6587.832884,8068.244768,-919.314598
198.115088,6217.729913,8142.265362,-766.095498
198.115409,5477.523971,8364.327145,-536.266849
198.115730,5107.421000,8142.265362,-536.266849
198.116051,4811.338623,7920.203579,-536.266849
198.116372,4293.194464,7476.080014,306.438199
198.116692,4071.132681,8068.244768,229.828649
198.117013,4145.153275,8364.327145,766.095498
198.117334,3478.967927,8216.285956,689.485948
198.117655,3849.070898,7994.224174,1149.143247
198.117976,4219.173869,7920.203579,842.705048
198.118297,3849.070898,7920.203579,306.438199
198.118618,4589.276840,8142.265362,-153.219100
198.118938,5107.421000,7846.182985,-306.438199
198.119259,5329.482782,7994.224174,-306.438199
198.119580,5921.647536,7920.203579,-229.828649
198.119901,5921.647536,8068.244768,-306.438199
198.120222,6069.688724,8586.388927,-995.924147
198.120543,5921.647536,8660.409521,-1072.533697
198.120864,5403.503377,8512.368333,-612.876398
198.121184,5699.585753,8734.430116,-536.266849
198.121505,5477.523971,9178.553681,612.876398
198.121826,4737.318029,9104.533087,-383.047749
198.122147,4219.173869,9400.615463,-383.047749
198.122468,3552.988522,9474.636058,0.000000
198.122789,3404.947333,8882.471304,766.095498
198.123110,2664.741391,8364.327145,1685.410096
198.123431,3108.864956,7550.100608,2221.676944
198.123751,2886.803174,7254.018232,1608.800546
198.124072,2960.823768,7105.977043,1455.581446
198.124393,3182.885551,7550.100608,842.705048
198.124714,4071.132681,7698.141797,612.876398
198.125035,4737.318029,7105.977043,229.828649
198.125356,5329.482782,7328.038826,0.000000
198.125677,6069.688724,7846.182985,0.000000
198.125997,6661.853478,7994.224174,-459.657299
198.126318,6587.832884,8142.265362,-1532.190996
198.126639,7105.977043,7920.203579,-1149.143247
198.126960,7328.038826,7550.100608,-919.314598
198.127281,7105.977043,7476.080014,-1532.190996
198.127602,6513.812290,7476.080014,-919.314598
198.127923,5995.668130,7772.162391,-689.485948
198.128243,5625.565159,7105.977043,-306.438199
198.128564,5329.482782,7031.956449,-536.266849
198.128885,4885.359217,7254.018232,-306.438199
198.129206,4737.318029,7624.121203,76.609550
198.129527,4367.215058,7846.182985,0.000000
198.129848,3997.112087,7772.162391,536.266849
198.130169,4145.153275,7698.141797,689.485948
198.130489,3849.070898,8068.244768,0.000000
198.130810,4219.173869,8290.306550,-153.219100
198.131131,4737.318029,8438.347739,-536.266849
198.131452,5107.421000,8290.306550,-383.047749
198.131773,5551.544565,8216.285956,-383.047749
198.132094,5625.565159,8142.265362,0.000000
198.132415,5477.523971,8438.347739,-536.266849
198.132735,5551.544565,8438.347739,-1225.752797
198.133056,5773.606348,8660.409521,-842.705048
198.133377,5921.647536,8660.409521,-766.095498
198.133698,5995.668130,8882.471304,-689.485948
198.134019,5403.503377,8882.471304,-383.047749
198.134340,5181.441594,9622.677246,0.000000
198.134661,4885.359217,9178.553681,0.000000
198.134982,4811.338623,8808.450710,76.609550
198.135302,4441.235652,8512.368333,0.000000
198.135623,4071.132681,8512.368333,306.438199
198.135944,4515.256246,7772.162391,612.876398
198.136265,4293.194464,7328.038826,919.314598
198.136586,4441.235652,7624.121203,612.876398
198.136907,4367.215058,7624.121203,0.000000
198.137228,4811.338623,7550.100608,-229.828649
198.137548,4737.318029,7846.182985,-306.438199
198.137869,5699.585753,7994.224174,-536.266849
198.138190,6143.709319,8142.265362,-842.705048
198.138511,6661.853478,7994.224174,-766.095498
198.138832,6365.771101,8438.347739,-1378.971896
198.139153,6365.771101,8290.306550,-1302.362347
198.139474,5921.647536,7920.203579,-1072.533697
198.139794,5995.668130,7772.162391,-1149.143247
198.140115,5625.565159,7846.182985,-536.266849
198.140436,5107.421000,7846.182985,-229.828649
198.140757,4737.318029,7920.203579,153.219100
198.141078,4219.173869,7698.141797,76.609550
198.141399,3923.091493,7698.141797,383.047749
198.141720,3849.070898,7846.182985,689.485948
198.142040,3775.050304,8068.244768,995.924147
198.142361,3256.906145,8290.306550,1149.143247
198.142682,3701.029710,7772.162391,919.314598
198.143003,4071.132681,8068.244768,1072.533697
198.143324,3627.009116,8068.244768,766.095498
198.143645,4293.194464,7994.224174,0.000000
198.143966,5477.523971,7402.059420,0.000000
198.144287,5551.544565,7698.141797,0.000000
198.144607,5847.626942,7698.141797,0.000000
198.144928,6143.709319,7772.162391,-229.828649
198.145249,6217.729913,8216.285956,-995.924147
198.145570,6291.750507,8512.368333,-995.924147
198.145891,6365.771101,8068.244768,-536.266849
198.146212,6143.709319,8586.388927,-842.705048
198.146533,5625.565159,8808.450710,-229.828649
198.146853,5107.421000,8956.491898,0.000000
198.147174,5033.400406,9030.512492,-306.438199
198.147495,4663.297435,8660.409521,0.000000
198.147816,3923.091493,8586.388927,229.828649
198.148137,3182.885551,8290.306550,459.657299
198.148458,2664.741391,7846.182985,919.314598
198.148779,3552.988522,7402.059420,1225.752797
198.149099,3775.050304,7624.121203,1302.362347
198.149420,3775.050304,7105.977043,1225.752797
198.149741,3997.112087,7402.059420,153.219100
198.150062,4515.256246,7105.977043,0.000000
198.150383,5625.565159,7550.100608,0.000000
198.150704,6513.812290,7402.059420,-306.438199
198.151025,6735.874072,7698.141797,-766.095498
198.151345,6809.894666,8142.265362,-1302.362347
198.151666,7698.141797,7698.141797,-1608.800546
198.151987,7328.038826,7179.997637,-1149.143247
198.152308,7179.997637,7624.121203,-1378.971896
198.152629,6661.853478,7476.080014,-1455.581446
198.152950,6587.832884,7550.100608,-1149.143247
198.153271,5921.647536,7402.059420,-1225.752797
198.153592,5403.503377,7476.080014,-995.924147
198.153912,4811.338623,7846.182985,-766.095498
198.154233,4589.276840,7846.182985,0.000000
198.154554,4367.215058,7920.203579,383.047749
198.154875,4071.132681,8290.306550,383.047749
198.155196,3552.988522,7624.121203,459.657299
198.155517,3552.988522,7994.224174,306.438199
198.155838,3775.050304,8586.388927,0.000000
198.156158,3775.050304,8956.491898,-153.219100
198.156479,4515.256246,8586.388927,-306.438199
198.156800,4589.276840,8956.491898,-229.828649
198.157121,4885.359217,8882.471304,0.000000
198.157442,5107.421000,9104.533087,-306.438199
198.157762,5403.503377,9178.553681,-612.876398
198.158083,5551.544565,9030.512492,-995.924147
198.158404,5255.462188,9252.574275,-153.219100
198.158725,5403.503377,8882.471304,-459.657299
198.159046,4811.338623,9252.574275,0.000000
198.159366,4737.318029,9474.636058,-76.609550
198.159687,4737.318029,9252.574275,0.000000
198.160008,4885.359217,9104.533087,0.000000
198.160329,3997.112087,8512.368333,306.438199
198.160650,3627.009116,7772.162391,1072.533697
198.160970,3701.029710,7402.059420,995.924147
198.161291,4071.132681,7105.977043,919.314598
198.161612,4145.153275,6883.915261,612.876398
198.161933,4589.276840,7254.018232,153.219100
198.162254,5033.400406,7105.977043,-306.438199
198.162574,5107.421000,7254.018232,-229.828649
198.162895,5847.626942,7254.018232,-612.876398
198.163216,6587.832884,7772.162391,-919.314598
198.163537,6587.832884,7846.182985,-1072.533697
198.163858,6439.791695,7994.224174,-1608.800546
198.164178,6587.832884,7698.141797,-1455.581446
198.164499,6439.791695,7772.162391,-919.314598
198.164820,6217.729913,7328.038826,-229.828649
198.165141,5921.647536,7328.038826,-459.657299
198.165462,5181.441594,7328.038826,0.000000
198.165782,4589.276840,7179.997637,0.000000
198.166103,4589.276840,7105.977043,229.828649
198.166424,4441.235652,7105.977043,1072.533697
198.166745,4145.153275,7402.059420,689.485948
198.167066,3701.029710,7920.203579,842.705048
198.167387,3775.050304,7698.141797,995.924147
198.167707,3775.050304,7772.162391,995.924147
198.168028,4293.194464,8068.244768,766.095498
198.168349,4219.173869,8216.285956,76.609550
198.168670,4367.215058,8364.327145,-612.876398
198.168991,4959.379811,8290.306550,-536.266849
198.169311,5403.503377,8216.285956,-689.485948
198.169632,5699.585753,8216.285956,-459.657299
198.169953,5699.585753,8660.409521,-612.876398
198.170274,5847.626942,8512.368333,-995.924147
198.170595,5625.565159,8660.409521,-919.314598
198.170915,5773.606348,8734.430116,-612.876398
198.171236,5625.565159,8734.430116,-766.095498
198.171557,5033.400406,9104.533087,-229.828649
198.171878,5033.400406,9178.553681,0.000000
198.172199,4589.276840,9252.574275,0.000000
198.172519,4145.153275,9326.594869,153.219100
198.172840,3775.050304,9178.553681,306.438199
198.173161,3330.926739,8290.306550,383.047749
198.173482,3182.885551,7920.203579,766.095498
198.173803,3701.029710,7402.059420,842.705048
198.174123,3849.070898,7846.182985,919.314598
198.174444,4145.153275,7846.182985,383.047749
198.174765,4145.153275,7920.203579,0.000000
198.175086,4885.359217,7550.100608,0.000000
198.175407,5699.585753,7920.203579,-383.047749
198.175727,6217.729913,8068.244768,-536.266849
198.176048,6513.812290,8512.368333,-689.485948
198.176369,6587.832884,8216.285956,-1072.533697
198.176690,6735.874072,7920.203579,-1302.362347
198.177011,6661.853478,7476.080014,-1225.752797
198.177331,6661.853478,8068.244768,-1072.533697
198.177652,6661.853478,7846.182985,-766.095498
198.177973,5847.626942,7476.080014,-842.705048
198.178294,5329.482782,7105.977043,-766.095498
198.178615,5181.441594,7105.977043,-383.047749
198.178935,4811.338623,7254.018232,-306.438199
198.179256,4589.276840,7624.121203,-229.828649
198.179577,4219.173869,7920.203579,229.828649
198.179898,3923.091493,7994.224174,383.047749
198.180219,4293.194464,7772.162391,306.438199
198.180539,4145.153275,7846.182985,153.219100
198.180860,4293.194464,8364.327145,229.828649
198.181181,4367.215058,8142.265362,0.000000
198.181502,4737.318029,7698.141797,-153.219100
198.181823,5181.441594,7920.203579,0.000000
198.182143,5403.503377,8290.306550,0.000000
198.182464,5329.482782,8142.265362,0.000000
198.182785,5625.565159,8364.327145,0.000000
198.183106,5921.647536,8512.368333,-459.657299
198.183427,5477.523971,8734.430116,-612.876398
198.183747,5255.462188,8882.471304,-459.657299
198.184068,4811.338623,9252.574275,0.000000
198.184389,4737.318029,9400.615463,-76.609550
198.184710,4663.297435,9178.553681,306.438199
198.185031,4293.194464,8808.450710,459.657299
198.185351,3627.009116,8734.430116,76.609550
198.185672,2886.803174,8586.388927,766.095498
198.185993,3256.906145,7624.121203,919.314598
198.186314,3701.029710,7254.018232,842.705048
198.186635,3997.112087,7402.059420,536.266849
198.186956,4145.153275,7698.141797,229.828649
198.187276,4737.318029,7698.141797,0.000000
198.187597,5107.421000,7402.059420,76.609550
198.187918,5773.606348,7920.203579,-383.047749
198.188239,6365.771101,7772.162391,-689.485948
198.188560,6661.853478,7920.203579,-1302.362347
198.188880,6513.812290,8216.285956,-919.314598
198.189201,6365.771101,8068.244768,-919.314598
198.189522,6513.812290,7846.182985,-919.314598
198.189843,6365.771101,7624.121203,-689.485948
198.190164,5773.606348,7698.141797,-459.657299
198.190484,5403.503377,7698.141797,-383.047749
198.190805,4737.318029,7624.121203,0.000000
198.191126,4515.256246,7994.224174,-306.438199
198.191447,4219.173869,7920.203579,76.609550
198.191768,3849.070898,7846.182985,76.609550
198.192088,3701.029710,8142.265362,229.828649
198.192409,3775.050304,8438.347739,612.876398
198.192730,3775.050304,8068.244768,1072.533697
198.193051,3849.070898,7994.224174,919.314598
198.193372,3997.112087,8290.306550,153.219100
198.193692,4737.318029,7994.224174,0.000000
198.194013,5255.462188,8068.244768,-383.047749
198.194334,5551.544565,7772.162391,-459.657299
198.194655,5773.606348,7772.162391,-459.657299
198.194976,5847.626942,8142.265362,-383.047749
198.195296,5995.668130,8734.430116,-612.876398
198.195617,5995.668130,8290.306550,-842.705048
198.195938,6143.709319,8438.347739,-995.924147
198.196259,6069.688724,8734.430116,-919.314598
198.196580,5181.441594,9030.512492,-459.657299
198.196900,5255.462188,9696.697840,-383.047749
198.197221,5329.482782,9474.636058,0.000000
198.197542,4515.256246,9252.574275,0.000000
198.197863,3997.112087,8586.388927,0.000000
198.198184,3627.009116,7994.224174,383.047749
198.198504,3627.009116,7846.182985,1149.143247
198.198825,3775.050304,7254.018232,1149.143247
198.199146,3849.070898,7328.038826,689.485948
198.199467,3997.112087,7254.018232,383.047749
198.199788,4589.276840,7254.018232,0.000000
198.200108,5255.462188,7550.100608,536.266849
198.200429,5995.668130,7328.038826,0.000000
198.200750,6735.874072,7772.162391,-536.266849
198.201071,6883.915261,7698.141797,-1072.533697
198.201392,6883.915261,7550.100608,-1455.581446
198.201712,6957.935855,8142.265362,-1302.362347
198.202033,6735.874072,7772.162391,-1072.533697
198.202354,6513.812290,7698.141797,-995.924147
198.202675,6365.771101,7698.141797,-995.924147
198.202996,5921.647536,7402.059420,-459.657299
198.203316,5625.565159,7476.080014,-459.657299
198.203637,4811.338623,7402.059420,-306.438199
198.203958,4293.194464,7624.121203,0.000000
198.204279,3997.112087,7846.182985,76.609550
198.204600,3552.988522,8216.285956,306.438199
198.204920,3701.029710,8290.306550,0.000000
198.205241,3478.967927,8216.285956,612.876398
198.205562,3552.988522,8364.327145,383.047749
198.205883,3923.091493,8216.285956,0.000000
198.206204,4441.235652,8438.347739,76.609550
198.206525,5181.441594,8586.388927,-536.266849
198.206845,4959.379811,8512.368333,0.000000
198.207166,5181.441594,8660.409521,-76.609550
198.207487,5403.503377,8734.430116,-229.828649
198.207808,5773.606348,8882.471304,-612.876398
198.208129,5551.544565,9030.512492,-536.266849
198.208449,5477.523971,8882.471304,-536.266849
198.208770,5329.482782,8956.491898,-536.266849
198.209091,4959.379811,8956.491898,-229.828649
198.209412,4589.276840,8660.409521,-153.219100
198.209733,4811.338623,9104.533087,306.438199
198.210053,4663.297435,8512.368333,76.609550
198.210374,4071.132681,8734.430116,-76.609550
198.210695,3478.967927,8216.285956,612.876398
198.211016,3701.029710,7772.162391,612.876398
198.211337,3923.091493,7402.059420,383.047749
198.211657,4367.215058,7402.059420,229.828649
198.211978,4367.215058,7550.100608,0.000000
198.212299,4737.318029,7476.080014,-306.438199
198.212620,5403.503377,7846.182985,0.000000
198.212941,5847.626942,7846.182985,-689.485948
198.213261,6439.791695,7772.162391,-842.705048
198.213582,6365.771101,7772.162391,-1149.143247
198.213903,6217.729913,7994.224174,-1149.143247
198.214224,6587.832884,7846.182985,-1225.752797
198.214545,6883.915261,7772.162391,-995.924147
198.214865,6439.791695,7624.121203,-766.095498
198.215186,5921.647536,7994.224174,-76.609550
198.215507,5625.565159,7402.059420,-459.657299
198.215828,5181.441594,7254.018232,-459.657299
198.216149,4737.318029,7476.080014,306.438199
198.216469,4737.318029,7476.080014,0.000000
198.216790,4145.153275,7698.141797,229.828649
198.217111,3923.091493,7994.224174,383.047749
198.217432,4071.132681,8142.265362,383.047749
198.217753,4145.153275,8142.265362,536.266849
198.218073,4145.153275,7772.162391,689.485948
198.218394,4441.235652,8068.244768,0.000000
198.218715,4737.318029,7994.224174,0.000000
198.219036,5403.503377,7920.203579,-229.828649
198.219357,5329.482782,8290.306550,-766.095498
198.219677,5773.606348,7994.224174,-229.828649
198.219998,5699.585753,8512.368333,-766.095498
198.220319,5995.668130,8364.327145,-919.314598
198.220640,5995.668130,8438.347739,-919.314598
198.220961,6143.709319,8956.491898,-919.314598
198.221281,5551.544565,8586.388927,-612.876398
198.221602,5033.400406,9104.533087,-153.219100
198.221923,4737.318029,9326.594869,0.000000
198.222244,4737.318029,9178.553681,229.828649
198.222565,4515.256246,8956.491898,459.657299
198.222885,3775.050304,8586.388927,689.485948
198.223206,3478.967927,8216.285956,995.924147
198.223527,3256.906145,7846.182985,1149.143247
198.223848,3627.009116,7402.059420,1302.362347
198.224169,3849.070898,7624.121203,1072.533697
198.224489,3923.091493,7550.100608,536.266849
198.224810,4589.276840,7254.018232,0.000000
198.225131,5033.400406,7328.038826,76.609550
198.225452,5921.647536,7254.018232,0.000000
198.225773,6735.874072,7698.141797,-1072.533697
198.226094,6735.874072,8142.265362,-995.924147
198.226414,6735.874072,8068.244768,-1378.971896
198.226735,6809.894666,7920.203579,-1532.190996
198.227056,6735.874072,7920.203579,-1378.971896
198.227377,6587.832884,8142.265362,-612.876398
198.227698,5921.647536,7994.224174,-995.924147
198.228018,5477.523971,7624.121203,-842.705048
198.228339,4959.379811,7846.182985,-536.266849
198.228660,4515.256246,7846.182985,153.219100
198.228981,3997.112087,7846.182985,76.609550
198.229302,3627.009116,7920.203579,153.219100
198.229622,3627.009116,7994.224174,459.657299
198.229943,3256.906145,8364.327145,919.314598
198.230264,3478.967927,8290.306550,995.924147
198.230585,3701.029710,8734.430116,612.876398
198.230906,3775.050304,8290.306550,153.219100
198.231226,4219.173869,8290.306550,0.000000
198.231547,4589.276840,8142.265362,0.000000
198.231868,5255.462188,8216.285956,-612.876398
198.232189,5551.544565,8142.265362,229.828649
198.232510,5625.565159,8142.265362,-612.876398
198.232830,5921.647536,8438.347739,-919.314598
198.233151,6143.709319,8660.409521,-919.314598
198.233472,5995.668130,8512.368333,-842.705048
198.233793,6217.729913,8438.347739,-306.438199
198.234114,5699.585753,8808.450710,-383.047749
198.234434,5255.462188,9104.533087,0.000000
198.234755,5107.421000,8734.430116,0.000000
198.235076,4885.359217,8586.388927,-306.438199
198.235397,4293.194464,8512.368333,0.000000
198.235718,4219.173869,7698.141797,76.609550
198.236038,4441.235652,7105.977043,919.314598
198.236359,4367.215058,7105.977043,919.314598
198.236680,4515.256246,7254.018232,536.266849
198.237001,4737.318029,7402.059420,229.828649
198.237322,5181.441594,7179.997637,-306.438199
198.237642,5625.565159,7550.100608,-459.657299
198.237963,6143.709319,7920.203579,-612.876398
198.238284,6661.853478,8216.285956,-689.485948
198.238605,6439.791695,8290.306550,-1302.362347
198.238926,6587.832884,7994.224174,-1149.143247
198.239246,6291.750507,8142.265362,-995.924147
198.239567,6143.709319,7624.121203,-766.095498
198.239888,5699.585753,7920.203579,-689.485948
198.240209,5403.503377,8142.265362,0.000000
198.240530,4959.379811,7624.121203,0.000000
198.240850,4367.215058,7254.018232,0.000000
198.241171,3775.050304,7624.121203,153.219100
198.241492,3627.009116,7920.203579,153.219100
198.241813,3256.906145,8586.388927,0.000000
198.242134,3552.988522,8290.306550,919.314598
198.242454,3478.967927,8290.306550,1072.533697
198.242775,3849.070898,8290.306550,1072.533697
198.243096,3849.070898,8364.327145,842.705048
198.243417,3997.112087,8956.491898,153.219100
198.243738,4367.215058,8290.306550,-459.657299
198.244058,5033.400406,7920.203579,-536.266849
198.244379,5551.544565,7920.203579,-306.438199
198.244700,5995.668130,8216.285956,0.000000
198.245021,5921.647536,8438.347739,-1072.533697
198.245342,6365.771101,8216.285956,-689.485948
198.245663,5921.647536,8142.265362,-383.047749
198.245983,5921.647536,8512.368333,-919.314598
198.246304,5625.565159,8808.450710,-536.266849
198.246625,5551.544565,9326.594869,0.000000
198.246946,5181.441594,8882.471304,0.000000
198.247267,4811.338623,8956.491898,76.609550
198.247587,4293.194464,8512.368333,0.000000
198.247908,3552.988522,8290.306550,76.609550
198.248229,3330.926739,7994.224174,995.924147
198.248550,3478.967927,7254.018232,995.924147
198.248871,3330.926739,7624.121203,919.314598
198.249191,3923.091493,7254.018232,612.876398
198.249512,4293.194464,7476.080014,229.828649
198.249833,4441.235652,7328.038826,459.657299
198.250154,4959.379811,7476.080014,0.000000
198.250475,5847.626942,7624.121203,-459.657299
198.250795,6587.832884,7550.100608,-842.705048
198.251116,6735.874072,7994.224174,-919.314598
198.251437,6809.894666,8290.306550,-1302.362347
198.251758,6809.894666,7920.203579,-1608.800546
198.252079,6883.915261,7698.141797,-1072.533697
198.252399,6735.874072,7476.080014,-766.095498
198.252720,5921.647536,7550.100608,-995.924147
198.253041,5625.565159,7920.203579,-919.314598
198.253362,5255.462188,7402.059420,-383.047749
198.253683,4959.379811,7254.018232,-76.609550
198.254003,4811.338623,7254.018232,0.000000
198.254324,4219.173869,7698.141797,229.828649
198.254645,3849.070898,8290.306550,919.314598
198.254966,3849.070898,8290.306550,459.657299
198.255287,3701.029710,8068.244768,536.266849
198.255607,3701.029710,8364.327145,153.219100
198.255928,4145.153275,8660.409521,0.000000
198.256249,4589.276840,9030.512492,0.000000
198.256570,4737.318029,8364.327145,-459.657299
198.256891,4811.338623,8438.347739,-306.438199
198.257211,5181.441594,8364.327145,0.000000
198.257532,5551.544565,8364.327145,-459.657299
198.257853,5477.523971,8956.491898,-689.485948
198.258174,5773.606348,9030.512492,-842.705048
198.258495,5329.482782,8586.388927,-612.876398
198.258815,5403.503377,9030.512492,-766.095498
198.259136,4885.359217,9104.533087,-383.047749
198.259457,4885.359217,9326.594869,0.000000
198.259778,4663.297435,9178.553681,0.000000
198.260099,4441.235652,8882.471304,0.000000
198.260420,3775.050304,8660.409521,153.219100
198.260741,3701.029710,8142.265362,459.657299
198.261062,3849.070898,7698.141797,995.924147
198.261383,3849.070898,7624.121203,842.705048
198.261704,4071.132681,7550.100608,383.047749
198.262025,4441.235652,7624.121203,306.438199
198.262346,4737.318029,7550.100608,-229.828649
198.262667,5403.503377,7772.162391,0.000000
198.262987,5995.668130,7624.121203,-153.219100
198.263308,6217.729913,7624.121203,-459.657299
198.263629,6217.729913,7920.203579,-766.095498
198.263950,6217.729913,7994.224174,-919.314598
198.264271,6069.688724,7994.224174,-536.266849
198.264592,6143.709319,7698.141797,-459.657299
198.264913,6069.688724,7846.182985,-383.047749
198.265234,5773.606348,7772.162391,-536.266849
198.265555,4959.379811,7624.121203,-306.438199
198.265876,4589.276840,7772.162391,-383.047749
198.266197,4441.235652,7550.100608,76.609550
198.266518,4145.153275,7772.162391,459.657299
198.266839,3627.009116,7994.224174,536.266849
198.267160,3849.070898,8068.244768,612.876398
198.267480,3627.009116,8142.265362,612.876398
198.267801,3552.988522,7476.080014,995.924147
198.268122,3997.112087,7920.203579,536.266849
198.268443,4071.132681,7920.203579,0.000000
198.268764,4737.318029,7994.224174,-306.438199
198.269085,5477.523971,8216.285956,-919.314598
198.269406,5551.544565,7846.182985,-536.266849
198.269727,5847.626942,8068.244768,-536.266849
198.270048,5847.626942,8364.327145,-383.047749
198.270369,5995.668130,8512.368333,-995.924147
198.270690,5995.668130,8364.327145,-612.876398
198.271011,5847.626942,8808.450710,-689.485948
198.271332,5625.565159,8734.430116,-229.828649
198.271653,5181.441594,9104.533087,-383.047749
198.271973,4737.318029,9104.533087,-229.828649
198.272294,4367.215058,9252.574275,153.219100
198.272615,3849.070898,9030.512492,76.609550
198.272936,3552.988522,8512.368333,306.438199
198.273257,3182.885551,8068.244768,766.095498
198.273578,3404.947333,7920.203579,1072.533697
198.273899,4071.132681,8142.265362,1072.533697
198.274220,4071.132681,7920.203579,536.266849
198.274541,4293.194464,7402.059420,0.000000
198.274862,4885.359217,7476.080014,0.000000
198.275183,5477.523971,7179.997637,0.000000
198.275504,6513.812290,8142.265362,-229.828649
198.275825,6809.894666,7846.182985,-919.314598
198.276146,7105.977043,7772.162391,-1685.410096
198.276466,7105.977043,7994.224174,-1608.800546
198.276787,7254.018232,7624.121203,-1455.581446
198.277108,7105.977043,7772.162391,-1225.752797
198.277429,6661.853478,7994.224174,-1149.143247
198.277750,6069.688724,8068.244768,-919.314598
198.278071,5329.482782,7698.141797,-919.314598
198.278392,4811.338623,7624.121203,-459.657299
198.278713,4737.318029,7698.141797,0.000000
198.279034,4071.132681,7994.224174,0.000000
198.279355,3552.988522,8216.285956,229.828649
198.279676,3330.926739,8734.430116,689.485948
198.279997,3478.967927,8290.306550,1225.752797
198.280318,3182.885551,8364.327145,1149.143247
198.280639,3478.967927,7994.224174,612.876398
198.280959,3775.050304,8216.285956,229.828649
198.281280,4145.153275,8364.327145,153.219100
198.281601,4959.379811,8068.244768,0.000000
198.281922,5551.544565,8512.368333,-383.047749
198.282243,5551.544565,8216.285956,-306.438199
198.282564,5847.626942,8216.285956,-766.095498
198.282885,6217.729913,8364.327145,-995.924147
198.283206,6291.750507,8290.306550,-766.095498
198.283527,6365.771101,8660.409521,-612.876398
198.283848,5625.565159,8660.409521,-536.266849
198.284169,5551.544565,8808.450710,-689.485948
198.284490,5181.441594,8586.388927,0.000000
198.284811,4885.359217,8660.409521,0.000000
198.285132,4441.235652,8438.347739,0.000000
198.285452,3849.070898,8068.244768,459.657299
198.285773,3478.967927,7772.162391,459.657299
198.286094,3478.967927,7105.977043,995.924147
198.286415,3404.947333,7179.997637,1225.752797
198.286736,3701.029710,7254.018232,842.705048
198.287057,4071.132681,7846.182985,229.828649
198.287378,4737.318029,7476.080014,229.828649
198.287699,5107.421000,7772.162391,-306.438199
198.288020,5847.626942,7772.162391,-306.438199
198.288341,6513.812290,7920.203579,-153.219100
198.288662,6365.771101,7994.224174,-919.314598
198.288983,6587.832884,7772.162391,-689.485948
198.289304,6513.812290,7698.141797,-919.314598
198.289625,6661.853478,7402.059420,-612.876398
198.289945,6513.812290,7624.121203,-612.876398
198.290266,6069.688724,7550.100608,0.000000
198.290587,5921.647536,7550.100608,0.000000
198.290908,5403.503377,7328.038826,-306.438199
198.291229,5181.441594,7105.977043,76.609550
198.291550,5181.441594,7254.018232,0.000000
198.291871,4441.235652,7772.162391,306.438199
198.292192,4367.215058,7772.162391,459.657299
198.292513,4367.215058,7772.162391,766.095498
198.292834,4293.194464,7846.182985,766.095498
198.293155,4441.235652,8142.265362,-383.047749
198.293476,4515.256246,8438.347739,0.000000
198.293797,4737.318029,8364.327145,-383.047749
198.294118,5107.421000,8364.327145,-766.095498
198.294438,5403.503377,8142.265362,-383.047749
198.294759,5403.503377,8068.244768,-153.219100
198.295080,5329.482782,8586.388927,-153.219100
198.295401,5477.523971,8586.388927,-536.266849
198.295722,5403.503377,8808.450710,-612.876398
198.296043,5255.462188,9104.533087,-612.876398
198.296364,4959.379811,9104.533087,-919.314598
198.296685,4811.338623,9030.512492,0.000000
198.297006,4293.194464,9252.574275,0.000000
198.297327,4367.215058,9252.574275,0.000000
198.297648,3923.091493,8882.471304,76.609550
198.297969,3775.050304,8660.409521,383.047749
198.298290,3552.988522,8142.265362,842.705048
198.298611,3404.947333,7624.121203,919.314598
198.298931,3923.091493,7624.121203,612.876398
198.299252,4367.215058,7624.121203,383.047749
198.299573,4737.318029,7031.956449,-536.266849
198.299894,4959.379811,7698.141797,0.000000
198.300215,5329.482782,7328.038826,-153.219100
198.300536,6217.729913,7402.059420,-689.485948
198.300857,6587.832884,7476.080014,-1149.143247
198.301178,6957.935855,7846.182985,-1685.410096
198.301499,6587.832884,8142.265362,-1302.362347
198.301820,6587.832884,8142.265362,-1608.800546
198.302141,6365.771101,7772.162391,-995.924147
198.302462,6143.709319,7402.059420,-995.924147
198.302783,5921.647536,8290.306550,-383.047749
198.303104,5329.482782,7772.162391,-383.047749
198.303424,5033.400406,7698.141797,-306.438199
198.303745,4589.276840,7550.100608,0.000000
198.304066,4145.153275,7846.182985,306.438199
198.304387,3923.091493,8216.285956,612.876398
198.304708,3775.050304,8216.285956,536.266849
198.305029,3775.050304,8290.306550,842.705048
198.305350,3552.988522,8142.265362,1225.752797
198.305671,4071.132681,8142.265362,842.705048
198.305992,4219.173869,8142.265362,306.438199
198.306313,4959.379811,7772.162391,0.000000
198.306634,5181.441594,7624.121203,0.000000
198.306955,5625.565159,7624.121203,0.000000
198.307276,5847.626942,7994.224174,-229.828649
198.307597,6143.709319,8068.244768,-689.485948
198.307917,6365.771101,8142.265362,-1072.533697
198.308238,6439.791695,8512.368333,-995.924147
198.308559,6291.750507,8512.368333,-995.924147
198.308880,5921.647536,8660.409521,-612.876398
198.309201,5403.503377,8512.368333,-306.438199
198.309522,5181.441594,9030.512492,0.000000
198.309843,4663.297435,8808.450710,0.000000
198.310164,4145.153275,8512.368333,0.000000
198.310485,3552.988522,8290.306550,306.438199
198.310806,3627.009116,7994.224174,689.485948
198.311127,3478.967927,7105.977043,1149.143247
198.311448,3478.967927,7105.977043,689.485948
198.311769,3627.009116,7254.018232,536.266849
198.312090,4219.173869,7624.121203,0.000000
198.312410,4589.276840,7550.100608,-306.438199
198.312731,5107.421000,7624.121203,-459.657299
198.313052,6217.729913,7772.162391,-536.266849
198.313373,6069.688724,7994.224174,-612.876398
198.313694,6217.729913,8438.347739,-1149.143247
198.314015,6143.709319,8216.285956,-1532.190996
198.314336,6217.729913,7994.224174,-1302.362347
198.314657,6069.688724,7846.182985,-1225.752797
198.314978,5995.668130,8216.285956,-689.485948
198.315299,5329.482782,8216.285956,-459.657299
198.315620,5551.544565,7698.141797,-383.047749
198.315941,4959.379811,7254.018232,153.219100
198.316262,4737.318029,7624.121203,229.828649
198.316582,4367.215058,7402.059420,76.609550
198.316903,4219.173869,7846.182985,0.000000
198.317224,4367.215058,7994.224174,76.609550
198.317545,4145.153275,8068.244768,689.485948
198.317866,4219.173869,7994.224174,459.657299
198.318187,4441.235652,8216.285956,0.000000
198.318508,4959.379811,8290.306550,-459.657299
198.318829,5477.523971,7994.224174,-612.876398
198.319150,5625.565159,8216.285956,-689.485948
198.319471,5699.585753,8290.306550,0.000000
198.319792,6069.688724,8586.388927,-689.485948
198.320113,5921.647536,8512.368333,-536.266849
198.320434,5847.626942,8808.450710,-689.485948
198.320755,5773.606348,8660.409521,-842.705048
198.321075,5329.482782,8734.430116,-306.438199
198.321396,5033.400406,8660.409521,-229.828649
198.321717,4737.318029,8882.471304,0.000000
198.322038,4441.235652,8956.491898,306.438199
198.322359,4367.215058,9252.574275,0.000000
198.322680,3849.070898,9030.512492,229.828649
198.323001,3478.967927,8586.388927,612.876398
198.323322,3404.947333,8734.430116,919.314598
198.323643,3552.988522,7402.059420,1302.362347
198.323964,3552.988522,7402.059420,842.705048
198.324285,4071.132681,7179.997637,689.485948
198.324606,4145.153275,7550.100608,-229.828649
198.324927,4885.359217,7476.080014,-306.438199
198.325248,5625.565159,7402.059420,-536.266849
198.325568,6439.791695,7402.059420,-766.095498
198.325889,6809.894666,7328.038826,-1149.143247
198.326210,6809.894666,7402.059420,-1455.581446
198.326531,6809.894666,7772.162391,-1608.800546
198.326852,6587.832884,7920.203579,-1378.971896
198.327173,6735.874072,7698.141797,-995.924147
198.327494,6513.812290,7624.121203,-1225.752797
198.327815,5773.606348,7994.224174,-612.876398
198.328136,5625.565159,7624.121203,-612.876398
198.328457,4663.297435,7772.162391,-689.485948
198.328778,4367.215058,7476.080014,-229.828649
198.329099,4293.194464,7698.141797,229.828649
198.329420,3256.906145,8142.265362,689.485948
198.329741,3478.967927,8660.409521,306.438199
198.330061,3478.967927,8216.285956,995.924147
198.330382,3775.050304,8068.244768,1149.143247
198.330703,3775.050304,8068.244768,536.266849
198.331024,4145.153275,8216.285956,306.438199
198.331345,4959.379811,7920.203579,229.828649
198.331666,5033.400406,7994.224174,306.438199
198.331987,6069.688724,8142.265362,-536.266849
198.332308,5773.606348,8142.265362,-306.438199
198.332629,6143.709319,8216.285956,-536.266849
198.332950,6217.729913,8660.409521,-919.314598
198.333271,6069.688724,8734.430116,-842.705048
198.333592,5847.626942,8586.388927,-842.705048
198.333913,5625.565159,8586.388927,-612.876398
198.334234,5181.441594,8734.430116,-153.219100
198.334554,4737.318029,8808.450710,0.000000
198.334875,4885.359217,8956.491898,0.000000
198.335196,4145.153275,8882.471304,-153.219100
198.335517,3627.009116,8364.327145,76.609550
198.335838,3404.947333,7920.203579,459.657299
198.336159,3478.967927,7402.059420,1072.533697
198.336480,3330.926739,7624.121203,612.876398
198.336801,3849.070898,7624.121203,536.266849
198.337122,3923.091493,7698.141797,-459.657299
198.337443,4293.194464,7846.182985,-76.609550
198.337764,5033.400406,7772.162391,-76.609550
198.338085,5847.626942,8142.265362,-766.095498
198.338406,6291.750507,8216.285956,-766.095498
198.338727,6291.750507,8290.306550,-1225.752797
198.339047,6513.812290,8438.347739,-1149.143247
198.339368,6439.791695,7846.182985,-995.924147
198.339689,6217.729913,7920.203579,-766.095498
198.340010,6143.709319,7624.121203,-459.657299
198.340331,5625.565159,7772.162391,-383.047749
198.340652,5477.523971,7105.977043,-229.828649
198.340973,4811.338623,7402.059420,-153.219100
198.341294,4811.338623,7328.038826,0.000000
198.341615,4441.235652,7772.162391,229.828649
198.341936,4293.194464,7920.203579,0.000000
198.342257,4145.153275,8068.244768,306.438199
198.342578,4441.235652,7476.080014,536.266849
198.342899,4367.215058,8068.244768,536.266849
198.343220,4515.256246,8142.265362,153.219100
198.343540,4589.276840,8364.327145,-229.828649
198.343861,5403.503377,7920.203579,-536.266849
198.344182,5625.565159,7846.182985,-229.828649
198.344503,5773.606348,8290.306550,-153.219100
198.344824,5847.626942,8216.285956,-306.438199
198.345145,5551.544565,8438.347739,-842.705048
198.345466,5847.626942,8290.306550,-1149.143247
198.345787,5773.606348,8438.347739,-612.876398
198.346108,5625.565159,8734.430116,-383.047749
198.346429,5403.503377,8882.471304,-229.828649
198.346750,4811.338623,9178.553681,-153.219100
198.347071,4589.276840,9030.512492,0.000000
198.347392,4145.153275,8882.471304,383.047749
198.347713,3923.091493,8734.430116,229.828649
198.348033,3404.947333,8364.327145,689.485948
198.348354,3034.844362,8068.244768,1072.533697
198.348675,3404.947333,7624.121203,995.924147
198.348996,3404.947333,7846.182985,842.705048
198.349317,3923.091493,7624.121203,536.266849
198.349638,4367.215058,7476.080014,306.438199
198.349959,4885.359217,7402.059420,0.000000
198.350280,5329.482782,7179.997637,-229.828649
198.350601,6217.729913,7698.141797,-612.876398
198.350922,6661.853478,7698.141797,-766.095498
198.351243,6957.935855,7846.182985,-689.485948
198.351564,6809.894666,7772.162391,-1302.362347
198.351885,6513.812290,7698.141797,-1608.800546
198.352206,6587.832884,7698.141797,-1302.362347
198.352526,6069.688724,7920.203579,-995.924147
198.352847,5847.626942,7772.162391,-919.314598
198.353168,5477.523971,7402.059420,-383.047749
198.353489,4959.379811,7698.141797,-612.876398
198.353810,4441.235652,7624.121203,0.000000
198.354131,3849.070898,7846.182985,919.314598
198.354452,3849.070898,8438.347739,306.438199
198.354773,3552.988522,8364.327145,459.657299
198.355094,3552.988522,8216.285956,842.705048
198.355415,3478.967927,7994.224174,536.266849
198.355736,3552.988522,8364.327145,229.828649
198.356057,3997.112087,8364.327145,0.000000
198.356378,4367.215058,8142.265362,0.000000
198.356699,5033.400406,8068.244768,0.000000
198.357019,5551.544565,8142.265362,76.609550
198.357340,5773.606348,8734.430116,-229.828649
198.357661,5773.606348,8290.306550,-536.266849
198.357982,6143.709319,8438.347739,-612.876398
198.358303,6143.709319,8586.388927,-919.314598
198.358624,5995.668130,8734.430116,-383.047749
198.358945,5921.647536,9030.512492,-689.485948
198.359266,5255.462188,8882.471304,-383.047749
198.359587,5181.441594,8882.471304,-306.438199
198.359908,4959.379811,8660.409521,-229.828649
198.360229,4515.256246,8586.388927,-153.219100
198.360550,4293.194464,8364.327145,0.000000
198.360871,3849.070898,7624.121203,306.438199
198.361192,3923.091493,7105.977043,842.705048
198.361513,4071.132681,7105.977043,689.485948
198.361833,4515.256246,7476.080014,306.438199
198.362154,4737.318029,7254.018232,0.000000
198.362475,4959.379811,7254.018232,0.000000
198.362796,5847.626942,7624.121203,-306.438199
198.363117,6143.709319,7772.162391,-459.657299
198.363438,6143.709319,8364.327145,-612.876398
198.363759,6069.688724,8068.244768,-1149.143247
198.364080,6217.729913,8068.244768,-1378.971896
198.364401,6365.771101,7772.162391,-842.705048
198.364722,6143.709319,7698.141797,-536.266849
198.365043,5625.565159,7772.162391,0.000000
198.365364,5181.441594,7698.141797,-459.657299
198.365685,5181.441594,7624.121203,-229.828649
198.366006,4515.256246,7476.080014,0.000000
198.366327,4515.256246,7550.100608,0.000000
198.366648,4219.173869,7772.162391,229.828649
198.366969,3923.091493,8068.244768,76.609550
198.367289,4071.132681,7994.224174,153.219100
198.367610,3775.050304,7846.182985,229.828649
198.367931,4219.173869,7772.162391,459.657299
198.368252,4219.173869,7846.182985,229.828649
198.368573,4441.235652,8068.244768,0.000000
198.368894,5033.400406,8142.265362,-766.095498
198.369215,5551.544565,7772.162391,-612.876398
198.369536,5773.606348,7994.224174,0.000000
198.369857,5847.626942,8290.306550,-153.219100
198.370178,5625.565159,8290.306550,-536.266849
198.370499,5699.585753,8586.388927,-1149.143247
198.370820,5625.565159,8660.409521,-689.485948
198.371141,5255.462188,8808.450710,-842.705048
198.371462,4959.379811,9178.553681,-689.485948
198.371783,4737.318029,9252.574275,-306.438199
198.372104,4663.297435,9326.594869,-153.219100
198.372424,4367.215058,9104.533087,229.828649
198.372745,4071.132681,8290.306550,383.047749
198.373066,3478.967927,7994.224174,766.095498
198.373387,3404.947333,7476.080014,1225.752797
198.373708,3627.009116,7179.997637,919.314598
198.374029,3849.070898,7105.977043,766.095498
198.374350,4367.215058,7476.080014,459.657299
198.374671,4515.256246,7846.182985,0.000000
198.374992,4885.359217,7624.121203,76.609550
198.375313,5699.585753,7550.100608,-536.266849
198.375634,6513.812290,7698.141797,-536.266849
198.375955,6735.874072,7846.182985,-1532.190996
198.376276,6735.874072,8142.265362,-1225.752797
198.376597,7031.956449,8216.285956,-1378.971896
198.376918,6809.894666,8068.244768,-1532.190996
198.377239,6439.791695,7920.203579,-1225.752797
198.377560,6217.729913,8068.244768,-1149.143247
198.377880,5551.544565,7624.121203,-766.095498
198.378201,5329.482782,7328.038826,-536.266849
198.378522,4811.338623,7328.038826,-229.828649
198.378843,4737.318029,7476.080014,0.000000
198.379164,4219.173869,7476.080014,383.047749
198.379485,3404.947333,8290.306550,536.266849
198.379806,3552.988522,7550.100608,995.924147
198.380127,3775.050304,7920.203579,919.314598
198.380448,4219.173869,7920.203579,689.485948
198.380769,4737.318029,7624.121203,612.876398
198.381090,4737.318029,7920.203579,0.000000
198.381411,5255.462188,8142.265362,0.000000
198.381732,5403.503377,8216.285956,-229.828649
198.382053,5773.606348,8068.244768,-76.609550
198.382374,6143.709319,7994.224174,0.000000
198.382695,6217.729913,8290.306550,-766.095498
198.383016,6069.688724,8216.285956,-306.438199
198.383336,5995.668130,8364.327145,-766.095498
198.383657,5625.565159,8438.347739,-919.314598
198.383978,5477.523971,8660.409521,-919.314598
198.384299,5033.400406,8660.409521,0.000000
198.384620,4737.318029,8882.471304,0.000000
198.384941,4589.276840,8660.409521,-306.438199
198.385262,3997.112087,8586.388927,0.000000
198.385583,3701.029710,8216.285956,0.000000
198.385904,3404.947333,7698.141797,919.314598
198.386225,3997.112087,7179.997637,842.705048
198.386546,3627.009116,7550.100608,536.266849
198.386867,3997.112087,7772.162391,76.609550
198.387188,4145.153275,7698.141797,-229.828649
198.387509,4737.318029,7550.100608,-229.828649
198.387830,5625.565159,7772.162391,0.000000
198.388151,6069.688724,7846.182985,-383.047749
198.388471,6439.791695,8216.285956,-842.705048
198.388792,6365.771101,8216.285956,-1302.362347
198.389113,6217.729913,7698.141797,-1225.752797
198.389434,6587.832884,7624.121203,-689.485948
198.389755,6513.812290,7254.018232,-536.266849
198.390076,6143.709319,7402.059420,-153.219100
198.390397,5921.647536,7179.997637,-689.485948
198.390718,5403.503377,7105.977043,-459.657299
198.391039,5033.400406,7179.997637,-383.047749
198.391360,4959.379811,7402.059420,0.000000
198.391681,4737.318029,7920.203579,153.219100
198.392002,4811.338623,7698.141797,0.000000
198.392323,4737.318029,8290.306550,0.000000
198.392644,4293.194464,7846.182985,383.047749
198.392965,4145.153275,7920.203579,229.828649
198.393286,4219.173869,8364.327145,0.000000
198.393607,4589.276840,8364.327145,-536.266849
198.393927,5033.400406,8364.327145,-536.266849
198.394248,5255.462188,8068.244768,0.000000
198.394569,5181.441594,8364.327145,76.609550
198.394890,5255.462188,8512.368333,0.000000
198.395211,4737.318029,8512.368333,-383.047749
198.395532,5181.441594,8364.327145,-306.438199
198.395853,4959.379811,8808.450710,-612.876398
198.396174,4959.379811,9030.512492,-306.438199
198.396495,4663.297435,9400.615463,-459.657299
198.396816,4145.153275,9474.636058,0.000000
198.397137,4441.235652,9400.615463,0.000000
198.397458,3923.091493,9474.636058,0.000000
198.397779,3404.947333,9030.512492,153.219100
198.398100,3182.885551,8364.327145,689.485948
198.398421,2960.823768,8142.265362,689.485948
198.398742,3478.967927,7772.162391,1532.190996
198.399062,4071.132681,7624.121203,766.095498
198.399383,4219.173869,7476.080014,0.000000
198.399704,4367.215058,7105.977043,-229.828649
198.400025,5033.400406,7179.997637,0.000000
198.400346,5921.647536,7328.038826,-76.609550
198.400667,6957.935855,7402.059420,-689.485948
198.400988,6883.915261,7328.038826,-1149.143247
198.401309,6957.935855,7994.224174,-1762.019645
198.401630,7105.977043,7698.141797,-1532.190996
198.401951,7105.977043,7920.203579,-1608.800546
198.402272,6957.935855,8068.244768,-2068.457845
198.402593,6143.709319,7772.162391,-995.924147
198.402914,5699.585753,7994.224174,-1225.752797
198.403235,5033.400406,7846.182985,-612.876398
198.403556,4737.318029,7624.121203,-306.438199
198.403877,4515.256246,7550.100608,306.438199
198.404198,3849.070898,7920.203579,536.266849
198.404518,3256.906145,8216.285956,689.485948
198.404839,3256.906145,8142.265362,842.705048
198.405160,3182.885551,8068.244768,1149.143247
198.405481,3404.947333,8290.306550,919.314598
198.405802,3552.988522,8438.347739,306.438199
198.406123,4145.153275,8364.327145,229.828649
198.406444,4811.338623,7920.203579,229.828649
198.406765,5181.441594,8142.265362,0.000000
198.407086,5477.523971,8438.347739,0.000000
198.407407,5625.565159,8216.285956,-383.047749
198.407728,6217.729913,8068.244768,-995.924147
198.408049,6587.832884,8438.347739,-1149.143247
198.408370,6513.812290,8586.388927,-1072.533697
198.408691,6217.729913,8438.347739,-1149.143247
198.409012,5921.647536,8882.471304,-995.924147
198.409333,5181.441594,9030.512492,-536.266849
198.409653,5107.421000,8882.471304,0.000000
198.409974,4737.318029,8734.430116,0.000000
198.410295,4219.173869,8882.471304,0.000000
198.410616,3627.009116,8438.347739,536.266849
198.410937,3404.947333,7920.203579,766.095498
198.411258,3256.906145,7476.080014,995.924147
198.411579,3330.926739,7624.121203,1149.143247
198.411900,3775.050304,7772.162391,919.314598
198.412221,3627.009116,7698.141797,306.438199
198.412542,4071.132681,7698.141797,0.000000
198.412863,4737.318029,8068.244768,0.000000
198.413184,5625.565159,8142.265362,-153.219100
198.413505,5773.606348,8216.285956,-612.876398
198.413826,5847.626942,8216.285956,-1149.143247
198.414147,6143.709319,7920.203579,-1302.362347
198.414468,5921.647536,7846.182985,-919.314598
198.414789,6143.709319,7772.162391,-383.047749
198.415109,5477.523971,7698.141797,-536.266849
198.415430,5551.544565,7624.121203,-612.876398
198.415751,5181.441594,7476.080014,-383.047749
198.416072,5033.400406,7328.038826,-306.438199
198.416393,4885.359217,7105.977043,-153.219100
198.416714,4441.235652,7328.038826,0.000000
198.417035,4367.215058,7698.141797,306.438199
198.417356,4145.153275,7846.182985,229.828649
198.417677,4145.153275,7624.121203,306.438199
198.417998,4219.173869,7476.080014,0.000000
198.418319,4663.297435,8216.285956,-76.609550
198.418640,4811.338623,7920.203579,-306.438199
198.418961,5329.482782,7920.203579,-459.657299
198.419282,5625.565159,7846.182985,-536.266849
198.419603,5995.668130,8364.327145,0.000000
198.419924,5921.647536,8290.306550,-153.219100
198.420244,6143.709319,8438.347739,-689.485948
198.420565,6069.688724,8512.368333,-612.876398
198.420886,6217.729913,8660.409521,-995.924147
198.421207,5921.647536,8734.430116,-1149.143247
198.421528,5773.606348,8586.388927,-383.047749
198.421849,4811.338623,9178.553681,-153.219100
198.422170,4885.359217,9326.594869,-76.609550
198.422491,4811.338623,8808.450710,76.609550
198.422812,4219.173869,8882.471304,153.219100
198.423133,3775.050304,8364.327145,612.876398
198.423454,3404.947333,7994.224174,1149.143247
198.423775,3701.029710,7624.121203,919.314598
198.424096,3701.029710,7994.224174,842.705048
198.424417,3775.050304,8068.244768,0.000000
198.424738,4515.256246,7846.182985,-766.095498
198.425059,4811.338623,7698.141797,-383.047749
198.425380,5255.462188,7994.224174,-306.438199
198.425700,5699.585753,7920.203579,-612.876398
198.426021,5773.606348,8142.265362,-1072.533697
198.426342,5847.626942,8512.368333,-1225.752797
198.426663,6069.688724,8364.327145,-1149.143247
198.426984,5921.647536,8142.265362,-995.924147
198.427305,6069.688724,7846.182985,-842.705048
198.427626,5847.626942,8290.306550,-306.438199
198.427947,5107.421000,7920.203579,-459.657299
198.428268,4737.318029,7402.059420,-229.828649
198.428589,4441.235652,7476.080014,0.000000
198.428910,4071.132681,7402.059420,536.266849
198.429231,4071.132681,7476.080014,536.266849
198.429552,3775.050304,7994.224174,459.657299
198.429873,3849.070898,7994.224174,766.095498
198.430194,3997.112087,7920.203579,459.657299
198.430515,3701.029710,7920.203579,612.876398
198.430835,3923.091493,8364.327145,0.000000
198.431156,4515.256246,7846.182985,0.000000
198.431477,4959.379811,7846.182985,-306.438199
198.431798,4959.379811,8290.306550,0.000000
198.432119,5181.441594,8364.327145,-153.219100
198.432440,5625.565159,8142.265362,-612.876398
198.432761,5477.523971,8290.306550,-995.924147
198.433082,5847.626942,8290.306550,-1072.533697
198.433403,6143.709319,8364.327145,-383.047749
198.433724,6069.688724,8438.347739,0.000000
198.434045,5847.626942,8586.388927,0.000000
198.434366,5403.503377,8808.450710,-153.219100
198.434687,4885.359217,8956.491898,0.000000
198.435008,4811.338623,8586.388927,0.000000
198.435329,4737.318029,8290.306550,0.000000
198.435650,4515.256246,7920.203579,766.095498
198.435971,4293.194464,7328.038826,842.705048
198.436291,4515.256246,6661.853478,842.705048
198.436612,4737.318029,6883.915261,689.485948
198.436933,4441.235652,7402.059420,459.657299
198.437254,4959.379811,7402.059420,-306.438199
198.437575,5773.606348,7402.059420,-383.047749
198.437896,6513.812290,7476.080014,-306.438199
198.438217,6661.853478,7772.162391,-306.438199
198.438538,6883.915261,7772.162391,-919.314598
198.438859,6587.832884,7994.224174,-1532.190996
198.439180,6513.812290,7772.162391,-1455.581446
198.439501,6735.874072,7624.121203,-383.047749
198.439822,6587.832884,7846.182985,-229.828649
198.440143,5921.647536,7772.162391,-995.924147
198.440464,5255.462188,7550.100608,-536.266849
198.440785,4737.318029,7550.100608,-612.876398
198.441106,4441.235652,7698.141797,76.609550
198.441427,4293.194464,7476.080014,0.000000
198.441747,3775.050304,7698.141797,306.438199
198.442068,3627.009116,8216.285956,536.266849
198.442389,3330.926739,8290.306550,689.485948
198.442710,3256.906145,8142.265362,536.266849
198.443031,3849.070898,8068.244768,229.828649
198.443352,3552.988522,8290.306550,0.000000
198.443673,4441.235652,8438.347739,-306.438199
198.443994,5033.400406,8364.327145,-612.876398
198.444315,5329.482782,8216.285956,-612.876398
198.444636,5255.462188,8512.368333,0.000000
198.444957,5329.482782,8734.430116,-306.438199
198.445278,5551.544565,8660.409521,-689.485948
198.445599,5329.482782,9104.533087,-766.095498
198.445920,5477.523971,8586.388927,-536.266849
198.446241,5107.421000,8734.430116,-689.485948
198.446562,5107.421000,8882.471304,-383.047749
198.446882,4811.338623,9326.594869,0.000000
198.447203,4589.276840,9474.636058,0.000000
198.447524,4441.235652,9400.615463,0.000000
198.447845,3775.050304,8808.450710,306.438199
198.448166,3701.029710,7994.224174,842.705048
198.448487,3775.050304,7698.141797,1149.143247
198.448808,3701.029710,7254.018232,1149.143247
198.449129,4367.215058,7402.059420,536.266849
198.449450,4515.256246,7179.997637,0.000000
198.449771,4811.338623,7254.018232,-383.047749
198.450092,5329.482782,7476.080014,-153.219100
198.450413,5995.668130,7550.100608,-306.438199
198.450734,6661.853478,7550.100608,-383.047749
198.451055,6735.874072,7698.141797,-842.705048
198.451376,6957.935855,7624.121203,-1225.752797
198.451697,6809.894666,7624.121203,-995.924147
198.452018,6957.935855,7476.080014,-842.705048
198.452338,6661.853478,7476.080014,-919.314598
198.452659,6439.791695,7328.038826,-689.485948
198.452980,5847.626942,7328.038826,-919.314598
198.453301,5181.441594,7328.038826,-536.266849
198.453622,5107.421000,7328.038826,153.219100
198.453943,4737.318029,7624.121203,0.000000
198.454264,3997.112087,7994.224174,383.047749
198.454585,3775.050304,7994.224174,536.266849
198.454906,3701.029710,7994.224174,459.657299
198.455227,3701.029710,7920.203579,919.314598
198.455548,3775.050304,7994.224174,459.657299
198.455869,4219.173869,7994.224174,0.000000
198.456190,4663.297435,7698.141797,-306.438199
198.456511,5033.400406,8216.285956,-153.219100
198.456832,5107.421000,7476.080014,76.609550
198.457153,5403.503377,7846.182985,0.000000
198.457473,5995.668130,8068.244768,-612.876398
198.457794,5773.606348,8660.409521,-995.924147
198.458115,5995.668130,8586.388927,-1072.533697
198.458436,5773.606348,8956.491898,-1225.752797
198.458757,5403.503377,9030.512492,-536.266849
198.459078,4959.379811,9474.636058,-229.828649
198.459399,4663.297435,9474.636058,-306.438199
198.459720,4663.297435,9326.594869,-459.657299
198.460041,4071.132681,9548.656652,76.609550
198.460362,3256.906145,9178.553681,536.266849
198.460683,3256.906145,8586.388927,612.876398
198.461004,3034.844362,8142.265362,1149.143247
198.461325,3108.864956,7772.162391,1302.362347
198.461646,3552.988522,7772.162391,842.705048
198.461967,3849.070898,7550.100608,306.438199
198.462288,4219.173869,7476.080014,306.438199
198.462609,4737.318029,7550.100608,0.000000
198.462930,5847.626942,7624.121203,153.219100
198.463251,6513.812290,8216.285956,0.000000
198.463572,6513.812290,8142.265362,-1149.143247
198.463893,6661.853478,8290.306550,-1608.800546
198.464214,6883.915261,7994.224174,-1378.971896
198.464535,6735.874072,7772.162391,-1149.143247
198.464855,6587.832884,7920.203579,-995.924147
198.465176,6365.771101,7624.121203,-842.705048
198.465497,5699.585753,7105.977043,-612.876398
198.465818,5033.400406,7179.997637,-612.876398
198.466139,4737.318029,7402.059420,-153.219100
198.466460,4367.215058,7846.182985,0.000000
198.466781,4441.235652,7624.121203,0.000000
198.467102,4293.194464,7698.141797,383.047749
198.467423,3775.050304,7550.100608,689.485948
198.467744,4219.173869,7328.038826,612.876398
198.468065,4145.153275,7550.100608,536.266849
198.468386,4145.153275,8068.244768,0.000000
198.468707,4737.318029,8068.244768,-536.266849
198.469028,5551.544565,7772.162391,-459.657299
198.469349,5625.565159,7550.100608,-153.219100
198.469670,5921.647536,8068.244768,-306.438199
198.469991,5921.647536,7920.203579,-612.876398
198.470312,6365.771101,7920.203579,-995.924147
198.470633,6291.750507,8142.265362,-842.705048
198.470954,6291.750507,8142.265362,-612.876398
198.471275,5773.606348,8586.388927,-689.485948
198.471596,5551.544565,9104.533087,-383.047749
198.471917,5181.441594,9178.553681,0.000000
198.472237,5107.421000,9178.553681,76.609550
198.472558,4811.338623,8882.471304,0.000000
198.472879,3849.070898,8586.388927,306.438199
198.473200,3701.029710,7698.141797,766.095498
198.473521,3627.009116,7624.121203,1225.752797
198.473842,3627.009116,7624.121203,919.314598
198.474163,4145.153275,7698.141797,1149.143247
198.474484,4589.276840,7550.100608,76.609550
198.474805,4515.256246,7846.182985,-306.438199
198.475126,4663.297435,7920.203579,-306.438199
198.475447,5477.523971,8142.265362,0.000000
198.475768,5699.585753,8364.327145,-612.876398
198.476089,5921.647536,8586.388927,-766.095498
198.476410,6069.688724,8660.409521,-1838.629195
198.476731,5847.626942,8438.347739,-1225.752797
198.477052,5847.626942,8068.244768,-842.705048
198.477373,5699.585753,8364.327145,-306.438199
198.477694,5329.482782,7994.224174,-306.438199
198.478015,4885.359217,7698.141797,-383.047749
198.478336,4441.235652,7698.141797,-383.047749
198.478657,4071.132681,7920.203579,0.000000
198.478978,3775.050304,7994.224174,153.219100
198.479299,3627.009116,7994.224174,842.705048
198.479619,3404.947333,8290.306550,689.485948
198.479940,3404.947333,8290.306550,766.095498
198.480261,3478.967927,8142.265362,306.438199
198.480582,3478.967927,8586.388927,229.828649
198.480903,3627.009116,8290.306550,0.000000
198.481224,4367.215058,8438.347739,-306.438199
198.481545,4811.338623,8068.244768,0.000000
198.481866,5255.462188,7920.203579,0.000000
198.482187,5699.585753,7846.182985,0.000000
198.482508,5403.503377,7920.203579,-689.485948
198.482829,6143.709319,8142.265362,-842.705048
198.483150,6217.729913,8068.244768,-919.314598
198.483471,6365.771101,7846.182985,-766.095498
198.483792,6217.729913,8660.409521,-306.438199
198.484113,5551.544565,8734.430116,-612.876398
198.484434,4959.379811,8956.491898,-689.485948
198.484755,5033.400406,8808.450710,-612.876398
198.485076,4737.318029,8586.388927,-536.266849
198.485397,4737.318029,7994.224174,536.266849
198.485718,4293.194464,7772.162391,766.095498
198.486039,4145.153275,7550.100608,689.485948
198.486360,3775.050304,7254.018232,766.095498
198.486681,4219.173869,7105.977043,612.876398
198.487001,4219.173869,7402.059420,536.266849
198.487322,4589.276840,7254.018232,0.000000
198.487643,5255.462188,7550.100608,0.000000
198.487964,5847.626942,7476.080014,-153.219100
198.488285,6291.750507,7920.203579,-229.828649
198.488606,6735.874072,8512.368333,-689.485948
198.488927,6439.791695,7920.203579,-1225.752797
198.489248,6957.935855,7698.141797,-1302.362347
198.489569,6513.812290,7698.141797,-689.485948
198.489890,6513.812290,7624.121203,-383.047749
198.490211,6143.709319,7772.162391,-612.876398
198.490532,5625.565159,7698.141797,-766.095498
198.490853,4959.379811,7846.182985,-689.485948
198.491174,4811.338623,7402.059420,-306.438199
198.491495,4737.318029,7328.038826,0.000000
198.491816,4293.194464,7846.182985,0.000000
198.492137,3849.070898,8142.265362,306.438199
198.492458,3478.967927,7994.224174,536.266849
198.492779,3701.029710,8068.244768,612.876398
198.493100,4145.153275,8142.265362,76.609550
198.493421,3997.112087,8290.306550,76.609550
198.493742,4441.235652,8364.327145,-306.438199
198.494063,5033.400406,8142.265362,0.000000
198.494383,5255.462188,8068.244768,0.000000
198.494704,5329.482782,8512.368333,0.000000
198.495025,5625.565159,8586.388927,-383.047749
198.495346,5625.565159,8512.368333,-766.095498
198.495667,5773.606348,8512.368333,-766.095498
198.495988,5773.606348,8586.388927,-689.485948
198.496309,5477.523971,8956.491898,-689.485948
198.496630,5181.441594,9178.553681,-153.219100
198.496951,4737.318029,9400.615463,-459.657299
198.497272,4589.276840,9474.636058,-306.438199
198.497593,3923.091493,9104.533087,-306.438199
198.497914,3404.947333,9104.533087,459.657299
198.498235,3256.906145,7920.203579,536.266849
198.498556,3701.029710,7550.100608,995.924147
198.498877,3552.988522,7476.080014,842.705048
198.499198,3627.009116,7254.018232,612.876398
198.499519,4145.153275,7476.080014,0.000000
198.499840,4737.318029,7476.080014,0.000000
198.500161,5329.482782,7624.121203,0.000000
198.500482,5773.606348,7476.080014,-306.438199
198.500803,6365.771101,8142.265362,-919.314598
198.501124,6513.812290,8216.285956,-536.266849
198.501445,6809.894666,8364.327145,-1378.971896
198.501765,6587.832884,8068.244768,-1225.752797
198.502086,6513.812290,7920.203579,-766.095498
198.502407,5995.668130,7920.203579,-536.266849
198.502728,6143.709319,7476.080014,-459.657299
198.503049,5477.523971,7550.100608,-612.876398
198.503370,4885.359217,7402.059420,-229.828649
198.503691,4811.338623,7105.977043,536.266849
198.504012,4737.318029,7328.038826,766.095498
198.504333,4367.215058,7550.100608,689.485948
198.504654,4145.153275,7846.182985,536.266849
198.504975,3552.988522,7920.203579,459.657299
198.505296,3923.091493,8142.265362,153.219100
198.505617,4071.132681,7994.224174,153.219100
198.505938,4145.153275,8216.285956,0.000000
198.506259,4885.359217,8290.306550,0.000000
198.506580,4959.379811,8290.306550,-536.266849
198.506901,5107.421000,8068.244768,-306.438199
198.507222,5699.585753,8290.306550,-459.657299
198.507543,5403.503377,8142.265362,-306.438199
198.507864,5625.565159,8142.265362,-383.047749
198.508185,5625.565159,8734.430116,-766.095498
198.508506,5625.565159,8586.388927,-612.876398
198.508827,5181.441594,8734.430116,-612.876398
198.509147,5107.421000,8956.491898,0.000000
198.509468,4441.235652,9326.594869,-229.828649
198.509789,4441.235652,9326.594869,-229.828649
198.510110,4293.194464,9030.512492,0.000000
198.510431,3775.050304,8808.450710,153.219100
198.510752,3330.926739,8586.388927,689.485948
198.511073,3330.926739,7624.121203,1149.143247
198.511394,3775.050304,7698.141797,1608.800546
198.511715,4219.173869,7476.080014,459.657299
198.512036,4219.173869,7402.059420,0.000000
198.512357,4663.297435,7402.059420,0.000000
198.512678,5329.482782,7550.100608,0.000000
198.512999,6143.709319,7550.100608,-153.219100
198.513320,6513.812290,7920.203579,-306.438199
198.513641,6735.874072,7920.203579,-1149.143247
198.513962,6735.874072,8068.244768,-1149.143247
198.514283,6513.812290,7846.182985,-1378.971896
198.514604,6883.915261,7550.100608,-1302.362347
198.514925,6587.832884,7698.141797,-995.924147
198.515246,5699.585753,7624.121203,-1302.362347
198.515567,5551.544565,7476.080014,-919.314598
198.515888,4811.338623,7550.100608,-383.047749
198.516209,4367.215058,7476.080014,0.000000
198.516529,4293.194464,7920.203579,76.609550
198.516850,3849.070898,8216.285956,153.219100
198.517171,3775.050304,8438.347739,0.000000
198.517492,3478.967927,8068.244768,536.266849
198.517813,3627.009116,8290.306550,919.314598
198.518134,3552.988522,8364.327145,383.047749
198.518455,3997.112087,7994.224174,76.609550
198.518776,4441.235652,8290.306550,-153.219100
198.519097,4885.359217,8142.265362,0.000000
198.519418,5181.441594,8290.306550,0.000000
198.519739,5403.503377,8142.265362,-229.828649
198.520060,5847.626942,7920.203579,-306.438199
198.520381,5921.647536,8364.327145,-612.876398
198.520702,5625.565159,8216.285956,-306.438199
198.521023,6069.688724,8364.327145,-995.924147
198.521344,5625.565159,8290.306550,-459.657299
198.521665,5551.544565,9104.533087,-306.438199
198.521986,5181.441594,9030.512492,-383.047749
198.522307,5477.523971,9178.553681,-306.438199
198.522628,4663.297435,8660.409521,-229.828649
198.522949,4145.153275,8290.306550,306.438199
198.523270,3775.050304,7624.121203,842.705048
198.523591,3627.009116,7254.018232,689.485948
198.523911,3701.029710,7402.059420,1072.533697
198.524232,3997.112087,7402.059420,76.609550
198.524553,4515.256246,7105.977043,0.000000
198.524874,4663.297435,7328.038826,0.000000
198.525195,5329.482782,7328.038826,-306.438199
198.525516,6217.729913,7476.080014,0.000000
198.525837,6439.791695,7698.141797,-536.266849
198.526158,6587.832884,8290.306550,-995.924147
198.526479,6661.853478,8216.285956,-842.705048
198.526800,6439.791695,8512.368333,-1685.410096
198.527121,6513.812290,8068.244768,-766.095498
198.527442,6217.729913,7920.203579,-383.047749
198.527763,5995.668130,7772.162391,-612.876398
198.528084,5255.462188,7476.080014,-842.705048
198.528405,4811.338623,7550.100608,-383.047749
198.528726,4663.297435,7846.182985,0.000000
198.529047,4219.173869,7846.182985,459.657299
198.529368,4071.132681,8068.244768,612.876398
198.529689,4219.173869,7846.182985,536.266849
198.530010,4219.173869,7698.141797,153.219100
198.530331,3923.091493,7772.162391,383.047749
198.530652,3997.112087,7994.224174,0.000000
198.530973,4219.173869,7920.203579,-306.438199
198.531293,4737.318029,8142.265362,-383.047749
198.531614,5033.400406,8512.368333,-383.047749
198.531935,5329.482782,8586.388927,-383.047749
198.532256,5255.462188,8512.368333,-383.047749
198.532577,5329.482782,8512.368333,-995.924147
198.532898,5477.523971,8882.471304,-1149.143247
198.533219,5477.523971,8882.471304,-995.924147
198.533540,5255.462188,8660.409521,-842.705048
198.533861,4885.359217,9178.553681,-229.828649
198.534182,4145.153275,9548.656652,-306.438199
198.534503,3997.112087,9474.636058,-229.828649
198.534824,3775.050304,9474.636058,0.000000
198.535145,3627.009116,8956.491898,153.219100
198.535466,3256.906145,8882.471304,919.314598
198.535787,3182.885551,7994.224174,1225.752797
198.536108,2886.803174,7402.059420,1302.362347
198.536429,3404.947333,7328.038826,919.314598
198.536750,4219.173869,7476.080014,459.657299
198.537071,4589.276840,7772.162391,0.000000
198.537392,5107.421000,7179.997637,0.000000
198.537713,6143.709319,7254.018232,0.000000
198.538034,7105.977043,7254.018232,-689.485948
198.538355,7328.038826,7105.977043,-842.705048
198.538675,7624.121203,7328.038826,-1378.971896
198.538996,7920.203579,7105.977043,-1685.410096
198.539317,7994.224174,6883.915261,-1378.971896
198.539638,7772.162391,6957.935855,-1378.971896
198.539959,7328.038826,7179.997637,-995.924147
198.540280,7105.977043,6513.812290,-919.314598
198.540601,6661.853478,6957.935855,-919.314598
198.540922,5847.626942,6661.853478,-689.485948
198.541243,5995.668130,7031.956449,-459.657299
198.541564,5107.421000,7402.059420,0.000000
198.541885,4663.297435,7846.182985,0.000000
198.542206,4219.173869,7846.182985,306.438199
198.542527,3849.070898,8290.306550,229.828649
198.542848,3923.091493,8142.265362,612.876398
198.543169,3552.988522,8438.347739,536.266849
198.543490,3478.967927,8438.347739,0.000000
198.543811,4145.153275,8734.430116,-229.828649
198.544132,4663.297435,8882.471304,-76.609550
198.544453,4737.318029,8586.388927,0.000000
198.544774,4589.276840,8808.450710,0.000000
198.545095,4885.359217,8808.450710,0.000000
198.545416,4811.338623,9104.533087,-536.266849
198.545737,4811.338623,8734.430116,-383.047749
198.546057,5107.421000,9252.574275,-612.876398
198.546378,4589.276840,8808.450710,-459.657299
198.546699,4737.318029,9252.574275,-76.609550
198.547020,4663.297435,9474.636058,-459.657299
198.547341,4441.235652,9622.677246,-536.266849
198.547662,4367.215058,9178.553681,-306.438199
198.547983,3552.988522,8808.450710,0.000000
198.548304,3478.967927,8216.285956,459.657299
198.548625,3330.926739,7920.203579,536.266849
198.548946,3701.029710,7994.224174,383.047749
198.549267,3701.029710,7698.141797,306.438199
198.549588,4293.194464,8142.265362,-536.266849
198.549909,4515.256246,7994.224174,-306.438199
198.550230,4737.318029,8142.265362,-459.657299
198.550551,5477.523971,8216.285956,-459.657299
198.550872,5551.544565,8290.306550,-459.657299
198.551193,5699.585753,8290.306550,-689.485948
198.551514,5551.544565,8364.327145,-766.095498
198.551835,5921.647536,8734.430116,-995.924147
198.552156,5551.544565,8290.306550,-612.876398
198.552477,5551.544565,7772.162391,-76.609550
198.552798,5477.523971,7920.203579,-612.876398
198.553119,5033.400406,7550.100608,0.000000
198.553439,4737.318029,7550.100608,0.000000
198.553760,4663.297435,7624.121203,306.438199
198.554081,4589.276840,7476.080014,459.657299
198.554402,4293.194464,7402.059420,689.485948
198.554723,4441.235652,7846.182985,383.047749
198.555044,4441.235652,7698.141797,612.876398
198.555365,4145.153275,7698.141797,383.047749
198.555686,4737.318029,7476.080014,153.219100
198.556007,5033.400406,7846.182985,-153.219100
198.556328,5255.462188,7846.182985,-153.219100
198.556649,5921.647536,7105.977043,0.000000
198.556970,6513.812290,7031.956449,153.219100
198.557291,6661.853478,7402.059420,-459.657299
198.557612,6587.832884,7624.121203,-919.314598
198.557933,7179.997637,7994.224174,-766.095498
198.558254,6957.935855,7624.121203,-1378.971896
198.558575,6661.853478,7920.203579,-1149.143247
198.558896,6735.874072,8364.327145,-842.705048
198.559217,5699.585753,8882.471304,-766.095498
198.559538,5477.523971,8882.471304,-612.876398
198.559859,5255.462188,8882.471304,-383.047749
198.560180,4367.215058,8956.491898,0.000000
198.560501,3923.091493,8438.347739,459.657299
198.560821,3256.906145,8142.265362,1072.533697
198.561142,3775.050304,7328.038826,766.095498
198.561463,3478.967927,7328.038826,1225.752797
198.561784,3627.009116,7476.080014,995.924147
198.562105,3849.070898,7550.100608,459.657299
198.562426,4515.256246,8068.244768,229.828649
198.562747,5033.400406,8142.265362,0.000000
198.563068,5773.606348,8216.285956,0.000000
198.563388,6439.791695,8290.306550,-306.438199
198.563709,6587.832884,8290.306550,-1225.752797
198.564030,6291.750507,8364.327145,-1149.143247
198.564351,6365.771101,8660.409521,-1225.752797
198.564672,6143.709319,8438.347739,-1532.190996
198.564993,6069.688724,8364.327145,-1149.143247
198.565314,5551.544565,8586.388927,-1072.533697
198.565634,5033.400406,8364.327145,-995.924147
198.565955,4663.297435,8364.327145,-459.657299
198.566276,3997.112087,8290.306550,-76.609550
198.566597,3552.988522,8290.306550,306.438199
198.566918,3034.844362,8438.347739,306.438199
198.567239,2664.741391,8734.430116,383.047749
198.567560,2812.782580,8512.368333,689.485948
198.567881,2960.823768,8512.368333,919.314598
198.568201,2886.803174,8734.430116,383.047749
198.568522,3108.864956,8660.409521,153.219100
198.568843,3775.050304,8586.388927,-459.657299
198.569164,4145.153275,8290.306550,0.000000
198.569485,4663.297435,8438.347739,0.000000
198.569806,4885.359217,8068.244768,153.219100
198.570127,5403.503377,8364.327145,-229.828649
198.570448,5773.606348,8364.327145,-536.266849
198.570768,6069.688724,8290.306550,-1378.971896
198.571089,6143.709319,8290.306550,-689.485948
198.571410,6217.729913,8290.306550,-536.266849
198.571731,5773.606348,8290.306550,-459.657299
198.572052,5625.565159,8216.285956,-536.266849
198.572373,5329.482782,8216.285956,-459.657299
198.572694,5107.421000,7920.203579,0.000000
198.573014,4737.318029,7772.162391,0.000000
198.573335,4441.235652,7179.997637,612.876398
198.573656,4663.297435,6735.874072,995.924147
198.573977,4737.318029,7031.956449,919.314598
198.574298,4885.359217,6735.874072,229.828649
198.574619,4885.359217,6883.915261,-306.438199
198.574940,5403.503377,7179.997637,-229.828649
198.575261,5921.647536,7624.121203,-153.219100
198.575581,6735.874072,7550.100608,0.000000
198.575902,6883.915261,7772.162391,-995.924147
198.576223,6661.853478,7846.182985,-842.705048
198.576544,6439.791695,7994.224174,-995.924147
198.576865,6587.832884,8068.244768,-1072.533697
198.577186,6587.832884,7994.224174,-842.705048
198.577507,6439.791695,7550.100608,-766.095498
198.577828,5847.626942,7550.100608,-689.485948
198.578148,5329.482782,7624.121203,-229.828649
198.578469,4885.359217,7476.080014,76.609550
198.578790,4885.359217,7698.141797,612.876398
198.579111,4367.215058,7624.121203,459.657299
198.579432,4219.173869,7772.162391,612.876398
198.579753,3849.070898,7994.224174,459.657299
198.580074,3923.091493,7994.224174,459.657299
198.580395,4293.194464,7994.224174,536.266849
198.580715,4367.215058,8216.285956,76.609550
198.581036,4589.276840,8660.409521,-383.047749
198.581357,4885.359217,8586.388927,-919.314598
198.581678,5107.421000,8808.450710,-919.314598
198.581999,4737.318029,8956.491898,0.000000
198.582320,5181.441594,8660.409521,-612.876398
198.582641,5181.441594,8956.491898,-383.047749
198.582961,5255.462188,9326.594869,-1072.533697
198.583282,5033.400406,9104.533087,-995.924147
198.583603,4737.318029,9104.533087,-689.485948
198.583924,4293.194464,9622.677246,-536.266849
198.584245,4071.132681,9252.574275,0.000000
198.584566,3701.029710,9696.697840,-76.609550
198.584887,3701.029710,9548.656652,0.000000
198.585208,3330.926739,9474.636058,-383.047749
198.585528,2960.823768,8734.430116,842.705048
198.585849,2738.761985,8364.327145,1149.143247
198.586170,2664.741391,7772.162391,1149.143247
198.586491,3108.864956,7476.080014,1149.143247
198.586812,3552.988522,7698.141797,919.314598
198.587133,4219.173869,7476.080014,76.609550
198.587454,4737.318029,7402.059420,0.000000
198.587775,5551.544565,7476.080014,-229.828649
198.588095,6217.729913,7550.100608,-459.657299
198.588416,7105.977043,7846.182985,-459.657299
198.588737,7254.018232,7846.182985,-1455.581446
198.589058,7328.038826,7550.100608,-1149.143247
198.589379,7105.977043,7254.018232,-995.924147
198.589700,7402.059420,7328.038826,-1455.581446
198.590021,7105.977043,7105.977043,-1149.143247
198.590342,6735.874072,6661.853478,-919.314598
198.590662,6069.688724,6883.915261,-383.047749
198.590983,5699.585753,6957.935855,-459.657299
198.591304,5403.503377,7179.997637,-383.047749
198.591625,5403.503377,7624.121203,0.000000
198.591946,4737.318029,7550.100608,383.047749
198.592267,4441.235652,7476.080014,306.438199
198.592588,4367.215058,7254.018232,536.266849
198.592908,3997.112087,7402.059420,1225.752797
198.593229,4145.153275,7772.162391,459.657299
198.593550,4515.256246,7846.182985,-153.219100
198.593871,5033.400406,7846.182985,-229.828649
198.594192,5329.482782,8068.244768,-459.657299
198.594513,5403.503377,7920.203579,153.219100
198.594834,5403.503377,7994.224174,153.219100
198.595155,5699.585753,8512.368333,-459.657299
198.595475,5255.462188,8660.409521,-842.705048
198.595796,5329.482782,8586.388927,-995.924147
198.596117,5551.544565,8882.471304,-842.705048
198.596438,5255.462188,9030.512492,-383.047749
198.596759,4959.379811,9030.512492,-229.828649
198.597080,4737.318029,9030.512492,-459.657299
198.597401,4441.235652,9178.553681,-153.219100
198.597722,4145.153275,8808.450710,-153.219100
198.598042,3478.967927,8364.327145,459.657299
198.598363,3478.967927,7994.224174,459.657299
198.598684,3478.967927,7550.100608,383.047749
198.599005,3701.029710,7624.121203,536.266849
198.599326,3923.091493,7624.121203,153.219100
198.599647,4219.173869,7698.141797,0.000000
198.599968,4663.297435,7846.182985,-536.266849
198.600289,5181.441594,8142.265362,-459.657299
198.600609,5847.626942,8216.285956,-766.095498
198.600930,6291.750507,8216.285956,-1149.143247
198.601251,6217.729913,8364.327145,-1302.362347
198.601572,5847.626942,8660.409521,-1225.752797
198.601893,5995.668130,8364.327145,-1072.533697
198.602214,6069.688724,8438.347739,-919.314598
198.602535,5773.606348,8290.306550,-612.876398
198.602855,5181.441594,7994.224174,-766.095498
198.603176,4811.338623,7698.141797,-306.438199
198.603497,4367.215058,7846.182985,0.000000
198.603818,4441.235652,7698.141797,612.876398
198.604139,4145.153275,8290.306550,229.828649
198.604460,3330.926739,8142.265362,459.657299
198.604781,3701.029710,8142.265362,536.266849
198.605102,3775.050304,7846.182985,842.705048
198.605422,4071.132681,8512.368333,459.657299
198.605743,4071.132681,7994.224174,229.828649
198.606064,4663.297435,8068.244768,-229.828649
198.606385,5107.421000,8216.285956,-306.438199
198.606706,5477.523971,7476.080014,153.219100
198.607027,6143.709319,7772.162391,0.000000
198.607348,6143.709319,7920.203579,-383.047749
198.607669,6439.791695,7476.080014,-383.047749
198.607989,6661.853478,7698.141797,-919.314598
198.608310,6513.812290,7772.162391,-1072.533697
198.608631,6365.771101,8068.244768,-612.876398
198.608952,5921.647536,8438.347739,0.000000
198.609273,5255.462188,8290.306550,-229.828649
198.609594,5255.462188,8438.347739,-306.438199
198.609915,4737.318029,8734.430116,76.609550
198.610235,4515.256246,8290.306550,306.438199
198.610556,3701.029710,7994.224174,612.876398
198.610877,3775.050304,7476.080014,689.485948
198.611198,3701.029710,7105.977043,689.485948
198.611519,4071.132681,7105.977043,919.314598
198.611840,4219.173869,7031.956449,689.485948
198.612161,4515.256246,7254.018232,153.219100
198.612482,5033.400406,7624.121203,0.000000
198.612802,5699.585753,7994.224174,-383.047749
198.613123,6365.771101,7846.182985,-76.609550
198.613444,6661.853478,7698.141797,-766.095498
198.613765,6513.812290,7994.224174,-1072.533697
198.614086,6513.812290,7846.182985,-1378.971896
198.614407,6439.791695,7624.121203,-1608.800546
198.614728,6291.750507,8216.285956,-1302.362347
198.615049,6365.771101,7994.224174,-995.924147
198.615369,5847.626942,8142.265362,-766.095498
198.615690,5181.441594,7920.203579,-689.485948
198.616011,4737.318029,8586.388927,-306.438199
198.616332,4293.194464,7994.224174,306.438199
198.616653,4145.153275,8068.244768,0.000000
198.616974,3404.947333,8142.265362,306.438199
198.617295,3404.947333,8364.327145,766.095498
198.617616,3478.967927,8290.306550,766.095498
198.617936,3330.926739,8512.368333,766.095498
198.618257,3404.947333,8808.450710,76.609550
198.618578,3923.091493,8734.430116,76.609550
198.618899,4737.318029,8660.409521,0.000000
198.619220,5033.400406,8512.368333,-306.438199
198.619541,5181.441594,7994.224174,0.000000
198.619862,5625.565159,8438.347739,-229.828649
198.620182,5847.626942,8734.430116,-536.266849
198.620503,5699.585753,8586.388927,-536.266849
198.620824,5625.565159,8364.327145,-919.314598
198.621145,5921.647536,8660.409521,-766.095498
198.621466,5551.544565,8882.471304,-612.876398
198.621787,5033.400406,8956.491898,-383.047749
198.622108,4959.379811,8808.450710,-383.047749
198.622429,4737.318029,8956.491898,0.000000
198.622749,4367.215058,8364.327145,0.000000
198.623070,3627.009116,7772.162391,306.438199
198.623391,3627.009116,7328.038826,459.657299
198.623712,3997.112087,7105.977043,536.266849
198.624033,3923.091493,7105.977043,766.095498
198.624354,4663.297435,6883.915261,383.047749
198.624675,4885.359217,7031.956449,-153.219100
198.624996,5255.462188,7254.018232,-383.047749
198.625316,5995.668130,7402.059420,-459.657299
198.625637,6513.812290,7698.141797,-229.828649
198.625958,6957.935855,7772.162391,-612.876398
198.626279,6735.874072,7772.162391,-995.924147
198.626600,6809.894666,7476.080014,-1149.143247
198.626921,7105.977043,7402.059420,-1149.143247
198.627242,6883.915261,7698.141797,-766.095498
198.627563,6513.812290,7476.080014,-459.657299
198.627883,6291.750507,7402.059420,-306.438199
198.628204,5625.565159,7179.997637,0.000000
198.628525,5255.462188,7254.018232,0.000000
198.628846,4811.338623,7624.121203,306.438199
198.629167,4219.173869,7476.080014,383.047749
198.629488,4145.153275,7624.121203,459.657299
198.629809,3997.112087,7698.141797,229.828649
198.630129,3997.112087,7994.224174,1072.533697
198.630450,3775.050304,7994.224174,536.266849
198.630771,3775.050304,8290.306550,0.000000
198.631092,4071.132681,8438.347739,-459.657299
198.631413,4589.276840,8734.430116,-766.095498
198.631734,4811.338623,8364.327145,0.000000
198.632055,5033.400406,8290.306550,0.000000
198.632376,4959.379811,8660.409521,-306.438199
198.632696,5181.441594,8734.430116,-766.095498
198.633017,5181.441594,8660.409521,-1072.533697
198.633338,5403.503377,9030.512492,-919.314598
198.633659,4811.338623,8882.471304,-306.438199
198.633980,4811.338623,9030.512492,-383.047749
198.634301,4219.173869,9400.615463,-459.657299
198.634622,4145.153275,9178.553681,0.000000
198.634943,3849.070898,9326.594869,153.219100
198.635263,3478.967927,8882.471304,383.047749
198.635584,3478.967927,8438.347739,612.876398
198.635905,3108.864956,8068.244768,1225.752797
198.636226,3478.967927,7698.141797,1072.533697
198.636547,3775.050304,7254.018232,536.266849
198.636868,4219.173869,7550.100608,153.219100
198.637189,4737.318029,7402.059420,0.000000
198.637509,5255.462188,7624.121203,-459.657299
198.637830,5921.647536,7698.141797,-306.438199
198.638151,6735.874072,7772.162391,-689.485948
198.638472,6735.874072,7846.182985,-842.705048
198.638793,6513.812290,7772.162391,-995.924147
198.639114,6735.874072,7772.162391,-842.705048
198.639435,7031.956449,7772.162391,-1302.362347
198.639756,6809.894666,7550.100608,-612.876398
198.640076,6513.812290,7624.121203,-919.314598
198.640397,5847.626942,7550.100608,-612.876398
198.640718,5033.400406,7772.162391,-995.924147
198.641039,4885.359217,7698.141797,-459.657299
198.641360,4515.256246,7920.203579,383.047749
198.641681,4293.194464,8068.244768,383.047749
198.642002,3775.050304,8364.327145,383.047749
198.642323,3627.009116,7846.182985,536.266849
198.642643,3701.029710,7994.224174,1072.533697
198.642964,4071.132681,7994.224174,612.876398
198.643285,3923.091493,8068.244768,153.219100
198.643606,4293.194464,8290.306550,0.000000
198.643927,5181.441594,8364.327145,-306.438199
198.644248,5403.503377,7920.203579,0.000000
198.644569,5847.626942,7994.224174,76.609550
198.644890,5995.668130,7994.224174,-229.828649
198.645210,6291.750507,7994.224174,-459.657299
198.645531,6217.729913,8142.265362,-383.047749
198.645852,5995.668130,8290.306550,-842.705048
198.646173,6365.771101,8512.368333,-689.485948
198.646494,5995.668130,8734.430116,-306.438199
198.646815,5329.482782,8808.450710,-766.095498
198.647136,4959.379811,8734.430116,-536.266849
198.647456,4737.318029,8734.430116,-153.219100
198.647777,4219.173869,8364.327145,0.000000
198.648098,3552.988522,7698.141797,459.657299
198.648419,3552.988522,7772.162391,1378.971896
198.648740,3552.988522,7624.121203,1378.971896
198.649061,3552.988522,7476.080014,842.705048
198.649382,3923.091493,7031.956449,153.219100
198.649703,4367.215058,7254.018232,0.000000
198.650023,4737.318029,7402.059420,153.219100
198.650344,5329.482782,7772.162391,-383.047749
198.650665,5921.647536,7994.224174,-766.095498
198.650986,6291.750507,8438.347739,-919.314598
198.651307,6439.791695,8290.306550,-842.705048
198.651628,6291.750507,8438.347739,-1072.533697
198.651949,6143.709319,8290.306550,-612.876398
198.652270,5847.626942,8364.327145,-842.705048
198.652590,5625.565159,8068.244768,-459.657299
198.652911,5403.503377,7550.100608,-536.266849
198.653232,4959.379811,7105.977043,-536.266849
198.653553,4589.276840,7476.080014,-306.438199
198.653874,4293.194464,7920.203579,229.828649
198.654195,4071.132681,7920.203579,536.266849
198.654516,4145.153275,8142.265362,383.047749
198.654837,3627.009116,8290.306550,995.924147
198.655157,3627.009116,7920.203579,842.705048
198.655478,4145.153275,8216.285956,229.828649
198.655799,4589.276840,8290.306550,76.609550
198.656120,4811.338623,8216.285956,-536.266849
198.656441,5181.441594,8068.244768,-383.047749
198.656762,5551.544565,8068.244768,-459.657299
198.657083,5847.626942,7994.224174,-383.047749
198.657403,5995.668130,8216.285956,-306.438199
198.657724,6291.750507,8586.388927,-842.705048
198.658045,6439.791695,8512.368333,-1225.752797
198.658366,5625.565159,8512.368333,-766.095498
198.658687,6217.729913,8364.327145,-229.828649
198.659008,5699.585753,9326.594869,153.219100
198.659329,4885.359217,8882.471304,0.000000
198.659650,4663.297435,8808.450710,-459.657299
198.659970,4219.173869,9104.533087,-306.438199
198.660291,3997.112087,8734.430116,229.828649
198.660612,3552.988522,8364.327145,1072.533697
198.660933,3256.906145,7846.182985,995.924147
198.661254,3182.885551,7328.038826,612.876398
198.661575,3627.009116,7624.121203,612.876398
198.661896,3997.112087,7550.100608,229.828649
198.662217,4737.318029,7624.121203,0.000000
198.662538,5033.400406,7698.141797,0.000000
198.662859,5699.585753,7846.182985,-383.047749
198.663180,5921.647536,7994.224174,-383.047749
198.663501,6439.791695,8142.265362,-689.485948
198.663822,6587.832884,8364.327145,-919.314598
198.664143,6809.894666,7698.141797,-1149.143247
198.664463,6513.812290,7476.080014,-995.924147
198.664784,6439.791695,7476.080014,-919.314598
198.665105,6143.709319,7550.100608,-612.876398
198.665426,5995.668130,7476.080014,-919.314598
198.665747,5403.503377,7328.038826,-689.485948
198.666068,4737.318029,7550.100608,-306.438199
198.666389,4589.276840,7772.162391,0.000000
198.666710,4515.256246,8586.388927,229.828649
198.667031,4071.132681,8290.306550,536.266849
198.667352,3627.009116,7846.182985,459.657299
198.667673,3478.967927,7772.162391,612.876398
198.667994,3775.050304,7994.224174,689.485948
198.668315,3552.988522,8216.285956,383.047749
198.668636,4145.153275,7994.224174,0.000000
198.668957,4737.318029,7846.182985,-153.219100
198.669277,5107.421000,8068.244768,0.000000
198.669598,5551.544565,7846.182985,229.828649
198.669919,6069.688724,8216.285956,-459.657299
198.670240,5995.668130,8364.327145,-306.438199
198.670561,5921.647536,8438.347739,-1149.143247
198.670882,5773.606348,8438.347739,-842.705048
198.671203,5995.668130,8586.388927,-766.095498
198.671524,5329.482782,9104.533087,-536.266849
198.671845,4885.359217,9326.594869,-306.438199
198.672166,4441.235652,9104.533087,-612.876398
198.672487,4441.235652,8956.491898,-383.047749
198.672808,4071.132681,8734.430116,306.438199
198.673129,3256.906145,8290.306550,766.095498
198.673450,3182.885551,7772.162391,919.314598
198.673770,3256.906145,7550.100608,919.314598
198.674091,3775.050304,7328.038826,842.705048
198.674412,4145.153275,7476.080014,612.876398
198.674733,4737.318029,7402.059420,76.609550
198.675054,5107.421000,7698.141797,0.000000
198.675375,5995.668130,7698.141797,-383.047749
198.675696,6439.791695,7846.182985,-842.705048
198.676017,6735.874072,7920.203579,-1149.143247
198.676338,6883.915261,8068.244768,-1149.143247
198.676659,6957.935855,8068.244768,-1302.362347
198.676980,6735.874072,7846.182985,-1149.143247
198.677301,6513.812290,7698.141797,-1072.533697
198.677622,6439.791695,7772.162391,-459.657299
198.677943,5699.585753,7550.100608,-919.314598
198.678264,5625.565159,7328.038826,-612.876398
198.678584,4811.338623,7476.080014,-383.047749
198.678905,4663.297435,7772.162391,153.219100
198.679226,4663.297435,7772.162391,612.876398
198.679547,4293.194464,7772.162391,689.485948
198.679868,3997.112087,7772.162391,612.876398
198.680189,3997.112087,7698.141797,459.657299
198.680510,3997.112087,7994.224174,306.438199
198.680831,4219.173869,7846.182985,0.000000
198.681152,4885.359217,8068.244768,-153.219100
198.681473,5403.503377,7994.224174,-459.657299
198.681794,5403.503377,8364.327145,-153.219100
198.682115,5625.565159,8290.306550,-536.266849
198.682436,5995.668130,8734.430116,-842.705048
198.682757,5921.647536,8586.388927,-689.485948
198.683077,6069.688724,8216.285956,-612.876398
198.683398,5847.626942,8586.388927,-766.095498
198.683719,5477.523971,8734.430116,-612.876398
198.684040,5107.421000,8808.450710,-383.047749
198.684361,4515.256246,8956.491898,-383.047749
198.684682,4145.153275,9252.574275,0.000000
198.685003,4145.153275,9030.512492,0.000000
198.685324,3701.029710,8808.450710,536.266849
198.685645,3775.050304,8290.306550,229.828649
198.685966,3404.947333,7550.100608,612.876398
198.686287,3182.885551,7476.080014,995.924147
198.686608,3701.029710,7624.121203,1072.533697
198.686929,3849.070898,7698.141797,153.219100
198.687250,4071.132681,7994.224174,0.000000
198.687571,5107.421000,7772.162391,-459.657299
198.687891,5625.565159,7698.141797,-306.438199
198.688212,6291.750507,7994.224174,-153.219100
198.688533,6513.812290,8142.265362,-766.095498
198.688854,6735.874072,8142.265362,-1149.143247
198.689175,6513.812290,7920.203579,-1225.752797
198.689496,6587.832884,7624.121203,-1225.752797
198.689817,6587.832884,7254.018232,-536.266849
198.690138,6661.853478,7772.162391,-919.314598
198.690459,5625.565159,7846.182985,-995.924147
198.690780,5255.462188,7105.977043,-459.657299
198.691101,5255.462188,7328.038826,0.000000
198.691422,4737.318029,7550.100608,229.828649
198.691743,4811.338623,8216.285956,1149.143247
198.692064,4441.235652,7920.203579,229.828649
198.692384,4071.132681,7772.162391,383.047749
198.692705,3997.112087,7772.162391,536.266849
198.693026,3775.050304,7772.162391,842.705048
198.693347,4071.132681,7846.182985,76.609550
198.693668,4515.256246,8290.306550,-536.266849
198.693989,5033.400406,7920.203579,-306.438199
198.694310,5403.503377,7994.224174,-306.438199
198.694631,5773.606348,7846.182985,0.000000
198.694952,5921.647536,8068.244768,-306.438199
198.695273,5551.544565,8660.409521,-766.095498
198.695594,5699.585753,8660.409521,-995.924147
198.695915,5477.523971,8586.388927,-842.705048
198.696236,5625.565159,9030.512492,-229.828649
198.696557,5329.482782,8882.471304,-383.047749
198.696878,4589.276840,9326.594869,-306.438199
198.697198,4589.276840,8956.491898,-383.047749
198.697519,4145.153275,9178.553681,0.000000
198.697840,3701.029710,8734.430116,229.828649
198.698161,3552.988522,7846.182985,766.095498
198.698482,3404.947333,7772.162391,919.314598
198.698803,3404.947333,7624.121203,842.705048
198.699124,3849.070898,7772.162391,612.876398
198.699445,4219.173869,7254.018232,-153.219100
198.699766,4515.256246,7402.059420,0.000000
198.700087,5033.400406,7772.162391,-306.438199
198.700408,5773.606348,8142.265362,0.000000
198.700729,5995.668130,7772.162391,-459.657299
198.701050,6809.894666,8142.265362,-842.705048
198.701371,6439.791695,8438.347739,-1149.143247
198.701691,6439.791695,8364.327145,-1149.143247
198.702012,6513.812290,7772.162391,-995.924147
198.702333,5847.626942,7920.203579,-612.876398
198.702654,5921.647536,7550.100608,-536.266849
198.702975,5181.441594,7476.080014,-459.657299
198.703296,4811.338623,7105.977043,-459.657299
198.703617,4737.318029,7402.059420,-306.438199
198.703938,4663.297435,7994.224174,919.314598
198.704259,4219.173869,7772.162391,383.047749
198.704580,3849.070898,7846.182985,306.438199
198.704901,4145.153275,7920.203579,612.876398
198.705222,4145.153275,8216.285956,766.095498
198.705543,4219.173869,8142.265362,459.657299
198.705864,4515.256246,8068.244768,-229.828649
198.706184,4811.338623,7920.203579,-612.876398
198.706505,5255.462188,7846.182985,-306.438199
198.706826,5699.585753,7846.182985,-459.657299
198.707147,6143.709319,8216.285956,0.000000
198.707468,5847.626942,8364.327145,-383.047749
198.707789,6069.688724,8290.306550,-689.485948
198.708110,5921.647536,8142.265362,-842.705048
198.708431,5921.647536,8660.409521,-995.924147
198.708752,5773.606348,8660.409521,-153.219100
198.709073,5255.462188,8734.430116,-383.047749
198.709394,4737.318029,8882.471304,-536.266849
198.709715,4367.215058,9178.553681,-229.828649
198.710036,4219.173869,9178.553681,0.000000
198.710357,3627.009116,8660.409521,612.876398
198.710678,3701.029710,8142.265362,766.095498
198.710998,3478.967927,7550.100608,766.095498
198.711319,3404.947333,7254.018232,842.705048
198.711640,3478.967927,7402.059420,612.876398
198.711961,3997.112087,7550.100608,383.047749
198.712282,4367.215058,7772.162391,0.000000
198.712603,5329.482782,7846.182985,-612.876398
198.712924,5625.565159,7994.224174,-459.657299
198.713245,6143.709319,8438.347739,-689.485948
198.713566,6069.688724,8364.327145,-766.095498
198.713887,6217.729913,7994.224174,-1149.143247
198.714208,6143.709319,8068.244768,-1072.533697
198.714529,6291.750507,7994.224174,-1455.581446
198.714850,6365.771101,7772.162391,-919.314598
198.715171,6217.729913,7994.224174,-689.485948
198.715491,4959.379811,7994.224174,-536.266849
198.715812,4663.297435,7476.080014,-612.876398
198.716133,4219.173869,7698.141797,-306.438199
198.716454,3997.112087,8364.327145,229.828649
198.716775,3923.091493,8290.306550,459.657299
198.717096,3478.967927,8290.306550,842.705048
198.717417,3478.967927,8438.347739,766.095498
198.717738,3478.967927,8364.327145,919.314598
198.718059,3478.967927,8438.347739,919.314598
198.718380,3478.967927,8660.409521,459.657299
198.718701,4219.173869,8290.306550,0.000000
198.719022,4663.297435,7920.203579,-229.828649
198.719343,5181.441594,7772.162391,0.000000
198.719664,5699.585753,7920.203579,229.828649
198.719985,6439.791695,8068.244768,-306.438199
198.720305,6069.688724,8364.327145,-689.485948
198.720626,5921.647536,8068.244768,-766.095498
198.720947,6069.688724,8142.265362,-919.314598
198.721268,6291.750507,8364.327145,-689.485948
198.721589,5773.606348,8068.244768,0.000000
198.721910,5403.503377,8734.430116,-536.266849
198.722231,5181.441594,8734.430116,-536.266849
198.722552,4811.338623,8512.368333,-229.828649
198.722873,4071.132681,8364.327145,153.219100
198.723194,3923.091493,7846.182985,919.314598
198.723515,4071.132681,7328.038826,919.314598
198.723836,4071.132681,7105.977043,1302.362347
198.724157,4219.173869,6883.915261,689.485948
198.724478,4367.215058,7031.956449,229.828649
198.724798,5255.462188,7254.018232,-306.438199
198.725119,5329.482782,7550.100608,-306.438199
198.725440,5995.668130,7624.121203,-536.266849
198.725761,6143.709319,7994.224174,-459.657299
198.726082,6661.853478,7846.182985,-995.924147
198.726403,6883.915261,8290.306550,-1225.752797
198.726724,6809.894666,7994.224174,-1072.533697
198.727045,6439.791695,7698.141797,-1072.533697
198.727366,6587.832884,7698.141797,-842.705048
198.727687,5995.668130,7550.100608,-919.314598
198.728008,5921.647536,7402.059420,-229.828649
