#time,accel_x,accel_y,accel_z
565.743455,4885.359217,7624.121203,0.000000
565.743776,4885.359217,7846.182985,0.000000
565.744097,4959.379811,7846.182985,0.000000
565.744418,5033.400406,7550.100608,0.000000
565.744739,5033.400406,7994.224174,-229.828649
565.745059,4885.359217,7846.182985,0.000000
565.745380,4885.359217,7846.182985,-153.219100
565.745701,4885.359217,8216.285956,0.000000
565.746022,5033.400406,7698.141797,-383.047749
565.746343,4885.359217,8142.265362,0.000000
565.746663,4811.338623,8216.285956,-76.609550
565.746984,4811.338623,7920.203579,0.000000
565.747305,4885.359217,7772.162391,-612.876398
565.747626,4959.379811,8142.265362,76.609550
565.747947,4737.318029,8216.285956,-306.438199
565.748267,4885.359217,7994.224174,-306.438199
565.748588,5255.462188,8068.244768,0.000000
565.748909,4811.338623,8216.285956,0.000000
565.749230,4885.359217,8068.244768,153.219100
565.749551,5329.482782,7920.203579,0.000000
565.749871,5033.400406,7994.224174,-229.828649
565.750192,5329.482782,7994.224174,153.219100
565.750513,4885.359217,7920.203579,-153.219100
565.750834,5033.400406,8068.244768,0.000000
565.751155,4959.379811,8216.285956,-306.438199
565.751475,4885.359217,7994.224174,0.000000
565.751796,5033.400406,8068.244768,76.609550
565.752117,4959.379811,7994.224174,-153.219100
565.752438,4885.359217,7920.203579,-383.047749
565.752759,4293.194464,7772.162391,-306.438199
565.753080,4071.132681,7698.141797,0.000000
565.753400,4663.297435,8956.491898,0.000000
565.753721,4367.215058,9918.759623,-766.095498
565.754042,4737.318029,9844.739029,-1608.800546
565.754363,4737.318029,9548.656652,-1302.362347
565.754684,4071.132681,9178.553681,-536.266849
565.755004,3404.947333,8808.450710,459.657299
565.755325,2886.803174,9030.512492,1072.533697
565.755646,2590.720797,9252.574275,306.438199
565.755967,2664.741391,8882.471304,0.000000
565.756288,2812.782580,8364.327145,-153.219100
565.756608,3330.926739,8734.430116,383.047749
565.756929,3701.029710,9622.677246,229.828649
565.757250,2886.803174,9622.677246,229.828649
565.757571,2590.720797,8956.491898,306.438199
565.757892,2368.659014,8660.409521,76.609550
565.758212,2368.659014,9474.636058,-229.828649
565.758533,1850.514855,10881.027347,-1225.752797
565.758854,1406.391290,11547.212695,-1685.410096
565.759175,1332.370696,11769.274478,-1608.800546
565.759496,1258.350101,11547.212695,-1532.190996
565.759816,370.102971,11547.212695,-1302.362347
565.760137,-592.164754,11843.295072,-766.095498
565.760458,-1406.391290,12361.439231,0.000000
565.760779,-1554.432478,12657.521608,229.828649
565.761100,-1924.535449,11695.253884,1532.190996
565.761421,-1036.288319,11177.109724,1838.629195
565.761741,-1406.391290,11621.233289,1915.238745
565.762062,-2368.659014,12435.459826,842.705048
565.762383,-3108.864956,11251.130318,-229.828649
565.762704,-1628.453072,9844.739029,-842.705048
565.763025,-962.267725,10214.842000,-153.219100
565.763345,-444.123565,10288.862594,1302.362347
565.763666,74.020594,10807.006753,766.095498
565.763987,0.000000,11251.130318,-612.876398
565.764308,1036.288319,11547.212695,-1225.752797
565.764629,1554.432478,10881.027347,-766.095498
565.764949,2516.700203,9844.739029,-459.657299
565.765270,2590.720797,10436.903782,-383.047749
565.765591,2442.679609,10436.903782,-1378.971896
565.765912,2146.597232,9326.594869,-2374.896044
565.766233,1924.535449,9474.636058,-2221.676944
565.766553,2220.617826,9696.697840,-612.876398
565.766874,2072.576638,10066.800811,306.438199
565.767195,1406.391290,10066.800811,0.000000
565.767516,1184.329507,10732.986159,-842.705048
565.767837,740.205942,11029.068536,-229.828649
565.768157,222.061783,10732.986159,76.609550
565.768478,0.000000,10140.821405,612.876398
565.768799,-296.082377,10362.883188,0.000000
565.769120,-370.102971,10510.924376,919.314598
565.769441,-444.123565,11029.068536,995.924147
565.769761,-1036.288319,10362.883188,1302.362347
565.770082,74.020594,11177.109724,1225.752797
565.770403,666.185348,11029.068536,1149.143247
565.770724,1110.308913,10955.047942,383.047749
565.771045,1184.329507,10807.006753,-536.266849
565.771366,1406.391290,10362.883188,-1302.362347
565.771686,1702.473667,10066.800811,-766.095498
565.772007,2072.576638,9400.615463,76.609550
565.772328,1924.535449,8956.491898,459.657299
565.772649,2516.700203,9030.512492,459.657299
565.772970,2294.638420,9992.780217,0.000000
565.773290,2146.597232,10436.903782,-306.438199
565.773611,2442.679609,10288.862594,-612.876398
565.773932,3182.885551,9992.780217,-1302.362347
565.774253,3478.967927,10140.821405,-1225.752797
565.774574,3404.947333,10436.903782,-1072.533697
565.774894,2590.720797,10584.944971,-1225.752797
565.775215,1554.432478,10658.965565,-766.095498
565.775536,592.164754,10658.965565,-306.438199
565.775857,666.185348,10807.006753,-306.438199
565.776178,296.082377,10955.047942,-1532.190996
565.776498,-148.041188,10807.006753,-1915.238745
565.776819,-814.226536,10436.903782,-1378.971896
565.777140,-1480.411884,9400.615463,0.000000
565.777461,-888.247130,9252.574275,1608.800546
565.777782,-296.082377,11177.109724,2451.505594
565.778102,-518.144159,12879.583391,2145.067394
565.778423,0.000000,12805.562797,383.047749
565.778744,222.061783,12287.418637,0.000000
565.779065,1110.308913,11621.233289,0.000000
565.779386,888.247130,10362.883188,0.000000
565.779706,666.185348,9770.718434,-536.266849
565.780027,296.082377,9918.759623,-1685.410096
565.780348,0.000000,10362.883188,-1991.848295
565.780669,-1110.308913,9918.759623,-2068.457845
565.780990,0.000000,10510.924376,-1685.410096
565.781311,592.164754,11917.315666,-383.047749
565.781631,814.226536,13101.645173,459.657299
565.781952,962.267725,13323.706956,536.266849
565.782273,1110.308913,13249.686362,-383.047749
565.782594,-592.164754,12509.480420,-995.924147
565.782915,592.164754,11177.109724,-153.219100
565.783235,1036.288319,9104.533087,0.000000
565.783556,1258.350101,8808.450710,-689.485948
565.783877,1776.494261,9696.697840,153.219100
565.784198,962.267725,10658.965565,229.828649
565.784519,222.061783,10436.903782,919.314598
565.784839,222.061783,9770.718434,1378.971896
565.785160,814.226536,8734.430116,995.924147
565.785481,666.185348,7994.224174,0.000000
565.785802,1628.453072,9918.759623,76.609550
565.786123,1110.308913,12065.356855,-842.705048
565.786443,0.000000,12731.542202,-1991.848295
565.786764,592.164754,12879.583391,-1762.019645
565.787085,1110.308913,13471.748144,-1532.190996
565.787406,592.164754,13915.871710,383.047749
565.787727,740.205942,13249.686362,689.485948
565.788047,-666.185348,11399.171507,0.000000
565.788368,-1406.391290,9770.718434,459.657299
565.788689,-1332.370696,8882.471304,1608.800546
565.789010,-1850.514855,8734.430116,1685.410096
565.789331,-2220.617826,8216.285956,1608.800546
565.789651,-1036.288319,8586.388927,1302.362347
565.789972,-148.041188,8956.491898,536.266849
565.790293,444.123565,10140.821405,153.219100
565.790614,1258.350101,12213.398043,-383.047749
565.790935,2072.576638,13175.665768,-1532.190996
565.791256,2960.823768,12065.356855,-1991.848295
565.791576,2072.576638,9770.718434,-2068.457845
565.791897,1776.494261,7772.162391,-2145.067394
565.792218,3182.885551,8438.347739,229.828649
565.792539,2886.803174,11473.192101,1378.971896
565.792860,1036.288319,13101.645173,-1072.533697
565.793180,1258.350101,12361.439231,-2987.772442
565.793501,1776.494261,10510.924376,-2757.943793
565.793822,0.000000,8734.430116,-1225.752797
565.794143,-1406.391290,7624.121203,306.438199
565.794464,-296.082377,8438.347739,383.047749
565.794784,222.061783,12361.439231,842.705048
565.795105,-1702.473667,14952.160028,1838.629195
565.795426,-2368.659014,14804.118840,306.438199
565.795747,-1258.350101,14137.933492,0.000000
565.796068,-1110.308913,13027.624579,995.924147
565.796388,-1258.350101,11473.192101,1225.752797
565.796709,-1332.370696,9548.656652,-689.485948
565.797030,148.041188,10140.821405,-842.705048
565.797351,0.000000,11325.150913,919.314598
565.797672,444.123565,10732.986159,1608.800546
565.797992,1258.350101,9252.574275,919.314598
565.798313,1924.535449,8660.409521,383.047749
565.798634,3552.988522,9696.697840,1302.362347
565.798955,4737.318029,10584.944971,383.047749
565.799276,3701.029710,9918.759623,-1532.190996
565.799597,4219.173869,10584.944971,-2145.067394
565.799917,4367.215058,9992.780217,-2987.772442
565.800238,2294.638420,8808.450710,-2451.505594
565.800559,3627.009116,8512.368333,-689.485948
565.800880,3330.926739,10362.883188,-229.828649
565.801201,2590.720797,12879.583391,-459.657299
565.801521,2442.679609,13027.624579,-383.047749
565.801842,0.000000,10732.986159,-1991.848295
565.802163,-1776.494261,8734.430116,-1532.190996
565.802484,-1554.432478,9178.553681,842.705048
565.802804,-2220.617826,11251.130318,1685.410096
565.803125,-2738.761985,12435.459826,-689.485948
565.803446,-2368.659014,13767.830521,-995.924147
565.803766,-1480.411884,14137.933492,-306.438199
565.804087,-3108.864956,12583.501014,1915.238745
565.804408,-3478.967927,10362.883188,3140.991542
565.804729,-1554.432478,11103.089130,2145.067394
565.805049,-1258.350101,12361.439231,1378.971896
565.805370,-1406.391290,11177.109724,229.828649
565.805691,222.061783,9992.780217,0.000000
565.806011,962.267725,9400.615463,1225.752797
565.806332,518.144159,9104.533087,1991.848295
565.806653,1554.432478,7624.121203,1532.190996
565.806973,2368.659014,7624.121203,-995.924147
565.807294,3552.988522,9696.697840,-1685.410096
565.807615,4071.132681,11621.233289,-1532.190996
565.807935,4811.338623,11473.192101,-2298.286494
565.808256,4737.318029,9326.594869,-2298.286494
565.808577,4589.276840,7772.162391,-1302.362347
565.808897,3108.864956,8512.368333,-1302.362347
565.809218,1332.370696,9400.615463,-1532.190996
565.809539,888.247130,11621.233289,-2681.334243
565.809859,1776.494261,12287.418637,-2834.553343
565.810180,1480.411884,9918.759623,-1532.190996
565.810501,1628.453072,7328.038826,0.000000
565.810821,222.061783,9030.512492,1685.410096
565.811142,-2368.659014,12731.542202,1608.800546
565.811463,-3404.947333,13841.851115,1149.143247
565.811783,-2590.720797,12361.439231,153.219100
565.812104,-740.205942,11769.274478,1149.143247
565.812425,148.041188,11621.233289,2068.457845
565.812745,-814.226536,12731.542202,1685.410096
565.813066,-3404.947333,13101.645173,-153.219100
565.813387,-2812.782580,12583.501014,-153.219100
565.813708,-592.164754,11103.089130,383.047749
565.814028,370.102971,9622.677246,1455.581446
565.814349,592.164754,10881.027347,1532.190996
565.814670,1480.411884,11473.192101,1149.143247
565.814990,518.144159,10066.800811,-919.314598
565.815311,2072.576638,8660.409521,-1149.143247
565.815632,4145.153275,9030.512492,76.609550
565.815952,4737.318029,10436.903782,-459.657299
565.816273,3849.070898,10214.842000,-1072.533697
565.816594,2664.741391,8882.471304,-2987.772442
565.816914,3256.906145,8068.244768,-2604.724693
565.817235,4071.132681,9474.636058,-1225.752797
565.817556,5255.462188,11695.253884,-536.266849
565.817876,3034.844362,11547.212695,-1915.238745
565.818197,370.102971,9844.739029,-3753.867940
565.818518,666.185348,9696.697840,-3983.696590
565.818838,888.247130,12657.521608,-612.876398
565.819159,-2368.659014,12879.583391,1302.362347
565.819480,-1332.370696,11991.336260,995.924147
565.819800,-1258.350101,11695.253884,229.828649
565.820121,-3627.009116,11843.295072,919.314598
565.820442,-3923.091493,12805.562797,1685.410096
565.820762,-3552.988522,13619.789333,3140.991542
565.821083,-3256.906145,12805.562797,3370.820191
565.821404,-2590.720797,10140.821405,3907.087040
565.821724,-2220.617826,8734.430116,2681.334243
565.822045,-2294.638420,9770.718434,1608.800546
565.822366,-1406.391290,13027.624579,1762.019645
565.822687,-740.205942,12509.480420,0.000000
565.823007,2664.741391,9844.739029,-2145.067394
565.823328,4737.318029,8438.347739,-919.314598
565.823649,2664.741391,9030.512492,383.047749
565.823969,3182.885551,11177.109724,229.828649
565.824290,2886.803174,10584.944971,-1225.752797
565.824611,4293.194464,9696.697840,-3830.477490
565.824931,5995.668130,7698.141797,-2834.553343
565.825252,6513.812290,7550.100608,-1532.190996
565.825573,4811.338623,9992.780217,-536.266849
565.825893,3108.864956,10510.924376,-383.047749
565.826214,2590.720797,8142.265362,-2757.943793
565.826535,4293.194464,6365.771101,-2604.724693
565.826855,3849.070898,7328.038826,-919.314598
565.827176,2368.659014,9696.697840,689.485948
565.827497,0.000000,10881.027347,842.705048
565.827817,148.041188,9696.697840,766.095498
565.828138,296.082377,9178.553681,1378.971896
565.828459,1036.288319,9696.697840,2145.067394
565.828779,666.185348,11695.253884,2068.457845
565.829100,148.041188,11695.253884,1991.848295
565.829421,592.164754,10510.924376,229.828649
565.829741,1924.535449,7920.203579,-612.876398
565.830062,2886.803174,5847.626942,229.828649
565.830383,4441.235652,6439.791695,1455.581446
565.830703,3552.988522,7698.141797,995.924147
565.831024,4145.153275,7846.182985,-766.095498
565.831345,6587.832884,6661.853478,-1838.629195
565.831666,7402.059420,6883.915261,-995.924147
565.831986,7254.018232,8586.388927,-689.485948
565.832307,8956.491898,10436.903782,-1685.410096
565.832628,6661.853478,9104.533087,-4903.011187
565.832948,7476.080014,6735.874072,-4903.011187
565.833269,9030.512492,4811.338623,-919.314598
565.833590,6365.771101,5329.482782,0.000000
565.833910,5403.503377,7846.182985,-842.705048
565.834231,4145.153275,10658.965565,-2451.505594
565.834552,4219.173869,9474.636058,-3983.696590
565.834872,6291.750507,8808.450710,-1378.971896
565.835193,5699.585753,9104.533087,842.705048
565.835514,962.267725,9252.574275,-153.219100
565.835834,1628.453072,10955.047942,383.047749
565.836155,2368.659014,11251.130318,995.924147
565.836476,1332.370696,10214.842000,919.314598
565.836796,2812.782580,9030.512492,2374.896044
565.837117,3552.988522,10955.047942,1838.629195
565.837438,1406.391290,12583.501014,766.095498
565.837758,2368.659014,11621.233289,1149.143247
565.838079,3775.050304,9252.574275,229.828649
565.838400,3330.926739,4885.359217,-536.266849
565.838720,4219.173869,4293.194464,1149.143247
565.839041,4515.256246,5921.647536,995.924147
565.839362,4293.194464,9104.533087,-1225.752797
565.839682,6661.853478,10955.047942,-1838.629195
565.840003,9400.615463,10436.903782,-2528.115143
565.840324,8734.430116,8808.450710,-2145.067394
565.840645,7105.977043,8364.327145,612.876398
565.840965,6365.771101,9252.574275,-383.047749
565.841286,5995.668130,8364.327145,-2528.115143
565.841607,6217.729913,6957.935855,-2604.724693
565.841927,7328.038826,6587.832884,-766.095498
565.842248,6291.750507,7550.100608,1149.143247
565.842569,4811.338623,8586.388927,1532.190996
565.842889,3775.050304,6439.791695,-383.047749
565.843210,3923.091493,4441.235652,-919.314598
565.843531,5847.626942,3849.070898,842.705048
565.843851,4441.235652,3627.009116,2451.505594
565.844172,3923.091493,4441.235652,1225.752797
565.844493,4737.318029,7476.080014,-306.438199
565.844813,5477.523971,11177.109724,306.438199
565.845134,6957.935855,11473.192101,-306.438199
565.845455,7846.182985,9770.718434,-766.095498
565.845775,7994.224174,8808.450710,-459.657299
565.846096,5107.421000,7402.059420,0.000000
565.846417,4293.194464,6069.688724,612.876398
565.846737,5773.606348,5033.400406,153.219100
565.847058,4737.318029,4811.338623,842.705048
565.847379,3404.947333,5847.626942,2145.067394
565.847699,4663.297435,7624.121203,2145.067394
565.848020,3849.070898,7994.224174,536.266849
565.848341,5033.400406,6291.750507,0.000000
565.848661,5551.544565,5847.626942,842.705048
565.848982,6069.688724,6291.750507,-229.828649
565.849303,6513.812290,9474.636058,-1225.752797
565.849624,6439.791695,11251.130318,-995.924147
565.849944,4737.318029,9622.677246,-2451.505594
565.850265,6587.832884,8956.491898,-1838.629195
565.850586,6291.750507,8882.471304,-459.657299
565.850906,4293.194464,8956.491898,-612.876398
565.851227,3997.112087,10140.821405,-1302.362347
565.851548,4145.153275,9400.615463,-1608.800546
565.851868,2516.700203,7179.997637,-842.705048
565.852189,2812.782580,5107.421000,1225.752797
565.852510,3552.988522,5033.400406,2451.505594
565.852830,4071.132681,8142.265362,2451.505594
565.853151,4071.132681,10288.862594,1991.848295
565.853472,3997.112087,10510.924376,-1378.971896
565.853792,5625.565159,8142.265362,-2911.162892
565.854113,5477.523971,7994.224174,-766.095498
565.854434,5551.544565,8808.450710,1072.533697
565.854754,5033.400406,9178.553681,-919.314598
565.855075,5181.441594,9844.739029,-3064.381992
565.855396,5477.523971,10066.800811,-3064.381992
565.855716,3923.091493,8364.327145,-1225.752797
565.856037,3923.091493,7550.100608,766.095498
565.856358,3849.070898,8438.347739,842.705048
565.856678,3552.988522,9474.636058,-766.095498
565.856999,4367.215058,9992.780217,-919.314598
565.857320,5255.462188,10436.903782,-766.095498
565.857640,3478.967927,9844.739029,-459.657299
565.857961,4071.132681,9622.677246,-383.047749
565.858282,4589.276840,9548.656652,0.000000
565.858603,3775.050304,8734.430116,689.485948
565.858923,3627.009116,6957.935855,1762.019645
565.859244,5033.400406,6957.935855,1455.581446
565.859565,4441.235652,5995.668130,0.000000
565.859885,4219.173869,6365.771101,-306.438199
565.860206,5329.482782,7105.977043,459.657299
565.860527,6957.935855,8586.388927,-383.047749
565.860847,8290.306550,8364.327145,-383.047749
565.861168,7994.224174,8290.306550,-306.438199
565.861489,8586.388927,7624.121203,459.657299
565.861809,6513.812290,7328.038826,0.000000
565.862130,7105.977043,7105.977043,-3294.210641
565.862451,7846.182985,6957.935855,-4060.306139
565.862771,6883.915261,6439.791695,-1685.410096
565.863092,7698.141797,6661.853478,2298.286494
565.863413,8290.306550,7105.977043,2451.505594
565.863733,3701.029710,5033.400406,-842.705048
565.864054,4219.173869,4663.297435,-689.485948
565.864375,5921.647536,4441.235652,1762.019645
565.864695,6217.729913,5551.544565,2834.553343
565.865016,6809.894666,7031.956449,1532.190996
565.865337,6957.935855,6957.935855,-3064.381992
565.865657,6291.750507,8364.327145,-3447.429741
565.865978,4885.359217,8660.409521,689.485948
565.866299,5773.606348,8216.285956,1378.971896
565.866619,5033.400406,6587.832884,-1225.752797
565.866940,5847.626942,8142.265362,-2528.115143
565.867261,5921.647536,7402.059420,153.219100
565.867582,3108.864956,7624.121203,919.314598
565.867902,3404.947333,7031.956449,1072.533697
565.868223,4811.338623,8142.265362,1532.190996
565.868544,3182.885551,8438.347739,612.876398
565.868864,2886.803174,7846.182985,0.000000
565.869185,6217.729913,7402.059420,383.047749
565.869506,5921.647536,8216.285956,-689.485948
565.869826,5699.585753,9400.615463,-842.705048
565.870147,5403.503377,9400.615463,1378.971896
565.870468,3552.988522,9030.512492,0.000000
565.870788,5107.421000,11103.089130,-1149.143247
565.871109,5773.606348,11399.171507,-1762.019645
565.871430,2960.823768,10510.924376,-3370.820191
565.871750,4293.194464,10955.047942,-459.657299
565.872071,3034.844362,10510.924376,1838.629195
565.872392,1776.494261,8734.430116,536.266849
565.872712,2368.659014,6143.709319,2145.067394
565.873033,2072.576638,6957.935855,842.705048
565.873354,1184.329507,9918.759623,842.705048
565.873674,4145.153275,11917.315666,919.314598
565.873995,5625.565159,9178.553681,-2374.896044
565.874316,5255.462188,6365.771101,-459.657299
565.874636,5181.441594,8068.244768,4596.572988
565.874957,3182.885551,11695.253884,1685.410096
565.875278,888.247130,10732.986159,-3524.039291
565.875598,5329.482782,8290.306550,-5898.935335
565.875919,7550.100608,6291.750507,-2604.724693
565.876240,6069.688724,7328.038826,2298.286494
565.876561,6217.729913,8364.327145,2834.553343
565.876881,3775.050304,7994.224174,-612.876398
565.877202,3627.009116,6661.853478,-2068.457845
565.877523,5995.668130,6735.874072,-306.438199
565.877843,7476.080014,6069.688724,536.266849
565.878164,7254.018232,5773.606348,-1991.848295
565.878485,8734.430116,7920.203579,-459.657299
565.878805,7105.977043,8290.306550,995.924147
565.879126,4737.318029,6809.894666,1072.533697
565.879447,5921.647536,5773.606348,-229.828649
565.879767,6661.853478,6883.915261,-2834.553343
565.880088,4737.318029,8586.388927,-3064.381992
565.880409,5921.647536,8512.368333,229.828649
565.880729,7105.977043,7402.059420,0.000000
565.881050,5995.668130,5551.544565,536.266849
565.881371,4145.153275,5329.482782,2221.676944
565.881691,4737.318029,6735.874072,1685.410096
565.882012,4441.235652,6809.894666,-153.219100
565.882333,5625.565159,7105.977043,-1762.019645
565.882653,8734.430116,7698.141797,-2528.115143
565.882974,8586.388927,7624.121203,-306.438199
565.883295,5699.585753,8882.471304,2451.505594
565.883615,5033.400406,9474.636058,1378.971896
565.883936,4737.318029,8142.265362,-2145.067394
565.884257,4737.318029,7772.162391,-3447.429741
565.884577,5329.482782,8142.265362,-1608.800546
565.884898,5255.462188,9474.636058,842.705048
565.885219,5477.523971,9400.615463,2221.676944
565.885540,4737.318029,7402.059420,1225.752797
565.885860,3552.988522,5699.585753,0.000000
565.886181,4219.173869,6587.832884,766.095498
565.886502,3478.967927,7772.162391,0.000000
565.886822,4441.235652,8142.265362,-1302.362347
565.887143,5329.482782,9178.553681,-383.047749
565.887464,6883.915261,10807.006753,1608.800546
565.887784,4145.153275,10140.821405,689.485948
565.888105,3701.029710,10214.842000,-919.314598
565.888426,2960.823768,8438.347739,-2298.286494
565.888746,1924.535449,8882.471304,-1991.848295
565.889067,3552.988522,8512.368333,229.828649
565.889388,4663.297435,8216.285956,1455.581446
565.889708,4811.338623,7254.018232,766.095498
565.890029,4367.215058,8216.285956,306.438199
565.890350,2886.803174,9178.553681,-612.876398
565.890670,1480.411884,7920.203579,-2068.457845
565.890991,4071.132681,8290.306550,-306.438199
565.891312,7105.977043,9104.533087,2068.457845
565.891632,5551.544565,7772.162391,2528.115143
565.891953,4145.153275,7105.977043,1455.581446
565.892274,4367.215058,8660.409521,-1685.410096
565.892594,2664.741391,10288.862594,-3140.991542
565.892915,2812.782580,8808.450710,-2221.676944
565.893236,5255.462188,9474.636058,-766.095498
565.893556,6069.688724,8142.265362,1225.752797
565.893877,5773.606348,9252.574275,2451.505594
565.894198,4515.256246,8808.450710,1838.629195
565.894519,0.000000,6365.771101,-1915.238745
565.894839,2886.803174,5477.523971,-842.705048
565.895160,6069.688724,6957.935855,1532.190996
565.895481,6513.812290,8216.285956,1225.752797
565.895801,8660.409521,7402.059420,995.924147
565.896122,7698.141797,8586.388927,-766.095498
565.896443,4441.235652,7994.224174,-1532.190996
565.896763,4811.338623,7254.018232,-229.828649
565.897084,7550.100608,6735.874072,-1149.143247
565.897405,8808.450710,6735.874072,-1149.143247
565.897725,6883.915261,7402.059420,153.219100
565.898046,5699.585753,7846.182985,-995.924147
565.898367,5329.482782,7550.100608,-995.924147
565.898687,5625.565159,7179.997637,1455.581446
565.899008,5625.565159,6365.771101,2145.067394
565.899329,5625.565159,5329.482782,995.924147
565.899649,5699.585753,6365.771101,-919.314598
565.899970,5921.647536,9030.512492,-612.876398
565.900291,4663.297435,10955.047942,1455.581446
565.900611,5033.400406,10807.006753,1455.581446
565.900932,4959.379811,8216.285956,0.000000
565.901253,5255.462188,6513.812290,-1915.238745
565.901573,4219.173869,7105.977043,-1532.190996
565.901894,2590.720797,8142.265362,306.438199
565.902215,2886.803174,9992.780217,229.828649
565.902535,4441.235652,9474.636058,536.266849
565.902856,3923.091493,5921.647536,842.705048
565.903176,5329.482782,6439.791695,842.705048
565.903497,4441.235652,8438.347739,383.047749
565.903818,1110.308913,8438.347739,-1991.848295
565.904138,5477.523971,8956.491898,-2298.286494
565.904459,7476.080014,8734.430116,229.828649
565.904779,6883.915261,8956.491898,2221.676944
565.905100,5921.647536,8734.430116,1455.581446
565.905420,3552.988522,9696.697840,-2987.772442
565.905741,2664.741391,10362.883188,-5209.449386
565.906061,4441.235652,9400.615463,-2604.724693
565.906382,5107.421000,7328.038826,-689.485948
565.906703,5551.544565,6513.812290,1072.533697
565.907023,4219.173869,7550.100608,3064.381992
565.907344,2664.741391,9622.677246,1149.143247
565.907664,1332.370696,8216.285956,-1685.410096
565.907985,3404.947333,7031.956449,-1532.190996
565.908305,7328.038826,8438.347739,0.000000
565.908626,7994.224174,9622.677246,1608.800546
565.908947,5699.585753,8882.471304,1225.752797
565.909267,4885.359217,8438.347739,-689.485948
565.909588,3923.091493,9178.553681,-2145.067394
565.909908,3997.112087,9474.636058,-1225.752797
565.910229,5033.400406,9474.636058,-842.705048
565.910549,7328.038826,10436.903782,0.000000
565.910870,4885.359217,10214.842000,0.000000
565.911191,4071.132681,8216.285956,153.219100
565.911511,4293.194464,5921.647536,1378.971896
565.911832,4737.318029,6439.791695,2145.067394
565.912152,3552.988522,6069.688724,2374.896044
565.912473,4589.276840,5921.647536,0.000000
565.912793,5921.647536,7179.997637,-689.485948
565.913114,8290.306550,10066.800811,306.438199
565.913435,5921.647536,9400.615463,1991.848295
565.913755,6957.935855,7476.080014,-689.485948
565.914076,6957.935855,6809.894666,-1991.848295
565.914396,4737.318029,6883.915261,-1762.019645
565.914717,5033.400406,7772.162391,-1225.752797
565.915037,5773.606348,7994.224174,229.828649
565.915358,4737.318029,7994.224174,-689.485948
565.915678,6365.771101,7105.977043,229.828649
565.915999,7105.977043,7254.018232,383.047749
565.916320,3182.885551,5255.462188,-1762.019645
565.916640,3404.947333,6735.874072,-919.314598
565.916961,5255.462188,7550.100608,766.095498
565.917281,5255.462188,8290.306550,459.657299
565.917602,5033.400406,5773.606348,1378.971896
565.917922,5551.544565,6809.894666,1072.533697
565.918243,3775.050304,9474.636058,-459.657299
565.918564,2368.659014,10510.924376,-766.095498
565.918884,3627.009116,9104.533087,-1991.848295
565.919205,5477.523971,7179.997637,-1608.800546
565.919525,6069.688724,8734.430116,1149.143247
565.919846,4589.276840,9326.594869,2221.676944
565.920166,1258.350101,7179.997637,76.609550
565.920487,2368.659014,6661.853478,-612.876398
565.920808,4145.153275,7550.100608,536.266849
565.921128,4219.173869,8364.327145,0.000000
565.921449,5329.482782,9548.656652,-766.095498
565.921769,6143.709319,11029.068536,0.000000
565.922090,4367.215058,10510.924376,766.095498
565.922410,4737.318029,9178.553681,766.095498
565.922731,4589.276840,7920.203579,-1072.533697
565.923051,5033.400406,8290.306550,-2528.115143
565.923372,5033.400406,9030.512492,-1685.410096
565.923693,4071.132681,8364.327145,0.000000
565.924013,5477.523971,7920.203579,995.924147
565.924334,6957.935855,7994.224174,995.924147
565.924654,4959.379811,6883.915261,1149.143247
565.924975,4589.276840,5403.503377,-459.657299
565.925295,5033.400406,5329.482782,459.657299
565.925616,6883.915261,7920.203579,0.000000
565.925937,6809.894666,9030.512492,-306.438199
565.926257,7105.977043,10066.800811,0.000000
565.926578,7105.977043,9548.656652,-229.828649
565.926898,4737.318029,9178.553681,-1532.190996
565.927219,5033.400406,8216.285956,-2528.115143
565.927539,5033.400406,8364.327145,-2757.943793
565.927860,4663.297435,8290.306550,-1608.800546
565.928181,3997.112087,9326.594869,766.095498
565.928501,5847.626942,10140.821405,2987.772442
565.928822,1924.535449,7698.141797,766.095498
565.929142,1184.329507,7105.977043,-1149.143247
565.929463,2516.700203,7105.977043,459.657299
565.929783,3552.988522,8512.368333,1072.533697
565.930104,4515.256246,8216.285956,1225.752797
565.930425,6513.812290,7920.203579,1072.533697
565.930745,5033.400406,9252.574275,1149.143247
565.931066,4293.194464,10658.965565,2298.286494
565.931386,3108.864956,9474.636058,76.609550
565.931707,4441.235652,6365.771101,-2834.553343
565.932027,7698.141797,6735.874072,-842.705048
565.932348,7179.997637,8734.430116,1685.410096
565.932668,5181.441594,7624.121203,0.000000
565.932989,4737.318029,5699.585753,-2221.676944
565.933310,4959.379811,4663.297435,-2911.162892
565.933630,5625.565159,4663.297435,-689.485948
565.933951,7254.018232,6587.832884,1378.971896
565.934271,7254.018232,8068.244768,383.047749
565.934592,6735.874072,8660.409521,-1915.238745
565.934912,7476.080014,8956.491898,-153.219100
565.935233,5773.606348,8734.430116,0.000000
565.935554,5181.441594,8068.244768,-383.047749
565.935874,5477.523971,8882.471304,-1455.581446
565.936195,4737.318029,8512.368333,-2451.505594
565.936515,4589.276840,7105.977043,459.657299
565.936836,5773.606348,7698.141797,2528.115143
565.937156,4589.276840,7031.956449,1225.752797
565.937477,2442.679609,5625.565159,383.047749
565.937798,1110.308913,6883.915261,153.219100
565.938118,3108.864956,7402.059420,536.266849
565.938439,3775.050304,6809.894666,689.485948
565.938759,6439.791695,8290.306550,-383.047749
565.939080,6513.812290,10066.800811,-842.705048
565.939400,4293.194464,10584.944971,-919.314598
565.939721,3923.091493,8808.450710,-919.314598
565.940042,4959.379811,8290.306550,-536.266849
565.940362,6735.874072,7920.203579,-766.095498
565.940683,6809.894666,9104.533087,-612.876398
565.941003,5551.544565,9252.574275,-1149.143247
565.941324,5551.544565,9104.533087,-1915.238745
565.941644,6143.709319,8364.327145,-842.705048
565.941965,5107.421000,6143.709319,459.657299
565.942285,3997.112087,5847.626942,229.828649
565.942606,4071.132681,6069.688724,689.485948
565.942927,5773.606348,9326.594869,-459.657299
565.943247,4737.318029,11103.089130,-1608.800546
565.943568,4811.338623,9696.697840,-995.924147
565.943888,6809.894666,9400.615463,536.266849
565.944209,3256.906145,8512.368333,-306.438199
565.944529,3256.906145,8512.368333,0.000000
565.944850,4515.256246,9474.636058,-383.047749
565.945171,4811.338623,10658.965565,-1608.800546
565.945491,1702.473667,9548.656652,-1225.752797
565.945812,3849.070898,7179.997637,-919.314598
565.946132,5699.585753,5625.565159,612.876398
565.946453,3330.926739,6143.709319,1685.410096
565.946773,3849.070898,7698.141797,1455.581446
565.947094,5995.668130,8734.430116,0.000000
565.947415,5625.565159,8068.244768,-1991.848295
565.947735,7698.141797,9474.636058,306.438199
565.948056,8290.306550,8586.388927,1302.362347
565.948376,6957.935855,8882.471304,-995.924147
565.948697,4737.318029,9104.533087,-2221.676944
565.949017,4367.215058,8882.471304,-3294.210641
565.949338,5773.606348,7105.977043,-1838.629195
565.949658,7254.018232,6883.915261,153.219100
565.949979,3923.091493,7550.100608,383.047749
565.950300,3256.906145,6513.812290,306.438199
565.950620,3997.112087,7105.977043,459.657299
565.950941,3256.906145,6883.915261,766.095498
565.951261,3552.988522,5773.606348,842.705048
565.951582,7920.203579,6439.791695,459.657299
565.951902,6439.791695,8512.368333,-1762.019645
565.952223,4145.153275,8660.409521,-1149.143247
565.952544,5773.606348,7476.080014,76.609550
565.952864,6513.812290,6069.688724,0.000000
565.953185,6513.812290,6143.709319,612.876398
565.953505,6217.729913,8142.265362,-383.047749
565.953826,5181.441594,9474.636058,-4519.963438
565.954146,4737.318029,10807.006753,-4136.915689
565.954467,3108.864956,9400.615463,-383.047749
565.954788,4737.318029,7698.141797,1838.629195
565.955108,4885.359217,6439.791695,3524.039291
565.955429,2294.638420,6291.750507,2451.505594
565.955749,888.247130,8808.450710,-1378.971896
565.956070,2812.782580,10214.842000,-2451.505594
565.956390,4737.318029,10807.006753,-689.485948
565.956711,4737.318029,9252.574275,2145.067394
565.957032,7105.977043,9696.697840,2834.553343
565.957352,4737.318029,10436.903782,-229.828649
565.957673,1702.473667,8882.471304,-2145.067394
565.957993,3182.885551,7846.182985,-2298.286494
565.958314,5403.503377,7624.121203,-919.314598
565.958634,5403.503377,7476.080014,1378.971896
565.958955,7772.162391,8586.388927,2528.115143
565.959275,7031.956449,7994.224174,1838.629195
565.959596,4663.297435,6809.894666,153.219100
565.959917,4367.215058,5847.626942,-689.485948
565.960237,7105.977043,7846.182985,-1532.190996
565.960558,6661.853478,8808.450710,-612.876398
565.960878,8660.409521,9104.533087,1991.848295
565.961199,9474.636058,8216.285956,1762.019645
565.961519,5329.482782,8586.388927,-1225.752797
565.961840,4515.256246,7328.038826,-842.705048
565.962161,3775.050304,6365.771101,-919.314598
565.962481,6217.729913,6735.874072,-1302.362347
565.962802,6513.812290,5847.626942,229.828649
565.963122,5699.585753,6809.894666,306.438199
565.963443,5107.421000,5921.647536,-1149.143247
565.963763,2812.782580,8068.244768,-306.438199
565.964084,2886.803174,8734.430116,0.000000
565.964405,5625.565159,8734.430116,-2068.457845
565.964725,5921.647536,8142.265362,-536.266849
565.965046,4959.379811,9770.718434,-842.705048
565.965366,4293.194464,10066.800811,153.219100
565.965687,3108.864956,9030.512492,0.000000
565.966007,2072.576638,7846.182985,-689.485948
565.966328,3108.864956,8734.430116,-459.657299
565.966649,3478.967927,8808.450710,-459.657299
565.966969,1554.432478,9992.780217,-306.438199
565.967290,2960.823768,8660.409521,766.095498
565.967610,4071.132681,7105.977043,1302.362347
565.967931,3627.009116,4811.338623,1225.752797
565.968251,3627.009116,4811.338623,612.876398
565.968572,4663.297435,7624.121203,153.219100
565.968892,5255.462188,8660.409521,-1302.362347
565.969213,7402.059420,9548.656652,-1915.238745
565.969534,9696.697840,9622.677246,-995.924147
565.969854,8882.471304,9770.718434,-1149.143247
565.970175,7031.956449,9770.718434,-1225.752797
565.970495,6069.688724,8586.388927,-1149.143247
565.970816,5921.647536,8364.327145,-1608.800546
565.971136,4145.153275,6661.853478,-2145.067394
565.971457,2812.782580,6513.812290,-1991.848295
565.971778,5551.544565,8882.471304,689.485948
565.972098,3923.091493,8512.368333,1991.848295
565.972419,1776.494261,6883.915261,689.485948
565.972739,4219.173869,5995.668130,-383.047749
565.973060,4737.318029,9252.574275,-383.047749
565.973380,3775.050304,11103.089130,-689.485948
565.973701,5773.606348,10955.047942,383.047749
565.974022,7031.956449,9326.594869,919.314598
565.974342,6439.791695,9030.512492,2221.676944
565.974663,4589.276840,9622.677246,2604.724693
565.974983,4441.235652,8290.306550,-1149.143247
565.975304,5255.462188,9474.636058,-2374.896044
565.975624,5255.462188,8808.450710,-1225.752797
565.975945,5551.544565,6735.874072,0.000000
565.976266,6957.935855,5181.441594,1532.190996
565.976586,4885.359217,5847.626942,1608.800546
565.976907,2664.741391,7031.956449,1455.581446
565.977227,4071.132681,7105.977043,459.657299
565.977548,5403.503377,6661.853478,-1072.533697
565.977868,7179.997637,7994.224174,-919.314598
565.978189,7105.977043,8808.450710,0.000000
565.978509,5995.668130,9326.594869,0.000000
565.978830,5477.523971,9696.697840,-919.314598
565.979151,5403.503377,9104.533087,-1302.362347
565.979471,5329.482782,7105.977043,-2221.676944
565.979792,6217.729913,5403.503377,-1762.019645
565.980112,4441.235652,6809.894666,0.000000
565.980433,4885.359217,6957.935855,306.438199
565.980753,6291.750507,6809.894666,0.000000
565.981074,4441.235652,6291.750507,-459.657299
565.981395,3997.112087,5773.606348,-612.876398
565.981715,6513.812290,7476.080014,0.000000
565.982036,5773.606348,9992.780217,-459.657299
565.982356,3478.967927,10140.821405,-1225.752797
565.982677,4515.256246,9400.615463,766.095498
565.982997,4663.297435,8956.491898,1378.971896
565.983318,2664.741391,9104.533087,1302.362347
565.983639,3034.844362,9178.553681,919.314598
565.983959,3404.947333,9844.739029,-2145.067394
565.984280,2590.720797,9252.574275,-2604.724693
565.984600,4293.194464,7402.059420,689.485948
565.984921,5477.523971,6291.750507,1149.143247
565.985241,5033.400406,5551.544565,1532.190996
565.985562,4293.194464,8216.285956,1302.362347
565.985882,3108.864956,9104.533087,-1608.800546
565.986203,3923.091493,8438.347739,-3600.648841
565.986524,6883.915261,9844.739029,-689.485948
565.986844,8882.471304,10140.821405,2451.505594
565.987165,7105.977043,9992.780217,1838.629195
565.987485,6661.853478,10140.821405,-1991.848295
565.987806,4959.379811,9844.739029,-3217.601092
565.988126,4441.235652,8142.265362,-2451.505594
565.988447,5477.523971,6587.832884,459.657299
565.988768,5773.606348,6217.729913,1149.143247
565.989088,6143.709319,6809.894666,1915.238745
565.989409,4441.235652,7846.182985,1149.143247
565.989729,3330.926739,6957.935855,-459.657299
565.990050,3775.050304,6809.894666,76.609550
565.990370,7031.956449,8290.306550,1225.752797
565.990691,6365.771101,7846.182985,536.266849
565.991012,6365.771101,6439.791695,306.438199
565.991332,5477.523971,7550.100608,229.828649
565.991653,5995.668130,10436.903782,0.000000
565.991973,4145.153275,10362.883188,-612.876398
565.992294,6661.853478,9178.553681,-2374.896044
565.992614,9178.553681,7698.141797,-2451.505594
565.992935,3775.050304,7254.018232,-1532.190996
565.993256,3997.112087,6661.853478,612.876398
565.993576,4071.132681,5403.503377,1838.629195
565.993897,3552.988522,4219.173869,1455.581446
565.994217,5995.668130,5847.626942,1532.190996
565.994538,5107.421000,8364.327145,-919.314598
565.994858,2590.720797,8734.430116,-2834.553343
565.995179,4441.235652,10658.965565,-153.219100
565.995499,6735.874072,10658.965565,3447.429741
565.995820,4885.359217,9474.636058,2221.676944
565.996141,4737.318029,7772.162391,919.314598
565.996461,3627.009116,7698.141797,-2221.676944
565.996782,1850.514855,9770.718434,-2834.553343
565.997102,3182.885551,9548.656652,0.000000
565.997423,4071.132681,8290.306550,1149.143247
565.997743,5107.421000,7328.038826,612.876398
565.998064,4737.318029,7328.038826,2451.505594
565.998385,666.185348,7031.956449,1072.533697
565.998705,1776.494261,6069.688724,-842.705048
565.999026,4811.338623,7105.977043,306.438199
565.999346,5403.503377,8438.347739,-306.438199
565.999667,6809.894666,8068.244768,-612.876398
565.999987,7328.038826,9400.615463,1532.190996
566.000308,5921.647536,9622.677246,229.828649
566.000629,4367.215058,8142.265362,-1378.971896
566.000949,6143.709319,7476.080014,-2451.505594
566.001270,6957.935855,7624.121203,-3753.867940
566.001590,5255.462188,7624.121203,-919.314598
566.001911,6587.832884,7698.141797,919.314598
566.002231,5625.565159,7105.977043,153.219100
566.002552,4071.132681,6661.853478,229.828649
566.002873,3923.091493,7254.018232,459.657299
566.003193,4959.379811,7105.977043,-1302.362347
566.003514,5477.523971,6883.915261,-2068.457845
566.003834,4515.256246,8512.368333,-76.609550
566.004155,5551.544565,8882.471304,1225.752797
566.004475,4663.297435,9030.512492,1915.238745
566.004796,4663.297435,9918.759623,0.000000
566.005117,6587.832884,9104.533087,-1302.362347
566.005437,4589.276840,9178.553681,-2451.505594
566.005758,5921.647536,8068.244768,-536.266849
566.006078,5255.462188,7698.141797,1072.533697
566.006399,5773.606348,5995.668130,689.485948
566.006720,6217.729913,5699.585753,0.000000
566.007040,6143.709319,7550.100608,0.000000
566.007361,3108.864956,8142.265362,-2221.676944
566.007682,5255.462188,9770.718434,-2681.334243
566.008002,5625.565159,9844.739029,-1455.581446
566.008323,6735.874072,10584.944971,842.705048
566.008644,5773.606348,8808.450710,3370.820191
566.008964,4737.318029,7550.100608,689.485948
566.009285,3108.864956,9104.533087,-2221.676944
566.009605,2738.761985,9474.636058,-1915.238745
566.009926,3478.967927,8734.430116,-689.485948
566.010247,5033.400406,7846.182985,76.609550
566.010567,6587.832884,8438.347739,2451.505594
566.010888,4811.338623,8512.368333,2604.724693
566.011209,2886.803174,6217.729913,842.705048
566.011529,3849.070898,5477.523971,-612.876398
566.011850,3627.009116,6291.750507,-612.876398
566.012170,6365.771101,8364.327145,-229.828649
566.012491,8586.388927,9400.615463,153.219100
566.012812,7105.977043,9104.533087,-842.705048
566.013132,5921.647536,8068.244768,-306.438199
566.013453,4663.297435,8586.388927,-612.876398
566.013774,4441.235652,7772.162391,-2374.896044
566.014094,4737.318029,7994.224174,-2145.067394
566.014415,7476.080014,7994.224174,-383.047749
566.014735,6291.750507,8660.409521,459.657299
566.015056,3923.091493,6883.915261,1302.362347
566.015377,3552.988522,5107.421000,1072.533697
566.015697,3627.009116,5403.503377,1225.752797
566.016018,3552.988522,6217.729913,2298.286494
566.016339,4885.359217,8142.265362,1072.533697
566.016659,5773.606348,7254.018232,-766.095498
566.016980,5699.585753,7994.224174,0.000000
566.017300,5551.544565,8808.450710,2298.286494
566.017621,5847.626942,10288.862594,612.876398
566.017942,5033.400406,9622.677246,-1838.629195
566.018262,4219.173869,6883.915261,-3217.601092
566.018583,5699.585753,7328.038826,-1991.848295
566.018904,4145.153275,8956.491898,459.657299
566.019224,3775.050304,8586.388927,459.657299
566.019545,4811.338623,7846.182985,76.609550
566.019866,5033.400406,7031.956449,76.609550
566.020186,3404.947333,6883.915261,842.705048
566.020507,3997.112087,8512.368333,1149.143247
566.020827,3478.967927,8586.388927,-612.876398
566.021148,4219.173869,8734.430116,-1072.533697
566.021469,5107.421000,8216.285956,1302.362347
566.021789,6809.894666,9400.615463,919.314598
566.022110,4737.318029,8290.306550,0.000000
566.022431,5107.421000,8438.347739,-1685.410096
566.022751,3478.967927,9622.677246,-3140.991542
566.023072,5329.482782,11103.089130,-459.657299
566.023392,6143.709319,8956.491898,612.876398
566.023713,6291.750507,7328.038826,1532.190996
566.024034,5625.565159,6957.935855,1608.800546
566.024354,3849.070898,7402.059420,1225.752797
566.024675,2960.823768,7105.977043,-383.047749
566.024996,4589.276840,7772.162391,-1455.581446
566.025316,6957.935855,9104.533087,-536.266849
566.025637,7550.100608,8142.265362,1072.533697
566.025957,6143.709319,6661.853478,1991.848295
566.026278,5847.626942,7550.100608,689.485948
566.026599,4071.132681,8586.388927,-1302.362347
566.026919,3404.947333,8808.450710,-2834.553343
566.027240,5699.585753,6809.894666,-2604.724693
566.027561,8512.368333,7698.141797,689.485948
566.027881,7105.977043,7476.080014,1915.238745
566.028202,5329.482782,5921.647536,-383.047749
566.028522,6143.709319,6513.812290,-2298.286494
566.028843,4219.173869,7772.162391,-995.924147
566.029164,5255.462188,7920.203579,153.219100
566.029484,6957.935855,7179.997637,536.266849
566.029805,7994.224174,7179.997637,0.000000
566.030126,4959.379811,8734.430116,536.266849
566.030446,3478.967927,8660.409521,536.266849
566.030767,2664.741391,10066.800811,-2145.067394
566.031087,2664.741391,9770.718434,-2451.505594
566.031408,3330.926739,8512.368333,-1762.019645
566.031729,5551.544565,7179.997637,76.609550
566.032049,2590.720797,7698.141797,1072.533697
566.032370,1850.514855,8068.244768,766.095498
566.032691,2960.823768,8142.265362,1302.362347
566.033011,2590.720797,7402.059420,1149.143247
566.033332,4219.173869,8660.409521,153.219100
566.033653,6365.771101,10955.047942,-842.705048
566.033973,4145.153275,9918.759623,-2374.896044
566.034294,4959.379811,9622.677246,-919.314598
566.034614,4885.359217,10140.821405,2145.067394
566.034935,5181.441594,9844.739029,1685.410096
566.035256,5107.421000,8290.306550,689.485948
566.035576,4589.276840,8290.306550,-2451.505594
566.035897,2960.823768,9696.697840,-2911.162892
566.036218,4367.215058,9770.718434,0.000000
566.036538,5921.647536,7328.038826,1991.848295
566.036859,5773.606348,4441.235652,1608.800546
566.037179,4071.132681,4441.235652,995.924147
566.037500,3256.906145,6883.915261,766.095498
566.037821,2664.741391,7476.080014,-1302.362347
566.038141,6587.832884,8734.430116,-1532.190996
566.038462,9326.594869,9104.533087,-995.924147
566.038783,8734.430116,9548.656652,-459.657299
566.039103,8660.409521,9252.574275,919.314598
566.039424,6365.771101,9474.636058,612.876398
566.039744,3923.091493,6661.853478,-1608.800546
566.040065,5551.544565,5255.462188,-1915.238745
566.040386,7402.059420,5255.462188,-995.924147
566.040706,6513.812290,6587.832884,153.219100
566.041027,5033.400406,6809.894666,842.705048
566.041348,5403.503377,6365.771101,383.047749
566.041668,4219.173869,5699.585753,-459.657299
566.041989,3701.029710,5625.565159,306.438199
566.042309,4737.318029,6217.729913,0.000000
566.042630,4885.359217,8364.327145,-1302.362347
566.042951,5107.421000,10807.006753,0.000000
566.043271,6217.729913,10584.944971,1838.629195
566.043592,5773.606348,9252.574275,229.828649
566.043913,4219.173869,8068.244768,-1302.362347
566.044233,2886.803174,9770.718434,-2298.286494
566.044554,3034.844362,9030.512492,-2298.286494
566.044875,3182.885551,7920.203579,-766.095498
566.045195,5255.462188,5995.668130,1149.143247
566.045516,4737.318029,6217.729913,995.924147
566.045836,2590.720797,7328.038826,229.828649
566.046157,2220.617826,8660.409521,-229.828649
566.046478,3849.070898,9326.594869,0.000000
566.046798,5329.482782,8956.491898,-612.876398
566.047119,7179.997637,9992.780217,-612.876398
566.047440,5403.503377,8956.491898,-153.219100
566.047760,5329.482782,9696.697840,306.438199
566.048081,4959.379811,11251.130318,0.000000
566.048401,4737.318029,10140.821405,-1532.190996
566.048722,3552.988522,7476.080014,-3064.381992
566.049043,4737.318029,7254.018232,-1991.848295
566.049363,5329.482782,7920.203579,229.828649
566.049684,4737.318029,6809.894666,2374.896044
566.050005,5403.503377,5995.668130,1149.143247
566.050325,4663.297435,5921.647536,-919.314598
566.050646,4663.297435,6291.750507,-459.657299
566.050966,5847.626942,9178.553681,0.000000
566.051287,7105.977043,10732.986159,-766.095498
566.051608,7105.977043,10066.800811,-1608.800546
566.051928,7994.224174,9844.739029,-689.485948
566.052249,7624.121203,8364.327145,-306.438199
566.052570,3627.009116,8808.450710,153.219100
566.052890,3478.967927,7994.224174,-689.485948
566.053211,4145.153275,7105.977043,-1608.800546
566.053531,4293.194464,7254.018232,-1455.581446
566.053852,4589.276840,7476.080014,459.657299
566.054173,4589.276840,6883.915261,1915.238745
566.054493,4219.173869,7031.956449,1302.362347
566.054814,3701.029710,5773.606348,842.705048
566.055135,4589.276840,6735.874072,0.000000
566.055455,6291.750507,8290.306550,-1302.362347
566.055776,5699.585753,9548.656652,-1608.800546
566.056097,7179.997637,9844.739029,-459.657299
566.056417,8808.450710,10436.903782,1149.143247
566.056738,6439.791695,9252.574275,0.000000
566.057058,3849.070898,6957.935855,-1991.848295
566.057379,3701.029710,6513.812290,-2221.676944
566.057700,3849.070898,9400.615463,-383.047749
566.058020,2516.700203,9400.615463,1072.533697
566.058341,4959.379811,6069.688724,2374.896044
566.058662,7402.059420,6513.812290,1685.410096
566.058982,2516.700203,7772.162391,76.609550
566.059303,962.267725,7846.182985,-459.657299
566.059623,3552.988522,7920.203579,-306.438199
566.059944,4441.235652,7328.038826,-536.266849
566.060265,6291.750507,8142.265362,1149.143247
566.060585,7698.141797,9844.739029,1532.190996
566.060906,4811.338623,10362.883188,-2528.115143
566.061227,4441.235652,11251.130318,-2298.286494
566.061547,4145.153275,10436.903782,-1302.362347
566.061868,5699.585753,8734.430116,-2145.067394
566.062188,3923.091493,6513.812290,-229.828649
566.062509,4145.153275,7254.018232,1302.362347
566.062830,4293.194464,9030.512492,1991.848295
566.063150,2072.576638,8956.491898,1225.752797
566.063471,1628.453072,7328.038826,76.609550
566.063792,4737.318029,7476.080014,76.609550
566.064112,5773.606348,8586.388927,1302.362347
566.064433,5403.503377,9474.636058,2068.457845
566.064753,4515.256246,7994.224174,229.828649
566.065074,5329.482782,7846.182985,-536.266849
566.065395,5255.462188,8216.285956,153.219100
566.065715,3701.029710,7476.080014,-306.438199
566.066036,6883.915261,7550.100608,-1378.971896
566.066357,8068.244768,7772.162391,-1378.971896
566.066677,4441.235652,7994.224174,-1225.752797
566.066998,7624.121203,8216.285956,0.000000
566.067319,5773.606348,6735.874072,689.485948
566.067639,4589.276840,5625.565159,-536.266849
566.067960,7105.977043,5699.585753,1225.752797
566.068280,6217.729913,7105.977043,76.609550
566.068601,5255.462188,7772.162391,-2757.943793
566.068922,8290.306550,8438.347739,0.000000
566.069242,6217.729913,7920.203579,0.000000
566.069563,5847.626942,7105.977043,0.000000
566.069884,4515.256246,7105.977043,153.219100
566.070204,4885.359217,8956.491898,-1685.410096
566.070525,3775.050304,8142.265362,-1455.581446
566.070845,4367.215058,6291.750507,-536.266849
566.071166,6291.750507,6883.915261,-383.047749
566.071487,4811.338623,7254.018232,842.705048
566.071807,3404.947333,8216.285956,1685.410096
566.072128,3775.050304,8808.450710,-612.876398
566.072449,3775.050304,7402.059420,-2374.896044
566.072769,6143.709319,9474.636058,-1302.362347
566.073090,6439.791695,9918.759623,536.266849
566.073410,4515.256246,9178.553681,0.000000
566.073731,4293.194464,10955.047942,536.266849
566.074052,3330.926739,11547.212695,536.266849
566.074372,2812.782580,9252.574275,0.000000
566.074693,2886.803174,7105.977043,-153.219100
566.075014,3182.885551,7105.977043,-1302.362347
566.075334,3182.885551,9326.594869,229.828649
566.075655,3108.864956,8290.306550,2068.457845
566.075975,2886.803174,7105.977043,1455.581446
566.076296,3923.091493,7772.162391,612.876398
566.076617,5255.462188,9400.615463,0.000000
566.076937,6291.750507,9992.780217,-919.314598
566.077258,6735.874072,10066.800811,-2068.457845
566.077579,7254.018232,9770.718434,-766.095498
566.077899,6143.709319,8290.306550,-612.876398
566.078220,5699.585753,8068.244768,-153.219100
566.078541,5107.421000,8438.347739,612.876398
566.078861,6143.709319,7994.224174,-1378.971896
566.079182,4663.297435,7254.018232,-2987.772442
566.079502,6365.771101,8586.388927,-2068.457845
566.079823,4959.379811,9030.512492,612.876398
566.080144,4441.235652,6883.915261,2681.334243
566.080464,5477.523971,4441.235652,2374.896044
566.080785,4737.318029,4811.338623,229.828649
566.081106,4219.173869,6143.709319,-842.705048
566.081426,6365.771101,7994.224174,-536.266849
566.081747,5403.503377,8290.306550,-842.705048
566.082067,6365.771101,9326.594869,459.657299
566.082388,7105.977043,10288.862594,2145.067394
566.082709,5921.647536,9548.656652,-229.828649
566.083029,3923.091493,7476.080014,-2298.286494
566.083350,5921.647536,6957.935855,-2221.676944
566.083671,4589.276840,6365.771101,-1378.971896
566.083991,4515.256246,6217.729913,995.924147
566.084312,6365.771101,6587.832884,2987.772442
566.084632,5477.523971,6587.832884,1762.019645
566.084953,3849.070898,6513.812290,-1378.971896
566.085274,5403.503377,7920.203579,-1302.362347
566.085594,5033.400406,7476.080014,-1072.533697
566.085915,5551.544565,7328.038826,-995.924147
566.086236,6883.915261,7698.141797,1991.848295
566.086556,6957.935855,9992.780217,2068.457845
566.086877,4367.215058,11399.171507,689.485948
566.087197,4071.132681,8660.409521,-995.924147
566.087518,4367.215058,8142.265362,-3830.477490
566.087839,5329.482782,7698.141797,-1915.238745
566.088159,4959.379811,7105.977043,612.876398
566.088480,5847.626942,6883.915261,2757.943793
566.088801,3775.050304,6365.771101,1991.848295
566.089121,3034.844362,7179.997637,842.705048
566.089442,2590.720797,7402.059420,-306.438199
566.089762,4737.318029,8290.306550,-1685.410096
566.090083,6217.729913,9326.594869,-766.095498
566.090404,4737.318029,9474.636058,-612.876398
566.090724,5329.482782,9474.636058,0.000000
566.091045,5107.421000,10288.862594,1302.362347
566.091366,3108.864956,9548.656652,306.438199
566.091686,3701.029710,8512.368333,-1685.410096
566.092007,6513.812290,9548.656652,-3140.991542
566.092328,5625.565159,10140.821405,-1149.143247
566.092648,4737.318029,8068.244768,842.705048
566.092969,7031.956449,5773.606348,2221.676944
566.093289,6069.688724,5181.441594,842.705048
566.093610,2664.741391,5403.503377,0.000000
566.093931,5625.565159,5921.647536,-383.047749
566.094251,5995.668130,6883.915261,-2451.505594
566.094572,5403.503377,8068.244768,-1149.143247
566.094893,7105.977043,10658.965565,1302.362347
566.095213,7402.059420,10510.924376,0.000000
566.095534,5477.523971,9326.594869,-842.705048
566.095854,6217.729913,9030.512492,-1302.362347
566.096175,3849.070898,7402.059420,-2987.772442
566.096496,4811.338623,7179.997637,-1608.800546
566.096816,5699.585753,8216.285956,2221.676944
566.097137,5551.544565,8586.388927,1762.019645
566.097458,4737.318029,7105.977043,229.828649
566.097778,4885.359217,7994.224174,-689.485948
566.098099,2590.720797,6661.853478,-1455.581446
566.098419,2812.782580,5847.626942,-459.657299
566.098740,5033.400406,7179.997637,1532.190996
566.099061,6365.771101,9104.533087,0.000000
566.099381,4811.338623,9770.718434,1225.752797
566.099702,5107.421000,9400.615463,995.924147
566.100023,4515.256246,10214.842000,-1991.848295
566.100343,4071.132681,10288.862594,-1072.533697
566.100664,4737.318029,9400.615463,-1378.971896
566.100984,6143.709319,7550.100608,0.000000
566.101305,5329.482782,6661.853478,1225.752797
566.101626,5773.606348,7254.018232,3447.429741
566.101946,4663.297435,5847.626942,1532.190996
566.102267,4071.132681,5477.523971,-1225.752797
566.102588,5329.482782,7105.977043,-1149.143247
566.102908,5773.606348,7179.997637,0.000000
566.103229,6883.915261,8512.368333,153.219100
566.103550,7550.100608,8660.409521,1072.533697
566.103870,6957.935855,8290.306550,153.219100
566.104189,6661.853478,8364.327145,-842.705048
566.104509,3997.112087,8586.388927,-1608.800546
566.104830,4885.359217,8734.430116,-2374.896044
566.105151,6809.894666,8808.450710,-229.828649
566.105471,5847.626942,8216.285956,919.314598
566.105792,5847.626942,6957.935855,1608.800546
566.106112,4293.194464,6291.750507,1532.190996
566.106433,4737.318029,5477.523971,-383.047749
566.106753,3849.070898,4737.318029,-229.828649
566.107074,3849.070898,5033.400406,-536.266849
566.107394,7031.956449,9400.615463,-229.828649
566.107715,5995.668130,10658.965565,0.000000
566.108035,4367.215058,8882.471304,-306.438199
566.108356,7624.121203,9474.636058,-153.219100
566.108676,4885.359217,9474.636058,0.000000
566.108997,2368.659014,8586.388927,-766.095498
566.109317,4441.235652,8068.244768,-689.485948
566.109638,5625.565159,9030.512492,-229.828649
566.109958,3775.050304,8808.450710,459.657299
566.110279,4959.379811,8142.265362,1838.629195
566.110599,3775.050304,7698.141797,-383.047749
566.110920,1184.329507,7179.997637,-1838.629195
566.111240,3256.906145,7994.224174,536.266849
566.111561,5403.503377,8734.430116,459.657299
566.111881,4071.132681,9548.656652,-766.095498
566.112202,4145.153275,7550.100608,995.924147
566.112522,5551.544565,9622.677246,0.000000
566.112843,3627.009116,11547.212695,-383.047749
566.113163,3182.885551,11103.089130,-536.266849
566.113484,5699.585753,9030.512492,-2374.896044
566.113804,6883.915261,8068.244768,-2221.676944
566.114125,5625.565159,8882.471304,536.266849
566.114445,5403.503377,7328.038826,1685.410096
566.114766,5403.503377,6291.750507,0.000000
566.115086,5477.523971,6513.812290,-306.438199
566.115407,5403.503377,6809.894666,153.219100
566.115727,5551.544565,7402.059420,-1149.143247
566.116048,6587.832884,9104.533087,-306.438199
566.116368,6291.750507,8956.491898,1149.143247
566.116689,5995.668130,7920.203579,919.314598
566.117009,5033.400406,8290.306550,-919.314598
566.117330,5181.441594,9548.656652,-1225.752797
566.117650,4071.132681,9474.636058,-1149.143247
566.117971,5255.462188,8512.368333,-1685.410096
566.118291,5921.647536,6883.915261,-766.095498
566.118612,6217.729913,6365.771101,1225.752797
566.118932,5847.626942,7254.018232,2528.115143
566.119253,4441.235652,5403.503377,689.485948
566.119573,2664.741391,3478.967927,-1608.800546
566.119894,5477.523971,6217.729913,-995.924147
566.120214,7846.182985,9326.594869,0.000000
566.120535,5551.544565,9030.512492,-766.095498
566.120855,7402.059420,7920.203579,-383.047749
566.121176,8364.327145,9030.512492,-612.876398
566.121496,4885.359217,9400.615463,-153.219100
566.121817,3404.947333,8216.285956,76.609550
566.122137,5625.565159,8512.368333,-1149.143247
566.122458,5995.668130,8068.244768,-2145.067394
566.122778,5847.626942,8364.327145,383.047749
566.123099,5625.565159,6661.853478,1685.410096
566.123420,3108.864956,5477.523971,-306.438199
566.123740,2738.761985,6809.894666,229.828649
566.124061,3923.091493,7402.059420,612.876398
566.124381,4071.132681,7772.162391,-306.438199
566.124702,4663.297435,7254.018232,-536.266849
566.125022,5181.441594,9178.553681,459.657299
566.125343,5033.400406,10658.965565,842.705048
566.125663,3552.988522,10807.006753,459.657299
566.125984,3182.885551,10214.842000,-229.828649
566.126304,4293.194464,8734.430116,-2757.943793
566.126625,4811.338623,9326.594869,-1149.143247
566.126945,3849.070898,8956.491898,1302.362347
566.127266,3108.864956,8142.265362,919.314598
566.127586,3775.050304,7994.224174,1915.238745
566.127907,3478.967927,6365.771101,536.266849
566.128227,3997.112087,5847.626942,306.438199
566.128548,3849.070898,7031.956449,-76.609550
566.128868,4071.132681,7920.203579,0.000000
566.129189,5847.626942,10140.821405,-306.438199
566.129509,5995.668130,10140.821405,-842.705048
566.129830,4145.153275,8956.491898,-995.924147
566.130150,7105.977043,8808.450710,229.828649
566.130471,5921.647536,9326.594869,229.828649
566.130791,2886.803174,8290.306550,-1378.971896
566.131112,5921.647536,8142.265362,-1991.848295
566.131432,6217.729913,8956.491898,-383.047749
566.131753,4219.173869,7994.224174,383.047749
566.132073,5033.400406,5995.668130,2374.896044
566.132394,4071.132681,4885.359217,536.266849
566.132714,2960.823768,6957.935855,-919.314598
566.133035,4071.132681,8882.471304,919.314598
566.133355,4441.235652,8586.388927,-995.924147
566.133676,6069.688724,9030.512492,-1378.971896
566.133996,6809.894666,8660.409521,2221.676944
566.134317,4959.379811,9474.636058,536.266849
566.134637,5773.606348,9326.594869,-919.314598
566.134958,4145.153275,7772.162391,-2834.553343
566.135278,4367.215058,6809.894666,-2757.943793
566.135599,6439.791695,7105.977043,612.876398
566.135919,6587.832884,8290.306550,2221.676944
566.136240,4737.318029,7698.141797,842.705048
566.136560,6365.771101,4885.359217,-612.876398
566.136881,5847.626942,5773.606348,-612.876398
566.137201,4441.235652,6217.729913,0.000000
566.137522,5181.441594,5995.668130,306.438199
566.137842,7476.080014,7105.977043,-76.609550
566.138163,7105.977043,8216.285956,-153.219100
566.138483,7254.018232,10214.842000,536.266849
566.138804,5625.565159,10288.862594,-1302.362347
566.139124,4071.132681,8290.306550,-3983.696590
566.139445,3997.112087,8734.430116,-2298.286494
566.139765,6143.709319,8512.368333,0.000000
566.140086,4219.173869,6735.874072,306.438199
566.140406,3923.091493,6143.709319,1762.019645
566.140727,2960.823768,8660.409521,1225.752797
566.141048,1776.494261,9474.636058,919.314598
566.141368,2442.679609,8586.388927,689.485948
566.141689,5477.523971,8438.347739,229.828649
566.142009,4737.318029,7994.224174,0.000000
566.142330,4811.338623,8956.491898,919.314598
566.142650,4071.132681,9326.594869,689.485948
566.142971,2368.659014,10214.842000,-689.485948
566.143291,4589.276840,10362.883188,-153.219100
566.143612,5625.565159,8956.491898,-995.924147
566.143932,4515.256246,8364.327145,-1991.848295
566.144253,5773.606348,9548.656652,-383.047749
566.144573,4885.359217,9104.533087,1149.143247
566.144894,3775.050304,7254.018232,0.000000
566.145214,5255.462188,5255.462188,919.314598
566.145535,5033.400406,5921.647536,306.438199
566.145855,5921.647536,7698.141797,-306.438199
566.146176,6809.894666,9326.594869,-1149.143247
566.146496,5921.647536,10436.903782,-1838.629195
566.146817,7328.038826,9326.594869,-383.047749
566.147137,7031.956449,8438.347739,1455.581446
566.147458,7031.956449,6809.894666,1378.971896
566.147778,4589.276840,5921.647536,-1302.362347
566.148099,2960.823768,5921.647536,-2604.724693
566.148419,4293.194464,9622.677246,-2451.505594
566.148740,4737.318029,9918.759623,-536.266849
566.149060,4811.338623,7994.224174,919.314598
566.149381,7698.141797,6957.935855,1762.019645
566.149701,3775.050304,5625.565159,229.828649
566.150022,1258.350101,6587.832884,-1302.362347
566.150342,2590.720797,7994.224174,-995.924147
566.150663,4737.318029,8364.327145,-1225.752797
566.150983,7476.080014,9474.636058,0.000000
566.151304,8734.430116,11251.130318,1532.190996
566.151624,3404.947333,10066.800811,-536.266849
566.151945,1258.350101,9104.533087,-2145.067394
566.152265,3404.947333,7402.059420,-306.438199
566.152586,4959.379811,6513.812290,-842.705048
566.152906,6365.771101,6291.750507,76.609550
566.153227,5551.544565,7328.038826,536.266849
566.153547,3478.967927,9696.697840,-612.876398
566.153868,2072.576638,9030.512492,229.828649
566.154188,4589.276840,7476.080014,229.828649
566.154509,6735.874072,6291.750507,-459.657299
566.154829,6439.791695,7772.162391,-1149.143247
566.155150,4737.318029,9918.759623,-1302.362347
566.155470,4811.338623,10362.883188,-1838.629195
566.155791,5699.585753,11029.068536,689.485948
566.156111,6439.791695,9844.739029,1532.190996
566.156432,5255.462188,7772.162391,-76.609550
566.156752,4145.153275,7031.956449,-2068.457845
566.157073,3330.926739,7994.224174,-1762.019645
566.157393,4515.256246,7476.080014,766.095498
566.157714,4219.173869,5403.503377,1532.190996
566.158034,5847.626942,5329.482782,612.876398
566.158355,6661.853478,7698.141797,383.047749
566.158676,5995.668130,9548.656652,76.609550
566.158996,6735.874072,9696.697840,-383.047749
566.159317,8142.265362,8142.265362,-306.438199
566.159637,8808.450710,7994.224174,0.000000
566.159958,9918.759623,7402.059420,995.924147
566.160278,6735.874072,5181.441594,0.000000
566.160599,6587.832884,3923.091493,-1455.581446
566.160919,7698.141797,4959.379811,-1072.533697
566.161240,6365.771101,6513.812290,-1532.190996
566.161560,6513.812290,6291.750507,-1225.752797
566.161881,11103.089130,6587.832884,1302.362347
566.162201,10362.883188,6513.812290,1838.629195
566.162522,6291.750507,4663.297435,1072.533697
566.162842,7402.059420,3552.988522,-689.485948
566.163163,7846.182985,4219.173869,-2221.676944
566.163483,7846.182985,6883.915261,-459.657299
566.163804,11769.274478,8290.306550,1532.190996
566.164124,10807.006753,8290.306550,306.438199
566.164445,7476.080014,7105.977043,-1532.190996
566.164765,6143.709319,6957.935855,-306.438199
566.165086,5477.523971,6143.709319,-459.657299
566.165406,5107.421000,4441.235652,0.000000
566.165727,6143.709319,2812.782580,2221.676944
566.166047,8512.368333,5033.400406,2068.457845
566.166368,5921.647536,7328.038826,919.314598
566.166688,5551.544565,8290.306550,76.609550
566.167009,7550.100608,7920.203579,-2221.676944
566.167329,9844.739029,4885.359217,-76.609550
566.167650,10658.965565,4071.132681,2145.067394
566.167970,11251.130318,3849.070898,2145.067394
566.168291,10436.903782,4737.318029,-153.219100
566.168611,10140.821405,5847.626942,-995.924147
566.168932,10436.903782,4145.153275,-919.314598
566.169252,13249.686362,3404.947333,-229.828649
566.169573,14804.118840,4515.256246,0.000000
566.169893,11843.295072,4071.132681,-1378.971896
566.170214,11769.274478,4367.215058,-1991.848295
566.170534,11769.274478,5255.462188,-306.438199
566.170855,10362.883188,3923.091493,919.314598
566.171175,10362.883188,3330.926739,459.657299
566.171496,11177.109724,4959.379811,-1225.752797
566.171816,9696.697840,7105.977043,-1915.238745
566.172137,8142.265362,6439.791695,-612.876398
566.172457,8512.368333,5107.421000,-383.047749
566.172778,9400.615463,5033.400406,0.000000
566.173098,6587.832884,6513.812290,612.876398
566.173419,6143.709319,7994.224174,229.828649
566.173739,6661.853478,7994.224174,0.000000
566.174060,7031.956449,6809.894666,766.095498
566.174380,7031.956449,6661.853478,2374.896044
566.174701,6809.894666,6809.894666,2145.067394
566.175021,7550.100608,8142.265362,1302.362347
566.175342,7846.182985,7402.059420,1838.629195
566.175662,7402.059420,3552.988522,689.485948
566.175983,10214.842000,1776.494261,-383.047749
566.176303,9844.739029,2738.761985,-306.438199
566.176624,10288.862594,4737.318029,536.266849
566.176945,11843.295072,7254.018232,612.876398
566.177265,13397.727550,6365.771101,-1225.752797
566.177586,13915.871710,3849.070898,-3217.601092
566.177906,13989.892304,2516.700203,-2757.943793
566.178227,12583.501014,3108.864956,-2451.505594
566.178547,12805.562797,5329.482782,-842.705048
566.178868,13397.727550,6883.915261,-995.924147
566.179188,13027.624579,6439.791695,-1762.019645
566.179509,10658.965565,5329.482782,-306.438199
566.179829,8364.327145,5033.400406,0.000000
566.180150,5107.421000,4663.297435,76.609550
566.180470,4811.338623,3478.967927,76.609550
566.180791,6587.832884,3478.967927,459.657299
566.181111,6883.915261,5255.462188,1608.800546
566.181432,5477.523971,7550.100608,1608.800546
566.181752,4367.215058,9696.697840,-766.095498
566.182073,3775.050304,9992.780217,-2221.676944
566.182393,7476.080014,10066.800811,229.828649
566.182714,8660.409521,8512.368333,2298.286494
566.183034,8586.388927,6661.853478,1608.800546
566.183355,7254.018232,6143.709319,1149.143247
566.183675,6513.812290,6809.894666,1915.238745
566.183996,6587.832884,5921.647536,1762.019645
566.184316,9474.636058,4367.215058,383.047749
566.184637,11843.295072,2442.679609,0.000000
566.184957,10732.986159,962.267725,689.485948
566.185278,11843.295072,1036.288319,2221.676944
566.185598,12139.377449,1998.556043,1915.238745
566.185919,12213.398043,3034.844362,-459.657299
566.186239,14434.015869,4515.256246,-2298.286494
566.186560,14804.118840,5847.626942,-3217.601092
566.186880,14508.036463,5847.626942,-3064.381992
566.187201,14656.077652,6513.812290,-1532.190996
566.187521,12879.583391,5625.565159,-2528.115143
566.187842,11029.068536,3997.112087,-2987.772442
566.188162,8512.368333,3701.029710,-2451.505594
566.188483,7846.182985,4367.215058,-689.485948
566.188803,7402.059420,5403.503377,919.314598
566.189124,4885.359217,4293.194464,1149.143247
566.189444,5847.626942,4219.173869,612.876398
566.189765,7105.977043,5181.441594,1149.143247
566.190085,5921.647536,7476.080014,1608.800546
566.190406,4959.379811,8882.471304,1149.143247
566.190726,5255.462188,8216.285956,459.657299
566.191047,6513.812290,7624.121203,536.266849
566.191367,6513.812290,6735.874072,1378.971896
566.191688,7624.121203,7254.018232,1378.971896
566.192008,8290.306550,7994.224174,842.705048
566.192329,7994.224174,7476.080014,612.876398
566.192649,8734.430116,5403.503377,536.266849
566.192970,10881.027347,3552.988522,612.876398
566.193290,11917.315666,2664.741391,153.219100
566.193611,12879.583391,3627.009116,0.000000
566.193931,13323.706956,3627.009116,-459.657299
566.194252,15100.201217,3404.947333,-383.047749
566.194573,16062.468941,2072.576638,-842.705048
566.194893,14804.118840,1480.411884,-1378.971896
566.195214,14137.933492,4219.173869,-2451.505594
566.195534,12435.459826,6957.935855,-2374.896044
566.195855,11991.336260,6809.894666,-1991.848295
566.196175,13693.809927,4589.276840,-1072.533697
566.196496,12509.480420,3182.885551,0.000000
566.196816,8290.306550,4589.276840,-612.876398
566.197137,5107.421000,5625.565159,-766.095498
566.197457,5033.400406,5551.544565,-536.266849
566.197778,6143.709319,5625.565159,536.266849
566.198098,7179.997637,5773.606348,1991.848295
566.198419,5995.668130,6735.874072,536.266849
566.198739,4071.132681,8660.409521,-1225.752797
566.199060,3775.050304,8956.491898,-536.266849
566.199380,4145.153275,8216.285956,919.314598
566.199701,6439.791695,7772.162391,2145.067394
566.200021,6809.894666,6217.729913,2757.943793
566.200342,6735.874072,6513.812290,1532.190996
566.200662,6809.894666,7846.182985,-383.047749
566.200983,7402.059420,6143.709319,-1149.143247
566.201303,9844.739029,4145.153275,-459.657299
566.201624,11843.295072,3182.885551,1685.410096
566.201944,11843.295072,3552.988522,1455.581446
566.202265,12583.501014,4293.194464,153.219100
566.202585,12361.439231,4071.132681,-2221.676944
566.202906,12435.459826,3404.947333,-2834.553343
566.203226,14508.036463,3108.864956,-1608.800546
566.203547,15470.304188,4663.297435,-1072.533697
566.203867,13471.748144,5773.606348,-1685.410096
566.204188,12139.377449,5921.647536,-1991.848295
566.204509,11473.192101,5477.523971,-1608.800546
566.204829,9770.718434,4663.297435,-1455.581446
566.205150,8512.368333,3552.988522,-306.438199
566.205470,9178.553681,4811.338623,-383.047749
566.205791,8734.430116,6365.771101,459.657299
566.206112,6661.853478,6439.791695,1455.581446
566.206432,5847.626942,5625.565159,689.485948
566.206753,6069.688724,5403.503377,153.219100
566.207073,6365.771101,6587.832884,1685.410096
566.207394,6587.832884,7624.121203,2604.724693
566.207715,6587.832884,7402.059420,1762.019645
566.208035,6809.894666,5995.668130,536.266849
566.208356,7105.977043,4293.194464,536.266849
566.208676,7920.203579,3775.050304,1532.190996
566.208997,8808.450710,5107.421000,919.314598
566.209318,9474.636058,5921.647536,-306.438199
566.209638,10658.965565,5255.462188,-1838.629195
566.209959,11621.233289,3552.988522,-1149.143247
566.210279,11843.295072,2812.782580,689.485948
566.210600,12361.439231,3034.844362,306.438199
566.210920,12139.377449,3627.009116,-1532.190996
566.211241,12287.418637,3627.009116,-2987.772442
566.211562,13027.624579,5107.421000,-3140.991542
566.211882,12805.562797,6809.894666,-1838.629195
566.212203,11473.192101,6439.791695,-766.095498
566.212523,10288.862594,5551.544565,-766.095498
566.212844,9326.594869,5403.503377,-1149.143247
566.213165,8068.244768,5107.421000,-842.705048
566.213485,7698.141797,4737.318029,-306.438199
566.213806,6957.935855,4441.235652,0.000000
566.214126,6809.894666,5255.462188,459.657299
566.214447,7105.977043,7179.997637,459.657299
566.214768,7254.018232,8512.368333,0.000000
566.215088,7031.956449,8956.491898,-383.047749
566.215409,7328.038826,7698.141797,1378.971896
566.215729,7254.018232,6735.874072,1991.848295
566.216050,7105.977043,6439.791695,2145.067394
566.216371,8142.265362,6513.812290,842.705048
566.216691,8808.450710,7105.977043,-612.876398
566.217012,8290.306550,7105.977043,-689.485948
566.217332,9252.574275,5551.544565,153.219100
566.217653,9770.718434,4367.215058,536.266849
566.217973,9770.718434,3923.091493,689.485948
566.218294,9474.636058,4515.256246,306.438199
566.218615,9992.780217,4737.318029,-306.438199
566.218935,10732.986159,4589.276840,-1378.971896
566.219256,11103.089130,4145.153275,-1072.533697
566.219576,10955.047942,5255.462188,-1302.362347
566.219897,10658.965565,6957.935855,-1608.800546
566.220218,10436.903782,7476.080014,-1685.410096
566.220538,10658.965565,7105.977043,-1225.752797
566.220859,10807.006753,5403.503377,-689.485948
566.221179,9400.615463,4219.173869,-229.828649
566.221500,8364.327145,2960.823768,0.000000
566.221821,7846.182985,2590.720797,0.000000
566.222141,8734.430116,2886.803174,0.000000
566.222462,9474.636058,3108.864956,76.609550
566.222782,9622.677246,3849.070898,0.000000
566.223103,9030.512492,5477.523971,0.000000
566.223424,8734.430116,6957.935855,-153.219100
566.223744,9104.533087,7920.203579,-306.438199
566.224065,9770.718434,7920.203579,-229.828649
566.224385,9918.759623,7994.224174,536.266849
566.224706,9104.533087,6513.812290,1455.581446
566.225027,7698.141797,5551.544565,1685.410096
566.225347,7105.977043,3997.112087,1915.238745
566.225668,7402.059420,2812.782580,2221.676944
566.225988,7772.162391,3256.906145,2145.067394
566.226309,8364.327145,3849.070898,995.924147
566.226629,8142.265362,4293.194464,-766.095498
566.226950,9178.553681,4367.215058,-1378.971896
566.227271,10362.883188,4737.318029,-1225.752797
566.227591,11177.109724,5995.668130,-1378.971896
566.227912,11695.253884,6957.935855,-2221.676944
566.228232,11769.274478,7920.203579,-2528.115143
566.228553,10807.006753,7846.182985,-1762.019645
566.228874,10584.944971,7624.121203,-536.266849
566.229194,10362.883188,6661.853478,0.000000
566.229515,9622.677246,5773.606348,0.000000
566.229835,9030.512492,5033.400406,153.219100
566.230156,8586.388927,3775.050304,612.876398
566.230477,8512.368333,2738.761985,1378.971896
566.230797,7994.224174,3034.844362,1455.581446
566.231118,7994.224174,5255.462188,1225.752797
566.231438,8216.285956,7994.224174,689.485948
566.231759,7698.141797,9474.636058,383.047749
566.232080,7254.018232,9474.636058,383.047749
566.232400,6291.750507,8882.471304,766.095498
566.232721,5181.441594,8364.327145,842.705048
566.233041,4589.276840,8290.306550,612.876398
566.233362,4663.297435,8216.285956,0.000000
566.233683,4811.338623,7624.121203,-383.047749
566.234003,4737.318029,7105.977043,229.828649
566.234324,4737.318029,7179.997637,995.924147
566.234644,4811.338623,7994.224174,2068.457845
566.234965,5255.462188,8512.368333,2528.115143
566.235285,5921.647536,8438.347739,1991.848295
566.235606,6143.709319,7994.224174,1455.581446
566.235927,6143.709319,7254.018232,1072.533697
566.236247,6143.709319,7550.100608,1762.019645
566.236568,6069.688724,8216.285956,2145.067394
566.236888,7179.997637,9104.533087,1455.581446
566.237209,7402.059420,9992.780217,1225.752797
566.237530,7031.956449,9548.656652,1915.238745
566.237850,7105.977043,9030.512492,2757.943793
566.238171,7624.121203,8660.409521,3447.429741
566.238491,6661.853478,8068.244768,3983.696590
566.238812,6735.874072,7698.141797,4519.963438
566.239133,8068.244768,8512.368333,5286.058936
566.239453,7698.141797,8734.430116,5975.544884
566.239774,6661.853478,9104.533087,6741.640382
566.240094,6661.853478,8956.491898,7507.735880
566.240415,6291.750507,9178.553681,7737.564530
566.240736,5995.668130,8586.388927,8044.002729
566.241056,5699.585753,7402.059420,8120.612279
566.241377,5329.482782,6365.771101,7507.735880
566.241697,4515.256246,5773.606348,7048.078582
566.242018,4145.153275,5847.626942,7507.735880
566.242339,5107.421000,6661.853478,6894.859482
566.242659,5477.523971,7624.121203,6281.983084
566.242980,5329.482782,8956.491898,6435.202183
566.243300,5403.503377,9696.697840,6358.592633
566.243621,5551.544565,9474.636058,7048.078582
566.243941,4811.338623,8586.388927,7660.954980
566.244262,5255.462188,7254.018232,8120.612279
566.244583,4663.297435,6587.832884,7814.174080
566.244903,3182.885551,5995.668130,7814.174080
566.245224,2516.700203,5995.668130,7431.126331
566.245544,2590.720797,5625.565159,7507.735880
566.245865,2812.782580,5403.503377,7431.126331
566.246186,2960.823768,6217.729913,8197.221829
566.246506,2886.803174,7031.956449,8350.440928
566.246827,2368.659014,7698.141797,8197.221829
566.247147,2590.720797,7105.977043,8273.831378
566.247468,3108.864956,6587.832884,7431.126331
566.247789,3034.844362,6439.791695,6894.859482
566.248109,3627.009116,6587.832884,6435.202183
566.248430,3330.926739,6217.729913,6205.373534
566.248750,3849.070898,5255.462188,5209.449386
566.249071,3552.988522,5255.462188,4673.182538
566.249392,3552.988522,5181.441594,4443.353888
566.249712,3330.926739,5477.523971,4519.963438
566.250033,4737.318029,6883.915261,4366.744339
566.250353,4811.338623,7179.997637,4136.915689
566.250674,5107.421000,7402.059420,3753.867940
566.250994,5921.647536,7698.141797,4213.525239
566.251315,5921.647536,8512.368333,4443.353888
566.251636,5181.441594,9104.533087,3907.087040
566.251956,5847.626942,9104.533087,3677.258390
566.252277,5773.606348,9104.533087,3983.696590
566.252597,4885.359217,8586.388927,4749.792088
566.252918,4071.132681,6957.935855,4136.915689
566.253239,3552.988522,5255.462188,2374.896044
566.253559,3330.926739,4737.318029,1072.533697
566.253880,3701.029710,4367.215058,383.047749
566.254200,4811.338623,5625.565159,-612.876398
566.254521,7179.997637,8660.409521,-1455.581446
566.254842,8216.285956,13027.624579,-1838.629195
566.255162,9326.594869,16284.530724,-1608.800546
566.255483,9696.697840,16876.695478,-229.828649
566.255803,8808.450710,15396.283594,1991.848295
566.256124,7624.121203,11843.295072,4519.963438
566.256445,6587.832884,9104.533087,6588.421283
566.256765,4885.359217,7550.100608,6511.811733
566.257086,2072.576638,7031.956449,4136.915689
566.257406,1628.453072,6809.894666,2834.553343
566.257727,2960.823768,6661.853478,2145.067394
566.258048,3997.112087,6217.729913,1762.019645
566.258368,6143.709319,7254.018232,2374.896044
566.258689,7772.162391,10881.027347,2681.334243
566.259009,7550.100608,13989.892304,995.924147
566.259330,6883.915261,14804.118840,229.828649
566.259650,8512.368333,15766.386565,612.876398
566.259971,10584.944971,16136.489536,689.485948
566.260292,9178.553681,15396.283594,3140.991542
566.260612,6587.832884,11251.130318,4596.572988
566.260933,6365.771101,8438.347739,6281.983084
566.261253,3108.864956,6365.771101,8044.002729
566.261574,1628.453072,5477.523971,7660.954980
566.261895,1924.535449,4811.338623,5898.935335
566.262215,3404.947333,5403.503377,4979.620737
566.262536,3552.988522,5107.421000,6894.859482
566.262856,5995.668130,5921.647536,8350.440928
566.263177,5995.668130,8438.347739,8273.831378
566.263498,4811.338623,11399.171507,6971.469032
566.263818,3775.050304,12361.439231,5515.887586
566.264139,5847.626942,11325.150913,3983.696590
566.264459,5625.565159,8586.388927,4366.744339
566.264780,4885.359217,5181.441594,7124.688131
566.265101,6735.874072,6439.791695,8810.098227
566.265421,4071.132681,8142.265362,9116.536426
566.265742,1184.329507,9178.553681,6741.640382
566.266062,2368.659014,6143.709319,6205.373534
566.266383,4441.235652,2368.659014,8350.440928
566.266704,2516.700203,-296.082377,10572.117872
566.267024,3701.029710,296.082377,10572.117872
566.267345,5625.565159,4663.297435,8427.050478
566.267665,4071.132681,9178.553681,7201.297681
566.267986,2442.679609,9992.780217,5669.106685
566.268306,4811.338623,8660.409521,5439.278036
566.268627,3997.112087,6809.894666,6971.469032
566.268948,740.205942,4219.173869,9499.584175
566.269268,3627.009116,5329.482782,10265.679673
566.269589,3108.864956,8290.306550,8733.488677
566.269909,1332.370696,9770.718434,6052.154434
566.270230,1998.556043,9030.512492,4903.011187
566.270551,4737.318029,7254.018232,4979.620737
566.270871,2738.761985,3997.112087,6511.811733
566.271192,2442.679609,1036.288319,7814.174080
566.271512,5551.544565,370.102971,7967.393179
566.271833,5773.606348,2960.823768,7660.954980
566.272154,3849.070898,6217.729913,5822.325785
566.272474,5403.503377,8290.306550,3064.381992
566.272795,6587.832884,10066.800811,2528.115143
566.273115,7254.018232,12361.439231,6128.763984
566.273436,7179.997637,11473.192101,7967.393179
566.273757,7105.977043,9178.553681,4366.744339
566.274077,5329.482782,8882.471304,1455.581446
566.274398,2738.761985,7698.141797,919.314598
566.274718,2368.659014,5329.482782,689.485948
566.275039,4737.318029,7105.977043,2681.334243
566.275359,4959.379811,11029.068536,4903.011187
566.275680,4515.256246,12509.480420,5515.887586
566.276001,5699.585753,12583.501014,4290.134789
566.276321,4589.276840,11547.212695,2834.553343
566.276642,3701.029710,10066.800811,3524.039291
566.276962,4959.379811,9400.615463,5362.668486
566.277283,6957.935855,9104.533087,5822.325785
566.277604,5477.523971,9474.636058,4903.011187
566.277924,5773.606348,9770.718434,3064.381992
566.278245,7105.977043,10288.862594,1072.533697
566.278565,6365.771101,9992.780217,1838.629195
566.278886,6143.709319,9030.512492,3524.039291
566.279207,9030.512492,8142.265362,3140.991542
566.279527,9326.594869,7624.121203,2374.896044
566.279848,7550.100608,8290.306550,2068.457845
566.280168,7846.182985,9548.656652,1685.410096
566.280489,9252.574275,11399.171507,229.828649
566.280810,8364.327145,11325.150913,842.705048
566.281130,8290.306550,9474.636058,2451.505594
566.281451,8808.450710,8734.430116,3064.381992
566.281771,6217.729913,9252.574275,3983.696590
566.282092,3478.967927,9326.594869,4596.572988
566.282413,2738.761985,8512.368333,2911.162892
566.282733,3034.844362,7179.997637,2528.115143
566.283054,4071.132681,7328.038826,5056.230287
566.283374,4589.276840,9474.636058,6818.249932
566.283695,1776.494261,11399.171507,4903.011187
566.284015,0.000000,10436.903782,4366.744339
566.284336,2590.720797,8882.471304,5209.449386
566.284657,5403.503377,8734.430116,7201.297681
566.284977,4515.256246,9844.739029,7584.345430
566.285298,3627.009116,11991.336260,6358.592633
566.285618,2368.659014,11769.274478,5439.278036
566.285939,1776.494261,8734.430116,6358.592633
566.286260,3997.112087,4589.276840,8427.050478
566.286580,5107.421000,2664.741391,8580.269578
566.286901,4589.276840,4071.132681,6665.030833
566.287221,3256.906145,6143.709319,5439.278036
566.287542,4589.276840,5625.565159,3983.696590
566.287863,8068.244768,5255.462188,5056.230287
566.288183,10584.944971,6809.894666,7660.954980
566.288504,10362.883188,9696.697840,7507.735880
566.288824,8586.388927,11843.295072,5975.544884
566.289145,5625.565159,10807.006753,5745.716235
566.289466,5107.421000,5551.544565,7277.907231
566.289786,7105.977043,2590.720797,9422.974625
566.290107,5329.482782,3849.070898,8810.098227
566.290427,370.102971,4885.359217,5669.106685
566.290748,-444.123565,4959.379811,2987.772442
566.291069,2294.638420,4589.276840,3217.601092
566.291389,3627.009116,4959.379811,6511.811733
566.291710,3627.009116,6217.729913,9193.145976
566.292030,2368.659014,9104.533087,7507.735880
566.292351,1258.350101,9918.759623,5515.887586
566.292671,2072.576638,9400.615463,5592.497135
566.292992,4071.132681,8216.285956,6435.202183
566.293313,5107.421000,8364.327145,6894.859482
566.293633,2516.700203,8512.368333,6052.154434
566.293954,2294.638420,8512.368333,4060.306139
566.294274,2812.782580,7105.977043,3524.039291
566.294595,2886.803174,6587.832884,5056.230287
566.294916,2590.720797,4515.256246,6665.030833
566.295236,4367.215058,5699.585753,5669.106685
566.295557,3701.029710,7179.997637,3677.258390
566.295877,4367.215058,8586.388927,2834.553343
566.296198,6587.832884,7105.977043,2911.162892
566.296519,9030.512492,7105.977043,2451.505594
566.296839,8660.409521,9178.553681,2528.115143
566.297160,7698.141797,10955.047942,2374.896044
566.297480,8290.306550,10288.862594,1762.019645
566.297801,8734.430116,9252.574275,3370.820191
566.298122,8142.265362,8956.491898,4903.011187
566.298442,7920.203579,10066.800811,4673.182538
566.298763,6883.915261,9178.553681,2374.896044
566.299083,5847.626942,7328.038826,1532.190996
566.299404,5773.606348,6661.853478,2681.334243
566.299725,6735.874072,7698.141797,4136.915689
566.300045,4441.235652,7846.182985,4213.525239
566.300366,4293.194464,7698.141797,4366.744339
566.300686,5625.565159,9992.780217,3217.601092
566.301007,6587.832884,13323.706956,2528.115143
566.301327,4441.235652,12583.501014,3294.210641
566.301648,5847.626942,11843.295072,4060.306139
566.301969,6809.894666,13027.624579,4979.620737
566.302289,5033.400406,13397.727550,5515.887586
566.302610,2886.803174,10066.800811,3600.648841
566.302930,4219.173869,7402.059420,1762.019645
566.303251,4737.318029,6439.791695,3677.258390
566.303572,2072.576638,4219.173869,4673.182538
566.303892,3478.967927,3923.091493,2068.457845
566.304213,5255.462188,5625.565159,76.609550
566.304533,5033.400406,8512.368333,766.095498
566.304854,7105.977043,9030.512492,1608.800546
566.305175,8808.450710,9030.512492,536.266849
566.305495,7254.018232,9030.512492,306.438199
566.305816,6143.709319,7994.224174,995.924147
566.306136,6957.935855,5995.668130,995.924147
566.306457,5329.482782,4145.153275,383.047749
566.306778,5773.606348,6217.729913,1378.971896
566.307098,6291.750507,7920.203579,1302.362347
566.307419,4219.173869,8808.450710,76.609550
566.307740,3627.009116,9474.636058,-459.657299
566.308060,2738.761985,7550.100608,689.485948
566.308381,2960.823768,4811.338623,2834.553343
566.308702,4071.132681,4811.338623,5362.668486
566.309022,3034.844362,7179.997637,4596.572988
566.309343,0.000000,7328.038826,1608.800546
566.309664,2812.782580,8364.327145,306.438199
566.309984,4071.132681,9326.594869,1378.971896
566.310305,4441.235652,10066.800811,3753.867940
566.310625,5033.400406,10362.883188,4443.353888
566.310946,3997.112087,9400.615463,2221.676944
566.311267,2368.659014,6957.935855,1762.019645
566.311587,3478.967927,5329.482782,2221.676944
566.311908,5107.421000,5625.565159,1149.143247
566.312229,5107.421000,8290.306550,919.314598
566.312549,6291.750507,10807.006753,1302.362347
566.312870,7772.162391,10584.944971,383.047749
566.313191,6809.894666,7772.162391,1378.971896
566.313511,6291.750507,5033.400406,3294.210641
566.313832,4219.173869,4145.153275,1685.410096
566.314153,4811.338623,6439.791695,0.000000
566.314473,5477.523971,9400.615463,-1225.752797
566.314794,6143.709319,10288.862594,-2911.162892
566.315115,6439.791695,8808.450710,-2604.724693
566.315435,7402.059420,9474.636058,-306.438199
566.315756,5625.565159,9400.615463,0.000000
566.316076,2368.659014,8290.306550,-766.095498
566.316397,3775.050304,7624.121203,-842.705048
566.316718,7031.956449,8586.388927,459.657299
566.317038,5699.585753,9992.780217,1302.362347
566.317359,3182.885551,7772.162391,919.314598
566.317680,2590.720797,5921.647536,-1532.190996
566.318000,5033.400406,7105.977043,-1149.143247
566.318321,5625.565159,8216.285956,766.095498
566.318642,4071.132681,6809.894666,-689.485948
566.318962,6513.812290,8216.285956,-2834.553343
566.319283,5847.626942,11029.068536,-842.705048
566.319604,5477.523971,10066.800811,919.314598
566.319924,6809.894666,7698.141797,1302.362347
566.320245,6883.915261,7402.059420,536.266849
566.320566,5921.647536,9474.636058,-153.219100
566.320886,4959.379811,9696.697840,-1685.410096
566.321207,3182.885551,6587.832884,-3830.477490
566.321528,5255.462188,5033.400406,-1915.238745
566.321848,7476.080014,5699.585753,383.047749
566.322169,7105.977043,7846.182985,-1915.238745
566.322489,4515.256246,7920.203579,-5362.668486
566.322810,5255.462188,10066.800811,-4903.011187
566.323131,7179.997637,11251.130318,-1532.190996
566.323451,6587.832884,8068.244768,1532.190996
566.323772,6365.771101,7772.162391,1455.581446
566.324093,6587.832884,9548.656652,-306.438199
566.324413,3997.112087,9474.636058,-995.924147
566.324734,2886.803174,7698.141797,-3064.381992
566.325055,3849.070898,6513.812290,-4519.963438
566.325375,3775.050304,6957.935855,-2145.067394
566.325696,3997.112087,9178.553681,1685.410096
566.326017,4515.256246,10436.903782,3217.601092
566.326337,3404.947333,13101.645173,1455.581446
566.326658,2072.576638,11177.109724,153.219100
566.326979,1850.514855,6809.894666,0.000000
566.327299,4367.215058,5773.606348,459.657299
566.327620,4663.297435,7846.182985,2298.286494
566.327940,3182.885551,8586.388927,-766.095498
566.328261,4071.132681,7105.977043,-3983.696590
566.328582,4663.297435,5181.441594,-3064.381992
566.328902,4663.297435,4071.132681,-995.924147
566.329223,7624.121203,5625.565159,-689.485948
566.329544,8142.265362,8068.244768,-2451.505594
566.329864,7402.059420,10658.965565,-2374.896044
566.330185,9548.656652,13101.645173,-919.314598
566.330506,8660.409521,10214.842000,-306.438199
566.330826,6291.750507,5329.482782,-1302.362347
566.331147,7550.100608,4885.359217,-1608.800546
566.331468,6365.771101,7105.977043,-1532.190996
566.331788,2368.659014,6291.750507,-2987.772442
566.332109,2368.659014,5699.585753,-1991.848295
566.332430,6217.729913,8438.347739,1149.143247
566.332750,4737.318029,9622.677246,3064.381992
566.333071,2220.617826,9400.615463,1685.410096
566.333391,444.123565,7476.080014,-2604.724693
566.333712,1036.288319,5699.585753,-2068.457845
566.334033,4441.235652,5625.565159,3217.601092
566.334353,4663.297435,6291.750507,2834.553343
566.334674,4663.297435,9400.615463,-919.314598
566.334995,5995.668130,13989.892304,-3140.991542
566.335315,4885.359217,13545.768739,-3447.429741
566.335636,3923.091493,10214.842000,0.000000
566.335957,6661.853478,8586.388927,4060.306139
566.336277,7105.977043,9548.656652,3370.820191
566.336598,3478.967927,7846.182985,-153.219100
566.336919,2886.803174,7105.977043,-2374.896044
566.337239,4959.379811,7179.997637,-1302.362347
566.337560,4959.379811,6957.935855,1915.238745
566.337881,4145.153275,5921.647536,3140.991542
566.338201,5995.668130,7254.018232,0.000000
566.338522,5033.400406,7772.162391,-1838.629195
566.338843,5699.585753,6957.935855,76.609550
566.339163,7550.100608,7920.203579,383.047749
566.339484,8512.368333,11251.130318,-766.095498
566.339804,5403.503377,11769.274478,-306.438199
566.340125,5847.626942,10732.986159,612.876398
566.340446,7920.203579,9770.718434,919.314598
566.340766,5625.565159,7994.224174,1149.143247
566.341087,3182.885551,5403.503377,-842.705048
566.341408,3701.029710,5181.441594,-1532.190996
566.341728,4145.153275,7254.018232,1149.143247
566.342049,3256.906145,6439.791695,2451.505594
566.342370,1554.432478,3182.885551,-842.705048
566.342690,2738.761985,5477.523971,-2145.067394
566.343011,3330.926739,8956.491898,1838.629195
566.343332,4589.276840,8808.450710,1225.752797
566.343652,7476.080014,10288.862594,-3524.039291
566.343973,6365.771101,12065.356855,-4366.744339
566.344294,4663.297435,11251.130318,-842.705048
566.344614,5625.565159,8660.409521,2604.724693
566.344935,5625.565159,7476.080014,3064.381992
566.345255,2960.823768,5699.585753,153.219100
566.345576,4145.153275,4737.318029,-2451.505594
566.345897,5551.544565,6883.915261,-2221.676944
566.346217,2738.761985,7624.121203,689.485948
566.346538,3923.091493,7105.977043,1532.190996
566.346859,6661.853478,4737.318029,-2221.676944
566.347179,4145.153275,3552.988522,-3677.258390
566.347500,4071.132681,6587.832884,-1149.143247
566.347821,7105.977043,9770.718434,-612.876398
566.348141,8364.327145,11547.212695,-2145.067394
566.348462,5403.503377,11769.274478,-2911.162892
566.348783,7179.997637,11547.212695,-2604.724693
566.349103,7550.100608,10362.883188,0.000000
566.349424,5625.565159,10288.862594,2834.553343
566.349745,4811.338623,9696.697840,612.876398
566.350065,4367.215058,7105.977043,-3217.601092
566.350386,3256.906145,5699.585753,-2451.505594
566.350706,3256.906145,5033.400406,1378.971896
566.351027,4515.256246,4145.153275,2834.553343
566.351348,5107.421000,4071.132681,1302.362347
566.351668,4071.132681,7105.977043,-1991.848295
566.351989,3552.988522,11473.192101,-2451.505594
566.352310,7624.121203,13471.748144,-1225.752797
566.352630,7846.182985,13397.727550,-153.219100
566.352951,7328.038826,12731.542202,-1149.143247
566.353272,5551.544565,11177.109724,-1455.581446
566.353592,3701.029710,7402.059420,0.000000
566.353913,2664.741391,5551.544565,383.047749
566.354234,3108.864956,6809.894666,383.047749
566.354554,3627.009116,8586.388927,-995.924147
566.354875,1924.535449,7476.080014,-2911.162892
566.355196,3923.091493,6957.935855,-1685.410096
566.355516,4737.318029,4737.318029,0.000000
566.355837,6069.688724,4441.235652,612.876398
566.356157,6587.832884,6957.935855,-229.828649
566.356478,5107.421000,10584.944971,-2068.457845
566.356799,7328.038826,12065.356855,-842.705048
566.357119,8808.450710,12731.542202,-612.876398
566.357440,6735.874072,10658.965565,-1378.971896
566.357761,5403.503377,7550.100608,0.000000
566.358081,5329.482782,6217.729913,2374.896044
566.358402,2886.803174,5995.668130,2068.457845
566.358723,2368.659014,7031.956449,-995.924147
566.359043,5477.523971,7920.203579,-2451.505594
566.359364,4367.215058,7476.080014,-842.705048
566.359685,1628.453072,5551.544565,612.876398
566.360005,5477.523971,4885.359217,3294.210641
566.360326,5773.606348,5329.482782,2987.772442
566.360647,5921.647536,8882.471304,1378.971896
566.360967,5625.565159,11843.295072,-995.924147
566.361288,4663.297435,11251.130318,-2987.772442
566.361609,5921.647536,9918.759623,-2298.286494
566.361929,7920.203579,9178.553681,229.828649
566.362250,5625.565159,6883.915261,2681.334243
566.362570,5625.565159,9326.594869,3294.210641
566.362891,3627.009116,10436.903782,229.828649
566.363212,1554.432478,8216.285956,-1685.410096
566.363532,2886.803174,4959.379811,-229.828649
566.363853,5625.565159,5255.462188,1378.971896
566.364174,1554.432478,5847.626942,919.314598
566.364494,3923.091493,6513.812290,2757.943793
566.364815,6217.729913,7698.141797,2834.553343
566.365136,5033.400406,9030.512492,229.828649
566.365456,4663.297435,10584.944971,229.828649
566.365777,4737.318029,12065.356855,-153.219100
566.366098,5181.441594,9770.718434,-459.657299
566.366418,5477.523971,5773.606348,1685.410096
566.366739,5921.647536,5033.400406,1838.629195
566.367060,5329.482782,5847.626942,0.000000
566.367380,3256.906145,8068.244768,-995.924147
566.367701,4145.153275,7920.203579,-2757.943793
566.368021,4737.318029,7624.121203,-4443.353888
566.368342,5403.503377,5477.523971,-995.924147
566.368663,7105.977043,4515.256246,4826.401637
566.368983,7105.977043,5699.585753,5132.839837
566.369304,5403.503377,7698.141797,0.000000
566.369625,4071.132681,9992.780217,-5286.058936
566.369945,5551.544565,9992.780217,-4290.134789
566.370266,7105.977043,8956.491898,1915.238745
566.370587,7624.121203,9770.718434,4903.011187
566.370907,6217.729913,9696.697840,1455.581446
566.371228,2516.700203,8142.265362,-3294.210641
566.371549,1258.350101,5847.626942,-4136.915689
566.371869,3256.906145,4885.359217,-1072.533697
566.372190,4885.359217,6883.915261,1225.752797
566.372511,5477.523971,7994.224174,536.266849
566.372831,4737.318029,8734.430116,-3064.381992
566.373152,4293.194464,7920.203579,-1915.238745
566.373472,6143.709319,9178.553681,612.876398
566.373793,8142.265362,10881.027347,153.219100
566.374114,7698.141797,12657.521608,-919.314598
566.374434,5921.647536,13471.748144,-153.219100
566.374755,5625.565159,10955.047942,1455.581446
566.375076,5477.523971,7550.100608,1685.410096
566.375396,2220.617826,4959.379811,1838.629195
566.375717,3034.844362,5847.626942,306.438199
566.376038,3182.885551,7698.141797,-2528.115143
566.376358,3034.844362,7846.182985,-2451.505594
566.376679,4737.318029,6957.935855,-612.876398
566.377000,6069.688724,6513.812290,383.047749
566.377320,4737.318029,7476.080014,536.266849
566.377641,4293.194464,9770.718434,-842.705048
566.377962,7105.977043,12435.459826,-1762.019645
566.378282,9030.512492,13249.686362,-1838.629195
566.378603,7846.182985,11695.253884,-536.266849
566.378924,5847.626942,9104.533087,1685.410096
566.379244,4367.215058,8438.347739,1225.752797
566.379565,3997.112087,9030.512492,2221.676944
566.379885,3256.906145,6883.915261,842.705048
566.380206,3552.988522,4885.359217,-1149.143247
566.380527,3775.050304,5773.606348,383.047749
566.380847,2886.803174,6957.935855,2451.505594
566.381168,3552.988522,4589.276840,2451.505594
566.381489,6143.709319,4811.338623,0.000000
566.381809,4145.153275,5181.441594,-1762.019645
566.382130,5551.544565,7624.121203,-1608.800546
566.382451,8068.244768,10140.821405,-383.047749
566.382771,7698.141797,12065.356855,-1149.143247
566.383092,7550.100608,12953.603985,-1072.533697
566.383413,9178.553681,11917.315666,-383.047749
566.383733,6365.771101,7920.203579,536.266849
566.384054,1998.556043,5255.462188,3677.258390
566.384375,3552.988522,5107.421000,3830.477490
566.384695,2590.720797,4589.276840,-229.828649
566.385016,1332.370696,4515.256246,-919.314598
566.385336,3478.967927,4515.256246,0.000000
566.385657,4737.318029,3478.967927,1149.143247
566.385978,4515.256246,4145.153275,1685.410096
566.386298,2812.782580,7994.224174,-766.095498
566.386619,4737.318029,11177.109724,-3600.648841
566.386940,6735.874072,11843.295072,-2374.896044
566.387260,8882.471304,12509.480420,229.828649
566.387581,9400.615463,13545.768739,689.485948
566.387902,5403.503377,10510.924376,536.266849
566.388222,3478.967927,8364.327145,1302.362347
566.388543,2664.741391,6513.812290,1378.971896
566.388864,3478.967927,6439.791695,1532.190996
566.389184,4515.256246,4663.297435,-153.219100
566.389505,1776.494261,3552.988522,-2145.067394
566.389826,888.247130,2812.782580,-1532.190996
566.390146,3478.967927,4737.318029,2451.505594
566.390467,7402.059420,7254.018232,4213.525239
566.390787,6883.915261,10214.842000,0.000000
566.391108,6735.874072,14211.954086,-2911.162892
566.391429,7105.977043,17764.942608,-1608.800546
566.391749,7179.997637,15840.407159,0.000000
566.392070,6957.935855,9474.636058,766.095498
566.392391,8068.244768,5033.400406,1225.752797
566.392711,3775.050304,3108.864956,766.095498
566.393032,888.247130,5995.668130,536.266849
566.393353,2738.761985,9400.615463,-995.924147
566.393673,3627.009116,8216.285956,-842.705048
566.393994,6809.894666,7254.018232,459.657299
566.394315,7254.018232,6661.853478,2374.896044
566.394635,4737.318029,5255.462188,2221.676944
566.394956,3627.009116,6439.791695,766.095498
566.395277,5847.626942,9696.697840,-1378.971896
566.395597,5847.626942,10807.006753,-3524.039291
566.395918,7105.977043,11917.315666,-2451.505594
566.396239,9400.615463,11991.336260,-689.485948
566.396559,4737.318029,9400.615463,459.657299
566.396880,4293.194464,7772.162391,2451.505594
566.397200,2590.720797,7402.059420,919.314598
566.397521,2590.720797,7031.956449,-1685.410096
566.397842,3997.112087,6365.771101,-459.657299
566.398162,5699.585753,5403.503377,0.000000
566.398483,3108.864956,3182.885551,-1302.362347
566.398804,3627.009116,3552.988522,229.828649
566.399124,6957.935855,6735.874072,1378.971896
566.399445,6957.935855,9400.615463,0.000000
566.399766,5773.606348,10140.821405,-3294.210641
566.400086,6513.812290,10288.862594,-3830.477490
566.400407,4811.338623,9104.533087,-1302.362347
566.400728,4663.297435,7476.080014,3524.039291
566.401048,7476.080014,8586.388927,3600.648841
566.401369,3627.009116,8882.471304,-1991.848295
566.401690,3478.967927,10510.924376,-4213.525239
566.402010,3552.988522,8808.450710,-2068.457845
566.402331,4737.318029,5255.462188,229.828649
566.402651,3182.885551,3552.988522,2298.286494
566.402972,3627.009116,3923.091493,76.609550
566.403293,5033.400406,5847.626942,-536.266849
566.403613,5255.462188,8290.306550,689.485948
566.403934,4367.215058,8956.491898,-306.438199
566.404255,7920.203579,11103.089130,-2451.505594
566.404575,7698.141797,13323.706956,-2451.505594
566.404896,4293.194464,11621.233289,536.266849
566.405217,5995.668130,8364.327145,1991.848295
566.405537,9178.553681,8882.471304,1225.752797
566.405858,3775.050304,8290.306550,0.000000
566.406179,740.205942,6883.915261,-1149.143247
566.406499,4737.318029,8586.388927,0.000000
566.406820,5403.503377,8364.327145,766.095498
566.407141,3330.926739,4663.297435,612.876398
566.407461,6439.791695,4441.235652,-919.314598
566.407782,4737.318029,6513.812290,-842.705048
566.408102,2590.720797,8882.471304,919.314598
566.408423,5995.668130,11325.150913,-689.485948
566.408744,9104.533087,11991.336260,-2757.943793
566.409064,6957.935855,12509.480420,-766.095498
566.409385,5699.585753,11473.192101,2068.457845
566.409706,5033.400406,9252.574275,995.924147
566.410026,4737.318029,7105.977043,0.000000
566.410347,3627.009116,6069.688724,612.876398
566.410668,4367.215058,5699.585753,76.609550
566.410988,3552.988522,5773.606348,1378.971896
566.411309,3552.988522,6439.791695,1991.848295
566.411630,2812.782580,4071.132681,-766.095498
566.411950,4811.338623,2368.659014,-2221.676944
566.412271,7105.977043,6587.832884,229.828649
566.412592,6661.853478,10436.903782,1608.800546
566.412912,7476.080014,12361.439231,-612.876398
566.413233,7179.997637,12361.439231,-3217.601092
566.413554,5477.523971,9992.780217,-3447.429741
566.413874,4663.297435,5403.503377,-153.219100
566.414195,7772.162391,5033.400406,995.924147
566.414516,5403.503377,6809.894666,-306.438199
566.414836,1332.370696,7550.100608,-2987.772442
566.415157,4367.215058,8216.285956,-3140.991542
566.415478,4441.235652,7550.100608,-842.705048
566.415798,1850.514855,5181.441594,1991.848295
566.416119,4885.359217,4737.318029,1072.533697
566.416440,5773.606348,5699.585753,-689.485948
566.416760,3552.988522,8068.244768,-536.266849
566.417081,3775.050304,9474.636058,689.485948
566.417402,6661.853478,9104.533087,-1838.629195
566.417722,4885.359217,8956.491898,-3217.601092
566.418043,4441.235652,9400.615463,-766.095498
566.418364,5699.585753,10140.821405,0.000000
566.418684,4885.359217,9844.739029,0.000000
566.419005,5329.482782,10955.047942,0.000000
566.419326,4737.318029,9918.759623,-1915.238745
566.419646,1924.535449,7328.038826,-2681.334243
566.419967,2368.659014,6143.709319,-766.095498
566.420288,3256.906145,4811.338623,76.609550
566.420608,6217.729913,4959.379811,995.924147
566.420929,6735.874072,8290.306550,919.314598
566.421250,6439.791695,11917.315666,-1072.533697
566.421570,6069.688724,14804.118840,-1685.410096
566.421891,6809.894666,14211.954086,-689.485948
566.422212,6883.915261,9622.677246,919.314598
566.422532,5329.482782,5773.606348,2145.067394
566.422853,4737.318029,7105.977043,2374.896044
566.423174,3330.926739,8882.471304,-919.314598
566.423494,3256.906145,8586.388927,-2221.676944
566.423815,5995.668130,9474.636058,-2221.676944
566.424136,4959.379811,8882.471304,-1532.190996
566.424456,3404.947333,6735.874072,0.000000
566.424777,4663.297435,6069.688724,1915.238745
566.425098,6217.729913,7254.018232,1991.848295
566.425418,5403.503377,8882.471304,536.266849
566.425739,5477.523971,9326.594869,-1378.971896
566.426060,7254.018232,9474.636058,-1991.848295
566.426380,7031.956449,10288.862594,689.485948
566.426701,5847.626942,9252.574275,2911.162892
566.427022,6661.853478,7920.203579,536.266849
566.427342,4219.173869,6735.874072,-1685.410096
566.427663,2516.700203,5107.421000,306.438199
566.427984,3627.009116,2960.823768,459.657299
566.428304,5255.462188,3330.926739,-306.438199
566.428625,4367.215058,6069.688724,0.000000
566.428946,3182.885551,6883.915261,-842.705048
566.429266,4811.338623,7698.141797,-1455.581446
566.429587,4441.235652,6661.853478,-612.876398
566.429908,7105.977043,8364.327145,-229.828649
566.430228,7328.038826,9844.739029,-1302.362347
566.430549,3330.926739,9992.780217,-2374.896044
566.430870,4367.215058,9178.553681,-1225.752797
566.431190,5329.482782,9178.553681,919.314598
566.431511,4071.132681,7105.977043,2068.457845
566.431832,4071.132681,7179.997637,995.924147
566.432152,4367.215058,8142.265362,-76.609550
566.432473,1776.494261,6661.853478,-383.047749
566.432794,1702.473667,3404.947333,-306.438199
566.433114,4589.276840,1776.494261,229.828649
566.433435,3849.070898,3775.050304,-459.657299
566.433755,3997.112087,8142.265362,-1225.752797
566.434076,5921.647536,12065.356855,-2681.334243
566.434397,7402.059420,13471.748144,-4903.011187
566.434717,9844.739029,13915.871710,-2451.505594
566.435038,8660.409521,14137.933492,-459.657299
566.435359,4737.318029,10584.944971,1072.533697
566.435679,3404.947333,8364.327145,2068.457845
566.436000,4293.194464,6587.832884,1225.752797
566.436321,3108.864956,3923.091493,-689.485948
566.436641,3034.844362,4737.318029,-536.266849
566.436962,3552.988522,7846.182985,229.828649
566.437283,2664.741391,7994.224174,-153.219100
566.437603,3108.864956,5921.647536,-766.095498
566.437924,6439.791695,5403.503377,-1302.362347
566.438245,6291.750507,8438.347739,-689.485948
566.438565,5847.626942,13323.706956,612.876398
566.438886,7328.038826,16062.468941,-1915.238745
566.439207,7179.997637,15692.365970,-4903.011187
566.439527,6661.853478,12805.562797,-2145.067394
566.439848,6439.791695,8512.368333,2298.286494
566.440169,6439.791695,6365.771101,3370.820191
566.440489,3552.988522,7624.121203,2298.286494
566.440810,2590.720797,7772.162391,-1532.190996
566.441131,2590.720797,5773.606348,-3600.648841
566.441451,4293.194464,4737.318029,306.438199
566.441772,4811.338623,4441.235652,4903.011187
566.442093,6883.915261,4515.256246,3753.867940
566.442413,5847.626942,6883.915261,-1225.752797
566.442734,4737.318029,10140.821405,-3217.601092
566.443055,5255.462188,10584.944971,-1991.848295
566.443375,9474.636058,10584.944971,153.219100
566.443696,8808.450710,11399.171507,153.219100
566.444017,4663.297435,10658.965565,-1225.752797
566.444337,3775.050304,8882.471304,-2068.457845
566.444658,4959.379811,6883.915261,306.438199
566.444979,3997.112087,6217.729913,2834.553343
566.445299,3775.050304,7105.977043,2145.067394
566.445620,2590.720797,5403.503377,-1991.848295
566.445941,2368.659014,5995.668130,-2987.772442
566.446261,2368.659014,4663.297435,1532.190996
566.446582,5477.523971,3182.885551,3447.429741
566.446903,6735.874072,4071.132681,1685.410096
566.447223,5477.523971,10362.883188,76.609550
566.447544,3997.112087,14359.995275,-1378.971896
566.447865,6143.709319,12657.521608,-1838.629195
566.448185,6809.894666,7550.100608,-689.485948
566.448506,3775.050304,4367.215058,536.266849
566.448827,4145.153275,4515.256246,1838.629195
566.449147,5255.462188,8216.285956,2604.724693
566.449468,1776.494261,9696.697840,-459.657299
566.449789,3923.091493,9104.533087,-1378.971896
566.450109,5181.441594,6365.771101,-2221.676944
566.450430,2812.782580,3108.864956,-766.095498
566.450751,2072.576638,2960.823768,1991.848295
566.451071,6735.874072,6735.874072,2604.724693
566.451392,7994.224174,10732.986159,536.266849
566.451713,2664.741391,10214.842000,-2221.676944
566.452033,4145.153275,10288.862594,-2834.553343
566.452354,6143.709319,10140.821405,-919.314598
566.452675,4737.318029,9474.636058,1915.238745
566.452995,6365.771101,9178.553681,229.828649
566.453316,4293.194464,9622.677246,-3524.039291
566.453637,3552.988522,9918.759623,-2834.553343
566.453957,4885.359217,10140.821405,2145.067394
566.454278,4589.276840,7994.224174,1455.581446
566.454599,3627.009116,6291.750507,-2068.457845
566.454919,3701.029710,7179.997637,-1302.362347
566.455240,5033.400406,7846.182985,2068.457845
566.455561,4737.318029,7105.977043,4366.744339
566.455881,8586.388927,8290.306550,4366.744339
566.456202,8142.265362,10881.027347,-383.047749
566.456523,3108.864956,10955.047942,-3294.210641
566.456843,4515.256246,10881.027347,-766.095498
566.457164,7476.080014,9844.739029,2834.553343
566.457485,8290.306550,7550.100608,2451.505594
566.457805,7179.997637,8364.327145,-153.219100
566.458126,5847.626942,8882.471304,-3677.258390
566.458447,3330.926739,6439.791695,-3983.696590
566.458767,5329.482782,5403.503377,-1149.143247
566.459088,6661.853478,4441.235652,689.485948
566.459409,6735.874072,5181.441594,1608.800546
566.459729,7179.997637,7920.203579,1455.581446
566.460050,7179.997637,9992.780217,-1225.752797
566.460371,6069.688724,10288.862594,-2604.724693
566.460691,7994.224174,9992.780217,-995.924147
566.461012,6217.729913,8660.409521,536.266849
566.461333,3923.091493,6735.874072,3294.210641
566.461653,4145.153275,8438.347739,4443.353888
566.461974,3182.885551,8216.285956,459.657299
566.462294,1332.370696,5625.565159,-1149.143247
566.462615,666.185348,5033.400406,-536.266849
566.462936,1924.535449,5995.668130,-459.657299
566.463256,1924.535449,6143.709319,306.438199
566.463577,3108.864956,7476.080014,0.000000
566.463898,5255.462188,8660.409521,-1302.362347
566.464218,3849.070898,9474.636058,-459.657299
566.464539,4885.359217,10066.800811,1225.752797
566.464860,7476.080014,11621.233289,536.266849
566.465180,5847.626942,9770.718434,-306.438199
566.465501,5329.482782,7550.100608,1072.533697
566.465822,5995.668130,7624.121203,1608.800546
566.466142,4293.194464,7105.977043,1608.800546
566.466463,3627.009116,5995.668130,1838.629195
566.466784,4441.235652,4885.359217,383.047749
566.467104,3108.864956,3849.070898,-2757.943793
566.467425,1406.391290,4145.153275,-2451.505594
566.467746,5107.421000,5107.421000,842.705048
566.468066,6661.853478,7328.038826,1225.752797
566.468387,6365.771101,9178.553681,-1378.971896
566.468708,7624.121203,13323.706956,-3600.648841
566.469028,6957.935855,14063.912898,-3447.429741
566.469349,7105.977043,12583.501014,-842.705048
566.469670,8438.347739,9844.739029,1991.848295
566.469990,4885.359217,5773.606348,689.485948
566.470311,3849.070898,5329.482782,-612.876398
566.470632,3108.864956,7846.182985,76.609550
566.470952,3256.906145,7994.224174,1225.752797
566.471273,3256.906145,6809.894666,1225.752797
566.471594,3775.050304,5255.462188,-995.924147
566.471914,2442.679609,3330.926739,-3217.601092
566.472235,3478.967927,2886.803174,-383.047749
566.472556,6661.853478,7105.977043,842.705048
566.472876,5995.668130,10658.965565,-1838.629195
566.473197,5699.585753,11621.233289,-3983.696590
566.473518,8660.409521,13841.851115,-4979.620737
566.473838,8216.285956,14656.077652,-2911.162892
566.474159,5995.668130,12361.439231,1685.410096
566.474480,6661.853478,10436.903782,1378.971896
566.474800,4885.359217,7328.038826,-1455.581446
566.475121,1924.535449,6069.688724,-1225.752797
566.475442,4737.318029,5995.668130,1685.410096
566.475762,5551.544565,7254.018232,1302.362347
566.476083,1110.308913,6883.915261,-383.047749
566.476404,2886.803174,4885.359217,306.438199
566.476724,6809.894666,5921.647536,689.485948
566.477045,5699.585753,7920.203579,1991.848295
566.477366,4737.318029,9326.594869,2221.676944
566.477686,7031.956449,12065.356855,-2987.772442
566.478007,7179.997637,14656.077652,-4673.182538
566.478328,4219.173869,13619.789333,-842.705048
566.478648,7105.977043,11769.274478,4519.963438
566.478969,9918.759623,11103.089130,4213.525239
566.479290,2072.576638,8142.265362,995.924147
566.479610,444.123565,5847.626942,-2221.676944
566.479931,2516.700203,4515.256246,-3217.601092
566.480252,2886.803174,4071.132681,842.705048
566.480572,4589.276840,4071.132681,4673.182538
566.480893,7994.224174,5625.565159,3064.381992
566.481214,6587.832884,8142.265362,76.609550
566.481534,3849.070898,9622.677246,76.609550
566.481855,5107.421000,8438.347739,-919.314598
566.482176,8734.430116,8068.244768,-1455.581446
566.482496,7105.977043,8512.368333,0.000000
566.482817,5329.482782,8216.285956,153.219100
566.483138,6291.750507,9030.512492,-842.705048
566.483458,5995.668130,9992.780217,766.095498
566.483779,1998.556043,8512.368333,76.609550
566.484100,2220.617826,5625.565159,-1072.533697
566.484420,4293.194464,4959.379811,-383.047749
566.484741,1628.453072,4515.256246,2681.334243
566.485062,2812.782580,3552.988522,2604.724693
566.485382,5625.565159,4145.153275,1225.752797
566.485703,3775.050304,5995.668130,-383.047749
566.486024,4367.215058,9104.533087,-536.266849
566.486344,7105.977043,10807.006753,-2145.067394
566.486665,7550.100608,8882.471304,-1455.581446
566.486986,6143.709319,7402.059420,919.314598
566.487306,5551.544565,6587.832884,1991.848295
566.487627,5329.482782,7624.121203,766.095498
566.487948,2664.741391,8882.471304,0.000000
566.488268,5921.647536,10288.862594,-306.438199
566.488589,6143.709319,9474.636058,-1302.362347
566.488910,3108.864956,7105.977043,-229.828649
566.489230,2368.659014,4663.297435,383.047749
566.489551,3997.112087,3256.906145,0.000000
566.489872,4959.379811,3256.906145,1378.971896
566.490192,4515.256246,6957.935855,-229.828649
566.490513,5107.421000,10214.842000,-3753.867940
566.490833,6365.771101,12731.542202,-3370.820191
566.491154,7105.977043,13989.892304,536.266849
566.491475,8068.244768,13767.830521,2068.457845
566.491795,6809.894666,10881.027347,-229.828649
566.492116,4441.235652,7105.977043,-3370.820191
566.492437,4515.256246,7105.977043,-3370.820191
566.492757,2960.823768,7402.059420,-1225.752797
566.493078,4737.318029,8290.306550,383.047749
566.493399,5477.523971,9104.533087,-919.314598
566.493719,4441.235652,6513.812290,-1378.971896
566.494040,3849.070898,5033.400406,-306.438199
566.494361,5551.544565,6217.729913,1838.629195
566.494681,3997.112087,7105.977043,76.609550
566.495002,5403.503377,9474.636058,-3370.820191
566.495323,9474.636058,13915.871710,-4519.963438
566.495643,6809.894666,14211.954086,-3064.381992
566.495964,5773.606348,11029.068536,919.314598
566.496285,9104.533087,10140.821405,2528.115143
566.496605,3775.050304,9030.512492,459.657299
566.496926,888.247130,7105.977043,-459.657299
566.497247,3849.070898,6069.688724,-2451.505594
566.497567,4515.256246,5773.606348,-2221.676944
566.497888,2664.741391,5847.626942,995.924147
566.498209,3923.091493,5995.668130,919.314598
566.498529,4959.379811,7550.100608,-2145.067394
566.498850,3256.906145,9400.615463,-612.876398
566.499171,5773.606348,11325.150913,1225.752797
566.499491,7402.059420,10807.006753,-689.485948
566.499812,4737.318029,10807.006753,-612.876398
566.500133,6069.688724,12287.418637,1915.238745
566.500453,6217.729913,11325.150913,1991.848295
566.500774,5107.421000,7328.038826,2834.553343
566.501095,4071.132681,5329.482782,1608.800546
566.501415,2368.659014,4737.318029,-1072.533697
566.501736,2368.659014,4959.379811,-306.438199
566.502057,3923.091493,6439.791695,842.705048
566.502377,5181.441594,5625.565159,612.876398
566.502698,6587.832884,5107.421000,1455.581446
566.503019,5995.668130,6291.750507,1608.800546
566.503339,4737.318029,7920.203579,306.438199
566.503660,5551.544565,10288.862594,-383.047749
566.503981,7772.162391,11029.068536,-919.314598
566.504301,7772.162391,9918.759623,-2528.115143
566.504622,5033.400406,7254.018232,-612.876398
566.504943,4441.235652,5181.441594,2374.896044
566.505263,5255.462188,5551.544565,2604.724693
566.505584,2442.679609,6143.709319,1072.533697
566.505905,3330.926739,7402.059420,-2987.772442
566.506225,3849.070898,7254.018232,-3830.477490
566.506546,3108.864956,6069.688724,0.000000
566.506867,2886.803174,2294.638420,3140.991542
566.507187,6809.894666,2886.803174,3753.867940
566.507508,5033.400406,6957.935855,459.657299
566.507829,1480.411884,10066.800811,-4136.915689
566.508149,4959.379811,11251.130318,-5822.325785
566.508470,7105.977043,11547.212695,-2451.505594
566.508790,5847.626942,9992.780217,1991.848295
566.509111,6735.874072,7920.203579,2528.115143
566.509431,7031.956449,9326.594869,-842.705048
566.509752,1406.391290,9622.677246,-2451.505594
566.510072,666.185348,9252.574275,-1608.800546
566.510393,5625.565159,7105.977043,-229.828649
566.510713,6439.791695,6587.832884,1991.848295
566.511034,2738.761985,5699.585753,3064.381992
566.511355,4959.379811,4959.379811,-153.219100
566.511675,4589.276840,5921.647536,-842.705048
566.511996,4737.318029,9178.553681,842.705048
566.512316,7105.977043,13027.624579,229.828649
566.512637,11029.068536,15618.345376,-919.314598
566.512957,9252.574275,15396.283594,-1225.752797
566.513278,5181.441594,11399.171507,-612.876398
566.513598,5847.626942,7105.977043,842.705048
566.513919,5847.626942,4589.276840,3370.820191
566.514239,3849.070898,5255.462188,2451.505594
566.514560,5477.523971,8290.306550,-1302.362347
566.514880,4441.235652,11325.150913,-5745.716235
566.515201,2960.823768,9178.553681,-3294.210641
566.515522,5033.400406,7105.977043,2604.724693
566.515842,8734.430116,5403.503377,5592.497135
566.516163,5477.523971,6217.729913,1915.238745
566.516483,3552.988522,9474.636058,-3983.696590
566.516804,4515.256246,11103.089130,-5822.325785
566.517124,4959.379811,11103.089130,-1838.629195
566.517445,7105.977043,9474.636058,2451.505594
566.517765,8068.244768,7994.224174,1762.019645
566.518086,5255.462188,6661.853478,383.047749
566.518406,3330.926739,7105.977043,-995.924147
566.518727,1184.329507,7402.059420,-1915.238745
566.519047,2368.659014,6217.729913,153.219100
566.519368,4145.153275,4811.338623,1378.971896
566.519688,4959.379811,4515.256246,306.438199
566.520009,3108.864956,4737.318029,-1532.190996
566.520330,3552.988522,5477.523971,-766.095498
566.520650,4885.359217,6809.894666,-842.705048
566.520971,4589.276840,7772.162391,-2068.457845
566.521291,5033.400406,9474.636058,-3064.381992
566.521612,6661.853478,12139.377449,-2911.162892
566.521932,5625.565159,10066.800811,-459.657299
566.522253,5773.606348,6735.874072,3140.991542
566.522573,5995.668130,5995.668130,2298.286494
566.522894,3775.050304,7402.059420,-1302.362347
566.523214,1998.556043,7994.224174,-2528.115143
566.523535,4441.235652,7476.080014,-1532.190996
566.523855,7105.977043,7031.956449,919.314598
566.524176,4071.132681,4737.318029,2528.115143
566.524497,3256.906145,3552.988522,1762.019645
566.524817,4589.276840,6661.853478,0.000000
566.525138,4737.318029,11843.295072,153.219100
566.525458,5625.565159,14211.954086,383.047749
566.525779,7328.038826,13619.789333,-1608.800546
566.526099,6217.729913,12583.501014,306.438199
566.526420,4071.132681,11399.171507,4749.792088
566.526740,4663.297435,8216.285956,4136.915689
566.527061,2812.782580,6143.709319,-689.485948
566.527381,2960.823768,7031.956449,-2068.457845
566.527702,4219.173869,7698.141797,0.000000
566.528022,4737.318029,7920.203579,0.000000
566.528343,5033.400406,6883.915261,-383.047749
566.528664,6883.915261,7254.018232,2298.286494
566.528984,7698.141797,8142.265362,2757.943793
566.529305,7105.977043,7994.224174,536.266849
566.529625,5995.668130,10288.862594,-1991.848295
566.529946,7772.162391,11251.130318,-1915.238745
566.530266,8290.306550,9474.636058,-2451.505594
566.530587,7550.100608,6661.853478,-1378.971896
566.530907,5773.606348,5477.523971,766.095498
566.531228,4737.318029,7105.977043,1608.800546
566.531548,4737.318029,8364.327145,306.438199
566.531869,2146.597232,7920.203579,-842.705048
566.532189,2812.782580,5921.647536,-1302.362347
566.532510,5107.421000,4885.359217,-612.876398
566.532831,3108.864956,2960.823768,0.000000
566.533151,3034.844362,3478.967927,1608.800546
566.533472,5181.441594,8734.430116,459.657299
566.533792,4515.256246,11695.253884,-3217.601092
566.534113,3997.112087,11103.089130,-3677.258390
566.534433,6439.791695,11399.171507,-1991.848295
566.534754,6661.853478,9400.615463,306.438199
566.535074,3775.050304,6957.935855,3217.601092
566.535395,3997.112087,7105.977043,2834.553343
566.535715,2146.597232,7624.121203,-1225.752797
566.536036,1554.432478,6439.791695,-3907.087040
566.536356,3478.967927,4737.318029,-1762.019645
566.536677,5477.523971,6365.771101,-766.095498
566.536998,4441.235652,6513.812290,536.266849
566.537318,4811.338623,6513.812290,1072.533697
566.537639,5699.585753,8142.265362,0.000000
566.537959,6365.771101,10658.965565,1455.581446
566.538280,6365.771101,10881.027347,1149.143247
566.538600,7994.224174,9992.780217,-1762.019645
566.538921,7328.038826,10658.965565,-2987.772442
566.539241,5107.421000,8290.306550,-842.705048
566.539562,7624.121203,6809.894666,689.485948
566.539882,6439.791695,8216.285956,-383.047749
566.540203,5107.421000,10658.965565,-919.314598
566.540523,3256.906145,10288.862594,-1685.410096
566.540844,4885.359217,8068.244768,-2451.505594
566.541164,4959.379811,7105.977043,1072.533697
566.541485,5033.400406,6365.771101,4136.915689
566.541806,5921.647536,5403.503377,2757.943793
566.542126,4737.318029,8586.388927,306.438199
566.542447,3256.906145,10066.800811,-2374.896044
566.542767,5625.565159,10658.965565,-2528.115143
566.543088,6661.853478,9992.780217,-459.657299
566.543408,4737.318029,9030.512492,2681.334243
566.543729,4737.318029,11251.130318,2987.772442
566.544049,5033.400406,10658.965565,383.047749
566.544370,2664.741391,8438.347739,-2451.505594
566.544690,2442.679609,6587.832884,-1762.019645
566.545011,4737.318029,6809.894666,-306.438199
566.545331,4145.153275,6291.750507,0.000000
566.545652,3108.864956,5921.647536,-306.438199
566.545973,5329.482782,6957.935855,153.219100
566.546293,4959.379811,6883.915261,229.828649
566.546614,4219.173869,7031.956449,536.266849
566.546934,5847.626942,9770.718434,0.000000
566.547255,6735.874072,11177.109724,612.876398
566.547575,7105.977043,9326.594869,1915.238745
566.547896,7920.203579,7105.977043,1608.800546
566.548216,6143.709319,6809.894666,689.485948
566.548537,2812.782580,6587.832884,1455.581446
566.548857,3849.070898,6291.750507,1532.190996
566.549178,3849.070898,3552.988522,-383.047749
566.549498,3182.885551,1628.453072,-919.314598
566.549819,5033.400406,2664.741391,-536.266849
566.550140,5551.544565,6365.771101,-1762.019645
566.550460,5107.421000,9400.615463,-2528.115143
566.550781,5625.565159,11695.253884,-2834.553343
566.551101,8512.368333,10955.047942,-1455.581446
566.551422,8512.368333,10955.047942,1225.752797
566.551742,6291.750507,10436.903782,2987.772442
566.552063,4441.235652,8956.491898,1225.752797
566.552383,3701.029710,7105.977043,-1302.362347
566.552704,3552.988522,5403.503377,-689.485948
566.553024,3775.050304,5033.400406,1378.971896
566.553345,2812.782580,5551.544565,1532.190996
566.553665,2664.741391,7550.100608,612.876398
566.553986,-222.061783,6809.894666,-1762.019645
566.554307,1332.370696,4737.318029,-2298.286494
566.554627,6513.812290,6439.791695,-76.609550
566.554948,6661.853478,9696.697840,612.876398
566.555268,5107.421000,13027.624579,-1378.971896
566.555589,7105.977043,15840.407159,-3370.820191
566.555909,6513.812290,14582.057057,-4673.182538
566.556230,5699.585753,10955.047942,-1455.581446
566.556550,6069.688724,6809.894666,1455.581446
566.556871,6809.894666,6365.771101,1225.752797
566.557191,2960.823768,8142.265362,1838.629195
566.557512,2590.720797,8882.471304,1685.410096
566.557832,4293.194464,7179.997637,229.828649
566.558153,3552.988522,5773.606348,76.609550
566.558473,3034.844362,4663.297435,612.876398
566.558794,5329.482782,4663.297435,-536.266849
566.559115,7105.977043,7254.018232,-612.876398
566.559435,6439.791695,11251.130318,-459.657299
566.559756,5403.503377,11251.130318,-2757.943793
566.560076,8438.347739,12213.398043,-4060.306139
566.560397,7328.038826,13619.789333,-2221.676944
566.560717,4811.338623,12213.398043,153.219100
