#time,accel_x,accel_y,accel_z
516.400833,4959.379811,7994.224174,0.000000
516.401154,4885.359217,8216.285956,0.000000
516.401474,4811.338623,7920.203579,0.000000
516.401795,5107.421000,8068.244768,76.609550
516.402115,4959.379811,8142.265362,-536.266849
516.402436,4959.379811,7994.224174,-536.266849
516.402757,5033.400406,8216.285956,0.000000
516.403077,4959.379811,8068.244768,-766.095498
516.403398,5033.400406,8068.244768,-229.828649
516.403718,4737.318029,8364.327145,-76.609550
516.404039,4885.359217,7920.203579,-612.876398
516.404360,4885.359217,8216.285956,-383.047749
516.404680,4811.338623,8216.285956,0.000000
516.405001,5033.400406,8068.244768,0.000000
516.405321,4959.379811,7994.224174,0.000000
516.405642,4737.318029,8142.265362,0.000000
516.405962,4737.318029,8216.285956,153.219100
516.406283,4959.379811,7920.203579,306.438199
516.406604,4959.379811,7994.224174,0.000000
516.406924,5107.421000,8068.244768,-306.438199
516.407245,4959.379811,8216.285956,-459.657299
516.407565,5033.400406,8068.244768,-229.828649
516.407886,4885.359217,8142.265362,0.000000
516.408207,5033.400406,8142.265362,-536.266849
516.408527,4959.379811,8216.285956,0.000000
516.408848,5181.441594,8142.265362,-306.438199
516.409168,4811.338623,8512.368333,0.000000
516.409489,5181.441594,7846.182985,229.828649
516.409810,4737.318029,8290.306550,0.000000
516.410130,4811.338623,7994.224174,0.000000
516.410451,4737.318029,8290.306550,-229.828649
516.410771,5033.400406,8216.285956,-306.438199
516.411092,4737.318029,8142.265362,-229.828649
516.411413,4885.359217,7920.203579,-383.047749
516.411733,4589.276840,7476.080014,-383.047749
516.412054,3997.112087,7402.059420,-306.438199
516.412374,4219.173869,8364.327145,0.000000
516.412695,4663.297435,9474.636058,-612.876398
516.413016,4811.338623,10066.800811,-1302.362347
516.413336,4589.276840,9474.636058,-1532.190996
516.413657,4145.153275,9030.512492,-766.095498
516.413977,3330.926739,8808.450710,229.828649
516.414298,2886.803174,9030.512492,919.314598
516.414619,2812.782580,9400.615463,995.924147
516.414939,2442.679609,9104.533087,306.438199
516.415260,2664.741391,8142.265362,-76.609550
516.415580,2812.782580,8142.265362,-612.876398
516.415901,2886.803174,9178.553681,-76.609550
516.416222,2960.823768,9474.636058,383.047749
516.416542,2368.659014,9474.636058,76.609550
516.416863,2664.741391,9104.533087,306.438199
516.417183,2516.700203,9992.780217,-153.219100
516.417504,2368.659014,11029.068536,-536.266849
516.417824,1702.473667,11843.295072,-1608.800546
516.418145,1258.350101,11843.295072,-2068.457845
516.418466,1110.308913,11029.068536,-1532.190996
516.418786,148.041188,10658.965565,-919.314598
516.419107,-296.082377,11177.109724,-995.924147
516.419427,-1184.329507,12361.439231,-459.657299
516.419748,-1406.391290,12805.562797,153.219100
516.420069,-1924.535449,12287.418637,842.705048
516.420389,-962.267725,11843.295072,1378.971896
516.420710,-740.205942,11843.295072,1991.848295
516.421030,-1258.350101,12213.398043,1608.800546
516.421351,-2368.659014,11399.171507,536.266849
516.421672,-1850.514855,10140.821405,-1072.533697
516.421992,-1406.391290,9622.677246,0.000000
516.422313,-740.205942,9696.697840,1072.533697
516.422633,-222.061783,10214.842000,919.314598
516.422954,0.000000,11177.109724,-383.047749
516.423275,222.061783,11769.274478,-1608.800546
516.423595,1480.411884,11473.192101,-1302.362347
516.423916,2442.679609,10732.986159,-153.219100
516.424236,3108.864956,10584.944971,612.876398
516.424557,3552.988522,10214.842000,-306.438199
516.424878,2368.659014,9548.656652,-1915.238745
516.425198,1776.494261,8882.471304,-2528.115143
516.425519,1702.473667,9474.636058,-1455.581446
516.425839,2220.617826,9696.697840,-536.266849
516.426160,1924.535449,9992.780217,76.609550
516.426481,1406.391290,10732.986159,-459.657299
516.426801,814.226536,11547.212695,-153.219100
516.427122,-296.082377,11177.109724,306.438199
516.427442,-592.164754,10510.924376,536.266849
516.427763,-148.041188,9770.718434,919.314598
516.428084,-148.041188,10140.821405,1072.533697
516.428404,-518.144159,10881.027347,995.924147
516.428725,-888.247130,11103.089130,919.314598
516.429045,-444.123565,11769.274478,766.095498
516.429366,444.123565,11695.253884,1072.533697
516.429687,1036.288319,11029.068536,383.047749
516.430007,1258.350101,10658.965565,-459.657299
516.430328,1406.391290,10288.862594,-995.924147
516.430648,1332.370696,9770.718434,-689.485948
516.430969,1332.370696,9178.553681,-153.219100
516.431289,1554.432478,8512.368333,536.266849
516.431610,1924.535449,8882.471304,229.828649
516.431931,2368.659014,10066.800811,229.828649
516.432251,2812.782580,11177.109724,0.000000
516.432572,2738.761985,10881.027347,-536.266849
516.432892,3108.864956,10362.883188,-1225.752797
516.433213,3552.988522,9474.636058,-1225.752797
516.433534,3478.967927,9178.553681,-1225.752797
516.433854,2664.741391,9770.718434,-612.876398
516.434175,2368.659014,10288.862594,-153.219100
516.434495,1850.514855,11473.192101,-766.095498
516.434816,1258.350101,11695.253884,-766.095498
516.435137,1036.288319,11177.109724,-1378.971896
516.435457,222.061783,10584.944971,-1762.019645
516.435778,-1110.308913,9622.677246,-1838.629195
516.436098,-1702.473667,9178.553681,-612.876398
516.436419,-1776.494261,9178.553681,766.095498
516.436740,-1480.411884,10881.027347,2145.067394
516.437060,-74.020594,12361.439231,2298.286494
516.437381,222.061783,14137.933492,1915.238745
516.437701,74.020594,14137.933492,842.705048
516.438022,518.144159,12805.562797,0.000000
516.438343,1554.432478,10807.006753,-153.219100
516.438663,1110.308913,10140.821405,-306.438199
516.438984,444.123565,9400.615463,-689.485948
516.439304,-518.144159,8660.409521,-1685.410096
516.439625,-1628.453072,9474.636058,-2145.067394
516.439946,-2294.638420,10510.924376,-1532.190996
516.440266,-1480.411884,11843.295072,-689.485948
516.440587,962.267725,13249.686362,76.609550
516.440907,1184.329507,14211.954086,76.609550
516.441228,962.267725,14285.974681,-383.047749
516.441549,444.123565,13693.809927,-766.095498
516.441869,444.123565,12361.439231,-459.657299
516.442190,814.226536,10066.800811,0.000000
516.442510,1406.391290,7846.182985,76.609550
516.442831,1702.473667,7402.059420,-306.438199
516.443151,1184.329507,9030.512492,-689.485948
516.443472,296.082377,10881.027347,383.047749
516.443793,222.061783,10807.006753,1532.190996
516.444113,74.020594,9918.759623,1149.143247
516.444434,962.267725,8438.347739,153.219100
516.444754,1036.288319,8438.347739,612.876398
516.445075,814.226536,10732.986159,-229.828649
516.445396,148.041188,12213.398043,-1685.410096
516.445716,740.205942,13471.748144,-2834.553343
516.446037,1702.473667,13619.789333,-2528.115143
516.446357,1258.350101,13249.686362,-1302.362347
516.446678,1110.308913,11917.315666,612.876398
516.446999,592.164754,11325.150913,1608.800546
516.447319,-296.082377,11103.089130,1838.629195
516.447640,-518.144159,9548.656652,1532.190996
516.447960,-148.041188,7624.121203,1072.533697
516.448281,-444.123565,6735.874072,842.705048
516.448602,-1258.350101,7476.080014,1149.143247
516.448922,-222.061783,9548.656652,459.657299
516.449243,148.041188,10955.047942,0.000000
516.449563,1702.473667,11769.274478,-383.047749
516.449884,3108.864956,12435.459826,0.000000
516.450205,1998.556043,12287.418637,-1302.362347
516.450525,1554.432478,11103.089130,-1991.848295
516.450846,1332.370696,9104.533087,-2451.505594
516.451166,2368.659014,8660.409521,-153.219100
516.451487,2590.720797,9992.780217,1378.971896
516.451808,1332.370696,12583.501014,76.609550
516.452128,0.000000,13175.665768,-2528.115143
516.452449,148.041188,12731.542202,-2528.115143
516.452769,74.020594,10436.903782,-919.314598
516.453090,-962.267725,7105.977043,0.000000
516.453411,-962.267725,6809.894666,306.438199
516.453731,-592.164754,10510.924376,459.657299
516.454052,-2220.617826,14508.036463,536.266849
516.454372,-2146.597232,15988.448347,0.000000
516.454693,-740.205942,14211.954086,-766.095498
516.455014,0.000000,12213.398043,995.924147
516.455334,0.000000,11991.336260,2757.943793
516.455655,-1850.514855,12065.356855,919.314598
516.455975,-1036.288319,10881.027347,-1378.971896
516.456296,518.144159,9992.780217,-842.705048
516.456616,888.247130,8586.388927,0.000000
516.456937,1406.391290,6587.832884,1225.752797
516.457258,3108.864956,7105.977043,2528.115143
516.457578,4367.215058,9178.553681,2068.457845
516.457899,5181.441594,10584.944971,306.438199
516.458219,6217.729913,10140.821405,-1991.848295
516.458540,7550.100608,8364.327145,-2757.943793
516.458861,7476.080014,7476.080014,-1455.581446
516.459181,6661.853478,5995.668130,0.000000
516.459502,5033.400406,5181.441594,-1762.019645
516.459822,5329.482782,6513.812290,-2451.505594
516.460143,7476.080014,10066.800811,-1225.752797
516.460464,6291.750507,10658.965565,-306.438199
516.460784,4959.379811,8734.430116,-689.485948
516.461105,4885.359217,7920.203579,-1455.581446
516.461426,2442.679609,7105.977043,-689.485948
516.461746,1332.370696,7254.018232,766.095498
516.462067,3330.926739,8290.306550,995.924147
516.462388,3478.967927,9400.615463,-459.657299
516.462708,3775.050304,10881.027347,-689.485948
516.463029,2590.720797,11029.068536,766.095498
516.463350,1258.350101,10362.883188,1762.019645
516.463671,2294.638420,9104.533087,2987.772442
516.463991,3478.967927,8142.265362,3217.601092
516.464312,3849.070898,6291.750507,919.314598
516.464633,3256.906145,5625.565159,-306.438199
516.464953,3552.988522,4959.379811,536.266849
516.465274,4219.173869,4885.359217,1608.800546
516.465595,7105.977043,5625.565159,2068.457845
516.465916,8290.306550,7994.224174,229.828649
516.466236,8512.368333,10066.800811,-1991.848295
516.466557,9178.553681,10732.986159,-3524.039291
516.466878,8808.450710,9474.636058,-3447.429741
516.467199,8512.368333,7254.018232,-1838.629195
516.467519,8216.285956,7031.956449,-383.047749
516.467840,5921.647536,7031.956449,-1685.410096
516.468161,4441.235652,7920.203579,-2987.772442
516.468481,4071.132681,8808.450710,-2528.115143
516.468802,2294.638420,7550.100608,-1608.800546
516.469123,2812.782580,5625.565159,-383.047749
516.469444,5255.462188,7772.162391,1838.629195
516.469764,3627.009116,10362.883188,1762.019645
516.470085,1406.391290,11251.130318,842.705048
516.470406,1406.391290,10584.944971,76.609550
516.470726,1776.494261,9548.656652,536.266849
516.471047,1776.494261,8512.368333,2298.286494
516.471368,3552.988522,8808.450710,2221.676944
516.471689,3108.864956,10066.800811,-536.266849
516.472009,2146.597232,11695.253884,-612.876398
516.472330,1036.288319,10955.047942,0.000000
516.472651,2146.597232,8290.306550,153.219100
516.472972,3997.112087,6069.688724,1685.410096
516.473292,5551.544565,6291.750507,1455.581446
516.473613,6143.709319,7179.997637,612.876398
516.473934,6291.750507,7550.100608,-995.924147
516.474254,6365.771101,7328.038826,-919.314598
516.474575,7624.121203,6439.791695,-1378.971896
516.474896,9918.759623,6439.791695,-1991.848295
516.475217,10362.883188,6957.935855,-2374.896044
516.475537,8660.409521,7772.162391,-3830.477490
516.475858,7254.018232,8364.327145,-4136.915689
516.476179,6513.812290,7105.977043,-2068.457845
516.476499,6661.853478,6365.771101,-229.828649
516.476820,6587.832884,7698.141797,689.485948
516.477141,5477.523971,9400.615463,-229.828649
516.477462,3997.112087,10362.883188,-1685.410096
516.477782,3034.844362,9696.697840,-919.314598
516.478103,3775.050304,7328.038826,1225.752797
516.478424,4515.256246,6069.688724,2911.162892
516.478744,4441.235652,6883.915261,2298.286494
516.479065,2516.700203,8068.244768,306.438199
516.479386,592.164754,9104.533087,-536.266849
516.479707,1480.411884,9474.636058,1225.752797
516.480027,3478.967927,9326.594869,2757.943793
516.480348,4293.194464,8586.388927,2451.505594
516.480669,3997.112087,9326.594869,0.000000
516.480990,3256.906145,10214.842000,-1302.362347
516.481310,2072.576638,9252.574275,-766.095498
516.481631,2960.823768,7105.977043,612.876398
516.481952,6217.729913,6439.791695,1225.752797
516.482272,7179.997637,7920.203579,306.438199
516.482593,6735.874072,9326.594869,-1532.190996
516.482914,6513.812290,10288.862594,-2528.115143
516.483235,6143.709319,8586.388927,-2068.457845
516.483555,6661.853478,6439.791695,0.000000
516.483876,7402.059420,5181.441594,995.924147
516.484197,7476.080014,6365.771101,0.000000
516.484517,6661.853478,8068.244768,-1608.800546
516.484838,5255.462188,8290.306550,-2681.334243
516.485159,5107.421000,6735.874072,-1762.019645
516.485480,5625.565159,5921.647536,842.705048
516.485800,5995.668130,7105.977043,1302.362347
516.486121,4811.338623,8660.409521,689.485948
516.486442,4515.256246,9326.594869,-383.047749
516.486763,4367.215058,9326.594869,-229.828649
516.487083,3404.947333,7772.162391,1225.752797
516.487404,4441.235652,7031.956449,2757.943793
516.487725,4885.359217,7994.224174,1915.238745
516.488045,4145.153275,8734.430116,-306.438199
516.488366,3034.844362,9030.512492,-1302.362347
516.488687,2812.782580,7772.162391,-842.705048
516.489008,3404.947333,6809.894666,842.705048
516.489328,5403.503377,7624.121203,1685.410096
516.489649,5847.626942,8142.265362,1072.533697
516.489970,5625.565159,8660.409521,-612.876398
516.490290,5107.421000,8734.430116,-612.876398
516.490611,4737.318029,7402.059420,-153.219100
516.490932,5921.647536,6365.771101,153.219100
516.491253,7476.080014,5995.668130,153.219100
516.491573,7846.182985,7031.956449,-1302.362347
516.491894,8290.306550,7994.224174,-2374.896044
516.492215,7105.977043,7772.162391,-2757.943793
516.492536,6217.729913,5625.565159,-1838.629195
516.492856,7328.038826,5403.503377,612.876398
516.493177,7476.080014,6291.750507,1149.143247
516.493498,7105.977043,7105.977043,-1072.533697
516.493818,5625.565159,7476.080014,-2757.943793
516.494139,5773.606348,7550.100608,-2298.286494
516.494460,5773.606348,7105.977043,-76.609550
516.494781,5329.482782,6513.812290,842.705048
516.495101,5699.585753,7550.100608,-459.657299
516.495422,5773.606348,10510.924376,-459.657299
516.495743,3701.029710,10732.986159,76.609550
516.496063,3627.009116,8808.450710,1072.533697
516.496384,4071.132681,6735.874072,1072.533697
516.496705,4293.194464,7476.080014,1149.143247
516.497026,3627.009116,8586.388927,306.438199
516.497346,3256.906145,9178.553681,-1378.971896
516.497667,3627.009116,8290.306550,-1915.238745
516.497988,4737.318029,8660.409521,0.000000
516.498309,5033.400406,8142.265362,1455.581446
516.498629,5477.523971,8586.388927,766.095498
516.498950,5847.626942,10362.883188,536.266849
516.499271,4885.359217,10807.006753,76.609550
516.499591,5403.503377,8660.409521,-306.438199
516.499912,6661.853478,5773.606348,0.000000
516.500233,6217.729913,5773.606348,0.000000
516.500554,6439.791695,7031.956449,-766.095498
516.500874,6513.812290,7476.080014,-2374.896044
516.501195,5551.544565,7105.977043,-2987.772442
516.501516,6069.688724,6587.832884,-1072.533697
516.501836,6143.709319,6587.832884,459.657299
516.502157,5773.606348,8142.265362,0.000000
516.502478,5995.668130,9252.574275,-612.876398
516.502799,5921.647536,9548.656652,-919.314598
516.503119,5033.400406,8512.368333,-766.095498
516.503440,5255.462188,7772.162391,229.828649
516.503761,4441.235652,6957.935855,459.657299
516.504082,3701.029710,6735.874072,-612.876398
516.504402,4737.318029,8068.244768,-919.314598
516.504723,3478.967927,8290.306550,-383.047749
516.505044,1924.535449,7105.977043,0.000000
516.505364,3256.906145,6587.832884,1915.238745
516.505685,4441.235652,7994.224174,2145.067394
516.506006,4367.215058,9030.512492,689.485948
516.506327,5403.503377,9548.656652,-1225.752797
516.506647,5329.482782,10362.883188,-2451.505594
516.506968,4293.194464,9326.594869,-612.876398
516.507289,5551.544565,7624.121203,1991.848295
516.507609,6439.791695,6957.935855,1685.410096
516.507930,5847.626942,7772.162391,-766.095498
516.508251,4441.235652,8290.306550,-1838.629195
516.508572,3701.029710,7772.162391,-1455.581446
516.508892,5033.400406,6809.894666,766.095498
516.509213,7328.038826,6735.874072,3600.648841
516.509534,7179.997637,6661.853478,766.095498
516.509854,6513.812290,7920.203579,-2528.115143
516.510175,5625.565159,9252.574275,-2374.896044
516.510496,4737.318029,7624.121203,-995.924147
516.510817,5847.626942,5921.647536,919.314598
516.511137,7328.038826,6217.729913,1532.190996
516.511458,6809.894666,8586.388927,0.000000
516.511779,6069.688724,9696.697840,-1762.019645
516.512100,5181.441594,9474.636058,-2757.943793
516.512420,4959.379811,6439.791695,-1838.629195
516.512741,6365.771101,5033.400406,1762.019645
516.513062,6957.935855,5477.523971,2681.334243
516.513382,5921.647536,7328.038826,229.828649
516.513703,6069.688724,9178.553681,-2451.505594
516.514024,5255.462188,10288.862594,-1991.848295
516.514345,4145.153275,8956.491898,0.000000
516.514665,6143.709319,7476.080014,1685.410096
516.514986,7254.018232,7920.203579,1532.190996
516.515307,5107.421000,8882.471304,383.047749
516.515627,3923.091493,8438.347739,-1378.971896
516.515948,3330.926739,6587.832884,-1149.143247
516.516269,3701.029710,6143.709319,766.095498
516.516590,6439.791695,7179.997637,2451.505594
516.516910,5403.503377,8290.306550,0.000000
516.517231,4737.318029,8956.491898,-2374.896044
516.517552,4885.359217,11473.192101,-1762.019645
516.517873,3108.864956,10214.842000,0.000000
516.518193,3849.070898,7254.018232,229.828649
516.518514,6809.894666,6513.812290,689.485948
516.518835,5107.421000,8290.306550,-689.485948
516.519155,3404.947333,9400.615463,-1762.019645
516.519476,3478.967927,9326.594869,-1608.800546
516.519797,3182.885551,8068.244768,-1149.143247
516.520118,4441.235652,7402.059420,1915.238745
516.520438,5625.565159,7476.080014,2145.067394
516.520759,4367.215058,8734.430116,-1378.971896
516.521080,3478.967927,9918.759623,-1685.410096
516.521400,3478.967927,9178.553681,0.000000
516.521721,4071.132681,6809.894666,1608.800546
516.522042,5699.585753,5847.626942,2298.286494
516.522363,6069.688724,7402.059420,306.438199
516.522683,4737.318029,9252.574275,-2451.505594
516.523004,3923.091493,9696.697840,-2987.772442
516.523325,4367.215058,7772.162391,-1608.800546
516.523646,5107.421000,5921.647536,-459.657299
516.523966,7328.038826,6957.935855,1685.410096
516.524287,6809.894666,9104.533087,919.314598
516.524608,4367.215058,10288.862594,-1149.143247
516.524928,3108.864956,9548.656652,-1838.629195
516.525249,4145.153275,7402.059420,-1302.362347
516.525570,5773.606348,6661.853478,842.705048
516.525891,6957.935855,7328.038826,1532.190996
516.526211,5625.565159,8216.285956,-536.266849
516.526532,4071.132681,8660.409521,-2681.334243
516.526853,3478.967927,8364.327145,-995.924147
516.527173,3182.885551,7105.977043,1762.019645
516.527494,5255.462188,6957.935855,3370.820191
516.527815,7254.018232,8808.450710,1685.410096
516.528136,5625.565159,10288.862594,-1225.752797
516.528456,3997.112087,9326.594869,-2757.943793
516.528777,3701.029710,7772.162391,-1762.019645
516.529098,5107.421000,7402.059420,766.095498
516.529419,6143.709319,7772.162391,2068.457845
516.529739,5477.523971,8586.388927,612.876398
516.530060,5255.462188,8734.430116,-2145.067394
516.530381,3923.091493,8512.368333,-1378.971896
516.530701,3256.906145,7920.203579,306.438199
516.531022,4367.215058,6957.935855,1685.410096
516.531343,6809.894666,7254.018232,689.485948
516.531664,5847.626942,8364.327145,-689.485948
516.531984,4589.276840,9770.718434,-2451.505594
516.532305,3404.947333,8882.471304,-1915.238745
516.532626,3552.988522,7920.203579,0.000000
516.532946,5255.462188,7994.224174,1455.581446
516.533267,6143.709319,8512.368333,536.266849
516.533588,5847.626942,8734.430116,-1455.581446
516.533909,4441.235652,8364.327145,-1838.629195
516.534229,3182.885551,7624.121203,-689.485948
516.534550,4293.194464,7105.977043,1225.752797
516.534871,5699.585753,7179.997637,1072.533697
516.535191,6291.750507,8142.265362,-919.314598
516.535512,6291.750507,9548.656652,-1915.238745
516.535833,4071.132681,9326.594869,-1225.752797
516.536154,3034.844362,8364.327145,229.828649
516.536474,4441.235652,7698.141797,1455.581446
516.536795,5995.668130,8142.265362,1991.848295
516.537116,5107.421000,8512.368333,459.657299
516.537437,5181.441594,8660.409521,-1072.533697
516.537757,2886.803174,7179.997637,-1302.362347
516.538078,2072.576638,5921.647536,0.000000
516.538399,5181.441594,6957.935855,2298.286494
516.538719,6661.853478,8142.265362,995.924147
516.539040,5255.462188,8364.327145,-995.924147
516.539361,6365.771101,8956.491898,-1915.238745
516.539682,4367.215058,8882.471304,-1838.629195
516.540002,4071.132681,8142.265362,0.000000
516.540323,6143.709319,7994.224174,1225.752797
516.540644,6661.853478,7846.182985,-766.095498
516.540964,5551.544565,8586.388927,-612.876398
516.541285,4219.173869,9030.512492,-766.095498
516.541606,2442.679609,7772.162391,-2451.505594
516.541927,4145.153275,8512.368333,-1225.752797
516.542247,5699.585753,8956.491898,1762.019645
516.542568,5551.544565,8364.327145,1225.752797
516.542889,4959.379811,8586.388927,306.438199
516.543210,2590.720797,9326.594869,-766.095498
516.543530,1258.350101,9548.656652,-306.438199
516.543851,3627.009116,9252.574275,1149.143247
516.544172,5107.421000,8586.388927,536.266849
516.544492,5255.462188,8512.368333,-1072.533697
516.544813,3997.112087,9252.574275,-383.047749
516.545134,2146.597232,9770.718434,0.000000
516.545455,1332.370696,8882.471304,306.438199
516.545775,3256.906145,7920.203579,1302.362347
516.546096,5181.441594,8142.265362,919.314598
516.546417,4811.338623,9104.533087,383.047749
516.546737,3478.967927,9844.739029,0.000000
516.547058,2368.659014,9474.636058,-919.314598
516.547379,3997.112087,7846.182985,-383.047749
516.547700,6069.688724,6809.894666,689.485948
516.548020,6809.894666,6217.729913,153.219100
516.548341,6217.729913,7476.080014,-306.438199
516.548662,4219.173869,7994.224174,-919.314598
516.548983,3701.029710,7772.162391,-842.705048
516.549303,5773.606348,7105.977043,-383.047749
516.549624,7698.141797,6809.894666,76.609550
516.549945,7179.997637,7624.121203,0.000000
516.550265,5625.565159,8364.327145,-1225.752797
516.550586,3997.112087,7772.162391,-1838.629195
516.550907,4219.173869,6957.935855,-383.047749
516.551228,6217.729913,7254.018232,612.876398
516.551548,7179.997637,7772.162391,306.438199
516.551869,5847.626942,7846.182985,-536.266849
516.552190,4959.379811,7772.162391,-995.924147
516.552510,3627.009116,7254.018232,153.219100
516.552831,3775.050304,7031.956449,689.485948
516.553152,5847.626942,7254.018232,612.876398
516.553473,6587.832884,8142.265362,-306.438199
516.553793,5107.421000,8734.430116,-1378.971896
516.554114,4367.215058,8586.388927,-766.095498
516.554435,3849.070898,7698.141797,153.219100
516.554756,4663.297435,8216.285956,1455.581446
516.555076,6143.709319,9030.512492,1685.410096
516.555397,5551.544565,8216.285956,0.000000
516.555718,5255.462188,7402.059420,-1991.848295
516.556038,4737.318029,6365.771101,-1149.143247
516.556359,5477.523971,6587.832884,-306.438199
516.556680,6439.791695,8586.388927,383.047749
516.557001,6513.812290,9326.594869,-459.657299
516.557321,6809.894666,8882.471304,-1838.629195
516.557642,6217.729913,8142.265362,-1225.752797
516.557963,4589.276840,7179.997637,0.000000
516.558283,5699.585753,7179.997637,612.876398
516.558604,6587.832884,7624.121203,0.000000
516.558925,5403.503377,7402.059420,-1762.019645
516.559246,5403.503377,8068.244768,-1838.629195
516.559566,4885.359217,9474.636058,-612.876398
516.559887,2886.803174,9400.615463,229.828649
516.560208,4811.338623,9326.594869,153.219100
516.560529,6069.688724,8808.450710,-229.828649
516.560849,4811.338623,8882.471304,-459.657299
516.561170,4071.132681,8882.471304,306.438199
516.561490,2368.659014,9474.636058,536.266849
516.561811,2294.638420,9326.594869,536.266849
516.562131,3997.112087,9178.553681,689.485948
516.562452,3478.967927,9252.574275,-689.485948
516.562772,3256.906145,8364.327145,-1149.143247
516.563093,3330.926739,9178.553681,612.876398
516.563413,2072.576638,8438.347739,1149.143247
516.563734,3108.864956,7846.182985,1225.752797
516.564054,5181.441594,8142.265362,612.876398
516.564375,5477.523971,9252.574275,-459.657299
516.564695,4367.215058,9696.697840,-536.266849
516.565016,4737.318029,8882.471304,-383.047749
516.565336,4515.256246,7550.100608,-306.438199
516.565657,5699.585753,6809.894666,76.609550
516.565977,6661.853478,8142.265362,-153.219100
516.566298,4959.379811,7698.141797,-1608.800546
516.566618,5181.441594,7624.121203,-1378.971896
516.566939,4811.338623,7328.038826,153.219100
516.567259,5107.421000,6735.874072,766.095498
516.567580,6883.915261,7105.977043,995.924147
516.567900,7031.956449,8660.409521,0.000000
516.568221,5181.441594,8290.306550,-995.924147
516.568541,4737.318029,7328.038826,-229.828649
516.568862,4219.173869,5477.523971,612.876398
516.569182,4367.215058,5329.482782,459.657299
516.569503,6809.894666,7328.038826,995.924147
516.569823,5995.668130,8364.327145,-229.828649
516.570144,4367.215058,8290.306550,-1225.752797
516.570464,4367.215058,8586.388927,-536.266849
516.570785,3997.112087,7698.141797,689.485948
516.571105,5329.482782,7476.080014,1838.629195
516.571426,7105.977043,8586.388927,1455.581446
516.571747,5181.441594,8438.347739,-1225.752797
516.572067,4737.318029,7698.141797,-2145.067394
516.572388,4811.338623,6587.832884,76.609550
516.572708,5033.400406,5921.647536,995.924147
516.573029,7031.956449,6883.915261,1225.752797
516.573349,7772.162391,7994.224174,-612.876398
516.573670,6217.729913,7772.162391,-2834.553343
516.573990,6143.709319,7328.038826,-1225.752797
516.574311,6291.750507,6291.750507,919.314598
516.574631,6513.812290,6217.729913,1762.019645
516.574952,7994.224174,7105.977043,229.828649
516.575272,8142.265362,9104.533087,-2451.505594
516.575593,5551.544565,8660.409521,-3370.820191
516.575913,5699.585753,7698.141797,-1762.019645
516.576234,6439.791695,7920.203579,459.657299
516.576554,6143.709319,7550.100608,1149.143247
516.576875,6291.750507,8290.306550,0.000000
516.577195,5551.544565,9030.512492,-1378.971896
516.577516,3701.029710,8438.347739,-919.314598
516.577836,3404.947333,7698.141797,1072.533697
516.578157,4145.153275,7328.038826,1378.971896
516.578477,5329.482782,8512.368333,229.828649
516.578798,5033.400406,9474.636058,-153.219100
516.579118,3997.112087,10066.800811,-1455.581446
516.579439,3108.864956,8512.368333,-1455.581446
516.579759,3108.864956,7624.121203,689.485948
516.580080,3923.091493,8512.368333,1378.971896
516.580400,4811.338623,9252.574275,536.266849
516.580721,5773.606348,9104.533087,-689.485948
516.581041,4959.379811,8882.471304,-1762.019645
516.581362,3478.967927,7772.162391,-1149.143247
516.581682,4589.276840,7031.956449,76.609550
516.582003,6439.791695,7846.182985,-229.828649
516.582323,6217.729913,8142.265362,-612.876398
516.582644,7698.141797,9326.594869,-383.047749
516.582965,5995.668130,8734.430116,-612.876398
516.583285,3256.906145,7328.038826,-842.705048
516.583606,4737.318029,6365.771101,229.828649
516.583926,6809.894666,6439.791695,1072.533697
516.584247,7105.977043,7179.997637,0.000000
516.584567,6513.812290,6957.935855,-1302.362347
516.584888,4737.318029,7105.977043,-1532.190996
516.585208,4145.153275,7105.977043,-536.266849
516.585529,5921.647536,8068.244768,2068.457845
516.585849,6513.812290,8660.409521,995.924147
516.586170,5773.606348,8660.409521,-842.705048
516.586490,4959.379811,8438.347739,-766.095498
516.586811,2886.803174,8364.327145,383.047749
516.587131,2812.782580,7550.100608,1302.362347
516.587452,4367.215058,7476.080014,1378.971896
516.587772,4737.318029,8068.244768,-306.438199
516.588093,4959.379811,8660.409521,-459.657299
516.588413,3775.050304,7772.162391,76.609550
516.588734,3108.864956,6957.935855,153.219100
516.589054,3849.070898,6513.812290,536.266849
516.589375,5551.544565,8216.285956,1838.629195
516.589695,6809.894666,8586.388927,383.047749
516.590016,6439.791695,8438.347739,-1225.752797
516.590336,5625.565159,7772.162391,-919.314598
516.590657,4885.359217,6439.791695,-459.657299
516.590977,5551.544565,6735.874072,153.219100
516.591298,6735.874072,7031.956449,0.000000
516.591618,7254.018232,7105.977043,-1762.019645
516.591939,6809.894666,7550.100608,-1915.238745
516.592259,5329.482782,7031.956449,-459.657299
516.592580,4515.256246,7105.977043,536.266849
516.592900,6439.791695,7994.224174,766.095498
516.593221,7402.059420,9104.533087,0.000000
516.593542,6661.853478,8956.491898,-1072.533697
516.593862,5847.626942,7994.224174,0.000000
516.594183,4145.153275,7624.121203,612.876398
516.594503,2590.720797,6513.812290,1225.752797
516.594824,3849.070898,6735.874072,689.485948
516.595144,4441.235652,7994.224174,-536.266849
516.595465,3775.050304,9400.615463,-1302.362347
516.595785,3775.050304,9918.759623,-842.705048
516.596106,2516.700203,8438.347739,-153.219100
516.596426,4293.194464,9104.533087,536.266849
516.596747,5625.565159,9992.780217,995.924147
516.597067,5699.585753,10362.883188,-689.485948
516.597388,5551.544565,9770.718434,-1532.190996
516.597708,4145.153275,8808.450710,-1149.143247
516.598029,3256.906145,7624.121203,-612.876398
516.598349,5329.482782,7550.100608,612.876398
516.598670,6143.709319,8290.306550,-153.219100
516.598990,5699.585753,8734.430116,-1149.143247
516.599311,5107.421000,7994.224174,-1225.752797
516.599631,4145.153275,6587.832884,-766.095498
516.599952,4959.379811,6735.874072,1225.752797
516.600272,7031.956449,8216.285956,1532.190996
516.600593,7624.121203,8882.471304,-612.876398
516.600913,6957.935855,8956.491898,-2068.457845
516.601234,5921.647536,8216.285956,-1685.410096
516.601554,4515.256246,7328.038826,-766.095498
516.601875,4811.338623,6513.812290,229.828649
516.602195,5921.647536,7994.224174,0.000000
516.602516,5403.503377,8882.471304,-1072.533697
516.602836,4811.338623,8438.347739,-689.485948
516.603157,3552.988522,6957.935855,-229.828649
516.603477,2664.741391,6365.771101,1455.581446
516.603798,3701.029710,8734.430116,2451.505594
516.604118,4811.338623,10288.862594,306.438199
516.604439,4737.318029,9992.780217,-1762.019645
516.604760,5773.606348,8586.388927,-1302.362347
516.605080,3849.070898,7402.059420,-306.438199
516.605401,3182.885551,7550.100608,612.876398
516.605721,4811.338623,9252.574275,842.705048
516.606042,4367.215058,9104.533087,-459.657299
516.606362,4515.256246,7698.141797,-1072.533697
516.606683,5033.400406,7105.977043,842.705048
516.607003,3552.988522,7328.038826,1302.362347
516.607324,3849.070898,7846.182985,1072.533697
516.607644,5995.668130,8290.306550,-689.485948
516.607965,7328.038826,8808.450710,-1762.019645
516.608285,7105.977043,8216.285956,-459.657299
516.608606,5995.668130,7254.018232,229.828649
516.608926,4663.297435,7105.977043,0.000000
516.609247,5847.626942,8290.306550,536.266849
516.609567,6291.750507,7550.100608,153.219100
516.609888,6291.750507,6587.832884,-1225.752797
516.610208,6143.709319,7328.038826,-1149.143247
516.610529,3849.070898,7624.121203,0.000000
516.610849,3330.926739,7402.059420,689.485948
516.611170,5329.482782,7698.141797,766.095498
516.611490,6365.771101,7772.162391,-459.657299
516.611811,5403.503377,8068.244768,-1532.190996
516.612131,4145.153275,9252.574275,-612.876398
516.612452,3404.947333,9474.636058,-229.828649
516.612772,3701.029710,8734.430116,612.876398
516.613093,5699.585753,8438.347739,1072.533697
516.613413,5995.668130,7920.203579,76.609550
516.613734,3627.009116,7920.203579,0.000000
516.614054,1776.494261,7476.080014,0.000000
516.614375,3108.864956,7698.141797,0.000000
516.614695,4219.173869,8734.430116,306.438199
516.615016,6291.750507,9918.759623,689.485948
516.615336,6957.935855,9918.759623,229.828649
516.615657,4737.318029,8438.347739,153.219100
516.615978,3997.112087,7624.121203,306.438199
516.616298,4367.215058,6365.771101,842.705048
516.616619,4663.297435,6957.935855,-229.828649
516.616939,6513.812290,8068.244768,-919.314598
516.617260,6365.771101,9474.636058,-1608.800546
516.617580,4515.256246,8734.430116,-1915.238745
516.617901,3256.906145,7772.162391,-766.095498
516.618221,3997.112087,8364.327145,459.657299
516.618542,5403.503377,9326.594869,383.047749
516.618862,5033.400406,9178.553681,-459.657299
516.619183,4737.318029,8882.471304,-1762.019645
516.619503,4515.256246,8512.368333,-1072.533697
516.619824,3034.844362,7698.141797,612.876398
516.620144,3997.112087,7994.224174,536.266849
516.620465,5477.523971,8808.450710,-842.705048
516.620785,5329.482782,8364.327145,-1532.190996
516.621106,4589.276840,8068.244768,-1149.143247
516.621426,3627.009116,7179.997637,153.219100
516.621747,4663.297435,8290.306550,1302.362347
516.622067,5699.585753,9474.636058,842.705048
516.622388,6069.688724,9474.636058,-612.876398
516.622708,5477.523971,8882.471304,-1225.752797
516.623029,4811.338623,8364.327145,0.000000
516.623349,3923.091493,7698.141797,612.876398
516.623670,4367.215058,7402.059420,766.095498
516.623990,6291.750507,8364.327145,76.609550
516.624311,5773.606348,8660.409521,-842.705048
516.624631,4959.379811,7994.224174,-842.705048
516.624952,4589.276840,7105.977043,383.047749
516.625272,3775.050304,7105.977043,459.657299
516.625593,4885.359217,8364.327145,383.047749
516.625913,6587.832884,9326.594869,-459.657299
516.626234,5773.606348,8660.409521,-2221.676944
516.626555,4367.215058,6957.935855,-995.924147
516.626875,4737.318029,7328.038826,1762.019645
516.627196,3923.091493,8882.471304,1225.752797
516.627516,3701.029710,8660.409521,-306.438199
516.627837,6587.832884,8364.327145,-1762.019645
516.628157,6513.812290,7846.182985,-1378.971896
516.628478,4293.194464,7550.100608,76.609550
516.628798,4145.153275,7772.162391,1608.800546
516.629119,4367.215058,7550.100608,612.876398
516.629439,5921.647536,8882.471304,-229.828649
516.629760,7179.997637,9770.718434,-536.266849
516.630080,5181.441594,8290.306550,-1838.629195
516.630401,4219.173869,7920.203579,-919.314598
516.630721,3701.029710,7624.121203,1149.143247
516.631042,4145.153275,7846.182985,1302.362347
516.631362,5625.565159,8956.491898,1149.143247
516.631683,4737.318029,8808.450710,0.000000
516.632003,3330.926739,7994.224174,-306.438199
516.632324,2738.761985,7254.018232,766.095498
516.632644,3404.947333,7698.141797,995.924147
516.632965,4293.194464,8364.327145,229.828649
516.633285,5329.482782,9104.533087,-153.219100
516.633606,4737.318029,9992.780217,-536.266849
516.633926,3256.906145,8734.430116,-536.266849
516.634247,2368.659014,7920.203579,229.828649
516.634567,3775.050304,8438.347739,995.924147
516.634888,4663.297435,9400.615463,-229.828649
516.635208,5625.565159,9400.615463,-689.485948
516.635529,5477.523971,8586.388927,-1225.752797
516.635849,4145.153275,6883.915261,-842.705048
516.636170,4737.318029,6809.894666,689.485948
516.636490,4811.338623,7624.121203,1608.800546
516.636811,5921.647536,8512.368333,153.219100
516.637131,6217.729913,8586.388927,-842.705048
516.637452,5921.647536,7920.203579,153.219100
516.637773,5329.482782,7402.059420,-536.266849
516.638093,5329.482782,7476.080014,383.047749
516.638414,5995.668130,7920.203579,0.000000
516.638734,6365.771101,7328.038826,-842.705048
516.639055,5699.585753,7402.059420,-612.876398
516.639375,4737.318029,6439.791695,-76.609550
516.639696,4219.173869,7179.997637,-306.438199
516.640016,5181.441594,8364.327145,459.657299
516.640337,5847.626942,9326.594869,229.828649
516.640657,6365.771101,9030.512492,-1072.533697
516.640978,4959.379811,8142.265362,-766.095498
516.641298,3775.050304,7624.121203,76.609550
516.641619,3775.050304,7624.121203,1072.533697
516.641939,4663.297435,7994.224174,229.828649
516.642260,5107.421000,8290.306550,-1225.752797
516.642580,4959.379811,7920.203579,-1762.019645
516.642901,4145.153275,7994.224174,-153.219100
516.643221,4219.173869,7254.018232,1072.533697
516.643542,4219.173869,8290.306550,1072.533697
516.643862,5921.647536,9326.594869,-153.219100
516.644183,6439.791695,9474.636058,-1608.800546
516.644503,6957.935855,8660.409521,-1455.581446
516.644824,6143.709319,7994.224174,153.219100
516.645144,4811.338623,7105.977043,536.266849
516.645465,4811.338623,7105.977043,0.000000
516.645785,5625.565159,8290.306550,153.219100
516.646106,5625.565159,8586.388927,-689.485948
516.646426,5403.503377,7846.182985,-536.266849
516.646747,4811.338623,7476.080014,153.219100
516.647067,4959.379811,7179.997637,842.705048
516.647388,5255.462188,7624.121203,1302.362347
516.647708,5329.482782,7994.224174,76.609550
516.648029,5773.606348,8734.430116,-459.657299
516.648349,4663.297435,9548.656652,0.000000
516.648670,3182.885551,8438.347739,0.000000
516.648991,4441.235652,7328.038826,76.609550
516.649311,5329.482782,8216.285956,0.000000
516.649632,4293.194464,8882.471304,-766.095498
516.649952,3108.864956,8290.306550,-1532.190996
516.650273,2368.659014,6883.915261,-995.924147
516.650593,2294.638420,7179.997637,995.924147
516.650914,4589.276840,8660.409521,2451.505594
516.651234,5477.523971,9548.656652,1302.362347
516.651555,5551.544565,10584.944971,-2374.896044
516.651875,5403.503377,10066.800811,-1225.752797
516.652196,4441.235652,7920.203579,229.828649
516.652516,4885.359217,5773.606348,995.924147
516.652837,5995.668130,6291.750507,1762.019645
516.653157,5847.626942,7624.121203,0.000000
516.653478,5255.462188,8512.368333,-1072.533697
516.653798,4959.379811,7772.162391,-1302.362347
516.654119,4663.297435,6365.771101,-919.314598
516.654439,6365.771101,6735.874072,1455.581446
516.654760,6809.894666,7846.182985,1838.629195
516.655080,5773.606348,7698.141797,0.000000
516.655401,5773.606348,7105.977043,-766.095498
516.655721,6069.688724,6809.894666,0.000000
516.656042,4959.379811,6809.894666,0.000000
516.656362,5477.523971,7994.224174,76.609550
516.656683,6365.771101,9178.553681,-919.314598
516.657003,5847.626942,8512.368333,-2068.457845
516.657324,6217.729913,6957.935855,-383.047749
516.657644,4811.338623,5181.441594,536.266849
516.657965,3701.029710,5625.565159,459.657299
516.658285,4515.256246,8364.327145,0.000000
516.658606,5847.626942,10214.842000,-689.485948
516.658926,6069.688724,9992.780217,-1149.143247
516.659247,6439.791695,9030.512492,0.000000
516.659568,5255.462188,7772.162391,995.924147
516.659888,3997.112087,7031.956449,76.609550
516.660209,4885.359217,7698.141797,0.000000
516.660529,5107.421000,8734.430116,-689.485948
516.660850,5255.462188,8512.368333,-536.266849
516.661170,4663.297435,7550.100608,612.876398
516.661491,3627.009116,7105.977043,919.314598
516.661811,4515.256246,8586.388927,919.314598
516.662132,5625.565159,9474.636058,995.924147
516.662453,5255.462188,8808.450710,-1685.410096
516.662773,5181.441594,8438.347739,-1608.800546
516.663094,5181.441594,8290.306550,76.609550
516.663414,4959.379811,8438.347739,689.485948
516.663735,4811.338623,9030.512492,842.705048
516.664056,5699.585753,9770.718434,-995.924147
516.664376,4811.338623,9178.553681,-1838.629195
516.664697,3849.070898,7105.977043,-536.266849
516.665017,4293.194464,6143.709319,536.266849
516.665338,5403.503377,7105.977043,1455.581446
516.665658,5181.441594,8290.306550,0.000000
516.665979,6069.688724,9474.636058,-1991.848295
516.666300,5847.626942,9178.553681,-1685.410096
516.666620,5181.441594,8438.347739,-229.828649
516.666941,5181.441594,8142.265362,1455.581446
516.667261,5181.441594,7328.038826,612.876398
516.667582,5551.544565,8142.265362,-612.876398
516.667902,5551.544565,7698.141797,-766.095498
516.668223,4737.318029,6809.894666,-306.438199
516.668544,5329.482782,5995.668130,153.219100
516.668864,5255.462188,6809.894666,1455.581446
516.669185,5033.400406,8068.244768,689.485948
516.669505,5773.606348,9622.677246,-766.095498
516.669826,6365.771101,10214.842000,-995.924147
516.670146,5329.482782,8216.285956,153.219100
516.670467,5255.462188,6513.812290,1302.362347
516.670788,5255.462188,5773.606348,919.314598
516.671108,4145.153275,6587.832884,-995.924147
516.671429,4737.318029,7476.080014,-2221.676944
516.671749,5847.626942,8068.244768,-1149.143247
516.672070,5033.400406,6291.750507,0.000000
516.672390,5699.585753,6291.750507,612.876398
516.672711,6217.729913,7105.977043,0.000000
516.673032,5551.544565,8438.347739,-2221.676944
516.673352,5847.626942,8956.491898,-1762.019645
516.673673,6735.874072,8734.430116,-306.438199
516.673993,6069.688724,7846.182985,459.657299
516.674314,5255.462188,6957.935855,459.657299
516.674635,5107.421000,8142.265362,76.609550
516.674955,5033.400406,9548.656652,-1532.190996
516.675276,4885.359217,8882.471304,-995.924147
516.675596,3997.112087,6883.915261,-612.876398
516.675917,4663.297435,5403.503377,76.609550
516.676237,4663.297435,7476.080014,1532.190996
516.676558,3923.091493,9918.759623,1149.143247
516.676879,3849.070898,11177.109724,-919.314598
516.677199,4811.338623,10658.965565,-1455.581446
516.677520,4885.359217,9622.677246,0.000000
516.677840,4811.338623,8364.327145,1532.190996
516.678161,4885.359217,8364.327145,1838.629195
516.678481,3923.091493,9178.553681,0.000000
516.678802,3552.988522,8882.471304,-1915.238745
516.679123,4145.153275,7105.977043,-1378.971896
516.679443,4441.235652,6143.709319,-306.438199
516.679764,4885.359217,7105.977043,842.705048
516.680084,6439.791695,9104.533087,1072.533697
516.680405,5699.585753,9696.697840,-1225.752797
516.680725,5773.606348,9104.533087,-1915.238745
516.681046,6587.832884,8364.327145,0.000000
516.681367,6069.688724,7624.121203,306.438199
516.681687,5477.523971,7698.141797,0.000000
516.682008,6661.853478,8586.388927,-766.095498
516.682328,5329.482782,7920.203579,-2911.162892
516.682649,5921.647536,6439.791695,-2221.676944
516.682970,5699.585753,5773.606348,153.219100
516.683290,4293.194464,5699.585753,919.314598
516.683611,5329.482782,7031.956449,383.047749
516.683931,5995.668130,9548.656652,-153.219100
516.684252,5255.462188,9474.636058,-1915.238745
516.684572,5625.565159,8734.430116,-842.705048
516.684893,5403.503377,7920.203579,1302.362347
516.685214,3997.112087,7772.162391,1149.143247
516.685534,3552.988522,8364.327145,1378.971896
516.685855,3256.906145,7624.121203,-1762.019645
516.686175,3552.988522,9030.512492,-2145.067394
516.686496,3034.844362,8808.450710,842.705048
516.686816,2960.823768,7550.100608,1302.362347
516.687137,3627.009116,6809.894666,842.705048
516.687458,4293.194464,7920.203579,306.438199
516.687778,4293.194464,9844.739029,383.047749
516.688099,4367.215058,9844.739029,-842.705048
516.688419,4663.297435,9400.615463,-689.485948
516.688740,5699.585753,9474.636058,153.219100
516.689060,5403.503377,7698.141797,76.609550
516.689381,5477.523971,7698.141797,-536.266849
516.689702,4811.338623,8142.265362,-766.095498
516.690022,3997.112087,8364.327145,-766.095498
516.690343,4145.153275,7550.100608,-383.047749
516.690663,4145.153275,6883.915261,0.000000
516.690984,5329.482782,8216.285956,0.000000
516.691304,6069.688724,9326.594869,0.000000
516.691625,5033.400406,9030.512492,-383.047749
516.691946,4589.276840,8216.285956,-689.485948
516.692266,4885.359217,7254.018232,612.876398
516.692587,5773.606348,7105.977043,612.876398
516.692907,5329.482782,7624.121203,0.000000
516.693228,4071.132681,7846.182985,-1378.971896
516.693549,4737.318029,8882.471304,-1378.971896
516.693869,4663.297435,7772.162391,0.000000
516.694190,3849.070898,6143.709319,229.828649
516.694510,6735.874072,6735.874072,383.047749
516.694831,5995.668130,8438.347739,-995.924147
516.695151,4441.235652,9548.656652,-2298.286494
516.695472,4959.379811,9030.512492,-1149.143247
516.695793,5625.565159,7994.224174,-76.609550
516.696113,6069.688724,7550.100608,383.047749
516.696434,5699.585753,9326.594869,1072.533697
516.696754,4367.215058,9104.533087,-2221.676944
516.697075,3701.029710,9326.594869,-2451.505594
516.697395,4071.132681,8660.409521,0.000000
516.697716,4959.379811,7179.997637,1149.143247
516.698037,5329.482782,6735.874072,1915.238745
516.698357,4293.194464,8364.327145,153.219100
516.698678,4145.153275,9770.718434,-1378.971896
516.698998,4367.215058,9622.677246,-1072.533697
516.699319,4663.297435,8512.368333,0.000000
516.699639,5033.400406,7105.977043,383.047749
516.699960,6069.688724,7846.182985,919.314598
516.700281,5773.606348,9992.780217,76.609550
516.700601,3997.112087,9030.512492,-1532.190996
516.700922,3849.070898,7994.224174,-1608.800546
516.701242,5033.400406,6439.791695,-383.047749
516.701563,4663.297435,6217.729913,766.095498
516.701884,5477.523971,8512.368333,919.314598
516.702204,5329.482782,10066.800811,-689.485948
516.702525,5033.400406,9844.739029,-2145.067394
516.702845,5329.482782,8142.265362,-842.705048
516.703166,4811.338623,6439.791695,612.876398
516.703486,5033.400406,5921.647536,1225.752797
516.703807,5921.647536,7254.018232,689.485948
516.704128,5403.503377,8660.409521,-1302.362347
516.704448,4737.318029,7920.203579,-2681.334243
516.704769,5403.503377,6957.935855,-1378.971896
516.705089,5329.482782,7254.018232,459.657299
516.705410,5477.523971,7994.224174,1072.533697
516.705730,5181.441594,8734.430116,-153.219100
516.706051,5551.544565,8882.471304,-1455.581446
516.706372,4737.318029,8882.471304,-842.705048
516.706692,3849.070898,8290.306550,383.047749
516.707013,3997.112087,7476.080014,1455.581446
516.707333,4737.318029,8512.368333,995.924147
516.707654,4367.215058,8438.347739,153.219100
516.707974,3182.885551,8586.388927,-459.657299
516.708295,3256.906145,7476.080014,0.000000
516.708616,2960.823768,6809.894666,842.705048
516.708936,3330.926739,7179.997637,1838.629195
516.709257,4811.338623,8438.347739,766.095498
516.709577,5625.565159,9548.656652,-689.485948
516.709898,5107.421000,9252.574275,-1072.533697
516.710219,5107.421000,9252.574275,76.609550
516.710539,5255.462188,8216.285956,842.705048
516.710860,5477.523971,7772.162391,536.266849
516.711180,5847.626942,8660.409521,-612.876398
516.711501,5477.523971,8882.471304,-1225.752797
516.711821,5033.400406,8142.265362,-1302.362347
516.712142,4145.153275,7328.038826,153.219100
516.712463,4145.153275,6809.894666,1302.362347
516.712783,4589.276840,7624.121203,842.705048
516.713104,5477.523971,9104.533087,0.000000
516.713424,5403.503377,9030.512492,-1149.143247
516.713745,5033.400406,8438.347739,-459.657299
516.714065,4145.153275,6513.812290,0.000000
516.714386,4367.215058,6217.729913,1072.533697
516.714707,6069.688724,8512.368333,995.924147
516.715027,4663.297435,9548.656652,153.219100
516.715348,5181.441594,8734.430116,-1225.752797
516.715668,5847.626942,7105.977043,-919.314598
516.715989,4959.379811,6883.915261,536.266849
516.716309,4885.359217,7254.018232,2145.067394
516.716630,5477.523971,8734.430116,0.000000
516.716951,5773.606348,8364.327145,-689.485948
516.717271,5107.421000,8660.409521,-229.828649
516.717592,4663.297435,7772.162391,536.266849
516.717912,4737.318029,7550.100608,153.219100
516.718233,4811.338623,8512.368333,76.609550
516.718553,5255.462188,8438.347739,-306.438199
516.718874,5403.503377,7402.059420,-766.095498
516.719195,5181.441594,6365.771101,-689.485948
516.719515,4589.276840,6365.771101,-766.095498
516.719836,4515.256246,7846.182985,153.219100
516.720156,5625.565159,8512.368333,0.000000
516.720477,6513.812290,8512.368333,-1532.190996
516.720798,7105.977043,7920.203579,-995.924147
516.721118,6809.894666,8438.347739,0.000000
516.721439,4737.318029,7476.080014,0.000000
516.721759,4811.338623,7328.038826,-306.438199
516.722080,5625.565159,8586.388927,-1991.848295
516.722400,5551.544565,8660.409521,-1378.971896
516.722721,5477.523971,8364.327145,-1532.190996
516.723042,4737.318029,8512.368333,0.000000
516.723362,3849.070898,8068.244768,459.657299
516.723683,4441.235652,8882.471304,459.657299
516.724003,5329.482782,8734.430116,-459.657299
516.724324,4959.379811,8734.430116,-459.657299
516.724644,4071.132681,8808.450710,842.705048
516.724965,4219.173869,8438.347739,1378.971896
516.725286,3627.009116,8660.409521,995.924147
516.725606,5329.482782,8882.471304,-459.657299
516.725927,5773.606348,8660.409521,-842.705048
516.726247,4145.153275,8216.285956,-1072.533697
516.726568,4145.153275,7772.162391,0.000000
516.726888,4293.194464,7550.100608,1149.143247
516.727209,4293.194464,7550.100608,306.438199
516.727530,5477.523971,8882.471304,-612.876398
516.727850,5551.544565,10362.883188,-1302.362347
516.728171,4663.297435,9622.677246,-995.924147
516.728491,4663.297435,8882.471304,306.438199
516.728812,4441.235652,7328.038826,689.485948
516.729133,5107.421000,7476.080014,1149.143247
516.729453,5477.523971,7550.100608,0.000000
516.729774,5033.400406,7476.080014,-1302.362347
516.730094,5181.441594,7179.997637,-1149.143247
516.730415,4811.338623,6513.812290,153.219100
516.730735,4737.318029,6883.915261,919.314598
516.731056,5773.606348,7031.956449,536.266849
516.731377,6069.688724,8364.327145,-689.485948
516.731697,6217.729913,7772.162391,-1225.752797
516.732018,5551.544565,6809.894666,-766.095498
516.732338,6217.729913,7105.977043,-306.438199
516.732659,5995.668130,7772.162391,-689.485948
516.732979,5847.626942,8808.450710,-766.095498
516.733300,6143.709319,9474.636058,-536.266849
516.733621,5403.503377,7328.038826,536.266849
516.733941,4737.318029,5847.626942,766.095498
516.734262,3997.112087,6143.709319,919.314598
516.734582,4145.153275,7772.162391,383.047749
516.734903,4071.132681,8882.471304,-995.924147
516.735223,5033.400406,8808.450710,-1378.971896
516.735544,5329.482782,8290.306550,-612.876398
516.735865,4811.338623,7328.038826,306.438199
516.736185,3923.091493,7254.018232,229.828649
516.736506,5181.441594,8734.430116,383.047749
516.736826,5181.441594,9992.780217,-383.047749
516.737147,4367.215058,8290.306550,-689.485948
516.737467,5181.441594,7105.977043,0.000000
516.737788,5551.544565,7328.038826,842.705048
516.738109,4737.318029,7994.224174,919.314598
516.738429,6217.729913,8586.388927,0.000000
516.738750,6069.688724,8290.306550,-1608.800546
516.739070,5329.482782,7846.182985,-995.924147
516.739391,5625.565159,7105.977043,1072.533697
516.739712,5551.544565,6809.894666,1762.019645
516.740032,5477.523971,7402.059420,612.876398
516.740353,5773.606348,9030.512492,-536.266849
516.740673,5551.544565,8956.491898,-1915.238745
516.740994,5329.482782,7846.182985,-1532.190996
516.741314,5181.441594,7105.977043,919.314598
516.741635,5477.523971,6883.915261,1149.143247
516.741956,5773.606348,8290.306550,0.000000
516.742276,4811.338623,9474.636058,-1149.143247
516.742597,4145.153275,9474.636058,-1685.410096
516.742917,5551.544565,8808.450710,153.219100
516.743238,5181.441594,7698.141797,1685.410096
516.743558,4367.215058,7105.977043,1225.752797
516.743879,4959.379811,8290.306550,0.000000
516.744200,4071.132681,9104.533087,-842.705048
516.744520,3108.864956,8216.285956,-919.314598
516.744841,3775.050304,7105.977043,153.219100
516.745161,4515.256246,7328.038826,919.314598
516.745482,3701.029710,7402.059420,153.219100
516.745802,4441.235652,9400.615463,0.000000
516.746123,5551.544565,9696.697840,-306.438199
516.746444,3775.050304,8512.368333,0.000000
516.746764,4811.338623,6661.853478,1378.971896
516.747085,5329.482782,5773.606348,1302.362347
516.747405,5625.565159,7328.038826,0.000000
516.747726,5625.565159,8290.306550,-919.314598
516.748047,5403.503377,7920.203579,-2451.505594
516.748367,6069.688724,7179.997637,-1762.019645
516.748688,6143.709319,5995.668130,0.000000
516.749008,6143.709319,7105.977043,383.047749
516.749329,6957.935855,8512.368333,-306.438199
516.749649,5699.585753,9696.697840,-919.314598
516.749970,5255.462188,9030.512492,-1378.971896
516.750291,5921.647536,7105.977043,0.000000
516.750611,5255.462188,6957.935855,995.924147
516.750932,5921.647536,7328.038826,459.657299
516.751252,4737.318029,8438.347739,-1302.362347
516.751573,4737.318029,8290.306550,-2068.457845
516.751893,5107.421000,7550.100608,-995.924147
516.752214,5033.400406,6661.853478,1608.800546
516.752535,4737.318029,7254.018232,1532.190996
516.752855,4589.276840,8882.471304,229.828649
516.753176,4367.215058,9696.697840,-1455.581446
516.753496,4737.318029,9474.636058,-1455.581446
516.753817,5699.585753,7550.100608,-306.438199
516.754137,5847.626942,7328.038826,766.095498
516.754458,5403.503377,7920.203579,229.828649
516.754779,4737.318029,9474.636058,-842.705048
516.755099,4885.359217,9770.718434,-1225.752797
516.755420,5551.544565,8660.409521,-536.266849
516.755740,5403.503377,7105.977043,1302.362347
516.756061,5699.585753,6735.874072,2068.457845
516.756381,5551.544565,7105.977043,995.924147
516.756702,4737.318029,8438.347739,-1532.190996
516.757023,4959.379811,8068.244768,-2451.505594
516.757343,6365.771101,7402.059420,-919.314598
516.757664,6735.874072,6365.771101,536.266849
516.757984,6291.750507,6735.874072,766.095498
516.758305,4885.359217,7550.100608,-995.924147
516.758626,5255.462188,10288.862594,-2221.676944
516.758946,4367.215058,10288.862594,-1225.752797
516.759267,5107.421000,8364.327145,-76.609550
516.759587,7031.956449,6661.853478,689.485948
516.759908,4959.379811,7179.997637,689.485948
516.760228,3775.050304,8808.450710,-766.095498
516.760549,3256.906145,9918.759623,-995.924147
516.760870,3330.926739,9770.718434,-766.095498
516.761190,4737.318029,8438.347739,612.876398
516.761511,4885.359217,7920.203579,1915.238745
516.761831,3997.112087,7846.182985,536.266849
516.762152,3256.906145,9548.656652,-459.657299
516.762472,3034.844362,9696.697840,0.000000
516.762793,3627.009116,8068.244768,919.314598
516.763114,4441.235652,6291.750507,1072.533697
516.763435,4515.256246,6291.750507,383.047749
516.763755,4441.235652,8956.491898,-459.657299
516.764076,4663.297435,10140.821405,-459.657299
516.764397,4441.235652,9474.636058,-1072.533697
516.764717,6217.729913,7105.977043,0.000000
516.765038,6365.771101,6143.709319,1225.752797
516.765359,5255.462188,8216.285956,1532.190996
516.765679,4293.194464,8290.306550,0.000000
516.766000,4367.215058,8586.388927,-1532.190996
516.766321,5403.503377,7402.059420,-1302.362347
516.766642,6217.729913,6143.709319,306.438199
516.766962,5477.523971,5995.668130,766.095498
516.767283,5477.523971,7772.162391,0.000000
516.767604,4811.338623,9918.759623,-1225.752797
516.767924,5181.441594,8512.368333,-1225.752797
516.768245,5551.544565,5995.668130,229.828649
516.768566,5773.606348,5773.606348,1378.971896
516.768887,5625.565159,7402.059420,1838.629195
516.769207,4515.256246,9326.594869,-383.047749
516.769528,4515.256246,9178.553681,-2145.067394
516.769849,5847.626942,7328.038826,-2145.067394
516.770169,5551.544565,5995.668130,-536.266849
516.770490,6069.688724,6069.688724,153.219100
516.770811,4811.338623,7772.162391,459.657299
516.771131,5551.544565,9696.697840,-229.828649
516.771452,5181.441594,10066.800811,-766.095498
516.771773,5699.585753,9400.615463,-306.438199
516.772094,4959.379811,7105.977043,383.047749
516.772414,5329.482782,7105.977043,1149.143247
516.772735,5181.441594,7328.038826,689.485948
516.773056,4885.359217,7846.182985,-1685.410096
516.773376,5625.565159,7698.141797,-2374.896044
516.773697,4959.379811,7105.977043,-1685.410096
516.774018,5773.606348,7624.121203,383.047749
516.774339,5773.606348,8290.306550,1532.190996
516.774659,4959.379811,9400.615463,-995.924147
516.774980,5255.462188,10066.800811,-1532.190996
516.775301,5329.482782,9622.677246,-1378.971896
516.775621,5551.544565,8660.409521,-306.438199
516.775942,4515.256246,7328.038826,383.047749
516.776263,3923.091493,7624.121203,-229.828649
516.776583,4293.194464,9252.574275,-842.705048
516.776904,2664.741391,9548.656652,0.000000
516.777225,3478.967927,10066.800811,-306.438199
516.777546,3701.029710,9474.636058,76.609550
516.777866,2886.803174,7994.224174,689.485948
516.778187,3552.988522,8808.450710,919.314598
516.778508,2664.741391,10658.965565,995.924147
516.778828,2368.659014,10288.862594,-536.266849
516.779149,3849.070898,8882.471304,0.000000
516.779470,3997.112087,7846.182985,612.876398
516.779791,4515.256246,7846.182985,1225.752797
516.780111,4145.153275,8216.285956,0.000000
516.780432,5625.565159,9104.533087,-1378.971896
516.780753,4885.359217,8438.347739,-612.876398
516.781073,4959.379811,6513.812290,689.485948
516.781394,6069.688724,5477.523971,1302.362347
516.781715,6661.853478,7624.121203,459.657299
516.782035,5551.544565,8660.409521,-536.266849
516.782356,6661.853478,8512.368333,-1838.629195
516.782677,7402.059420,6291.750507,-1838.629195
516.782998,6439.791695,5847.626942,-919.314598
516.783318,5847.626942,6217.729913,459.657299
516.783639,5625.565159,7920.203579,-306.438199
516.783960,5255.462188,8586.388927,-766.095498
516.784280,5773.606348,8660.409521,-766.095498
516.784601,5847.626942,7105.977043,229.828649
516.784922,4589.276840,6291.750507,229.828649
516.785243,3256.906145,7105.977043,995.924147
516.785563,3552.988522,8216.285956,383.047749
516.785884,4071.132681,9030.512492,-383.047749
516.786205,3849.070898,7994.224174,-153.219100
516.786525,3404.947333,7328.038826,76.609550
516.786846,4441.235652,8512.368333,1149.143247
516.787167,3997.112087,9178.553681,1149.143247
516.787487,3701.029710,8586.388927,-383.047749
516.787808,4515.256246,8734.430116,-1225.752797
516.788129,5033.400406,8660.409521,0.000000
516.788450,4515.256246,8216.285956,1225.752797
516.788770,4441.235652,7031.956449,1378.971896
516.789091,5625.565159,7550.100608,383.047749
516.789412,5921.647536,9104.533087,-995.924147
516.789732,5255.462188,9548.656652,-1302.362347
516.790053,6217.729913,8808.450710,0.000000
516.790374,6587.832884,7254.018232,0.000000
516.790694,6365.771101,7031.956449,766.095498
516.791015,6513.812290,7105.977043,-459.657299
516.791336,5699.585753,7624.121203,-1608.800546
516.791657,5329.482782,7994.224174,-995.924147
516.791977,5773.606348,7328.038826,229.828649
516.792298,6143.709319,6587.832884,689.485948
516.792619,5847.626942,7254.018232,0.000000
516.792939,5181.441594,9474.636058,-1302.362347
516.793260,4737.318029,10658.965565,-2145.067394
516.793581,4515.256246,10140.821405,-1991.848295
516.793902,4737.318029,8216.285956,0.000000
516.794222,4737.318029,7105.977043,1302.362347
516.794543,4071.132681,8290.306550,1225.752797
516.794864,2664.741391,9622.677246,-229.828649
516.795184,2294.638420,9548.656652,-995.924147
516.795505,3330.926739,8364.327145,-383.047749
516.795826,3775.050304,7179.997637,1225.752797
516.796146,4293.194464,8216.285956,1378.971896
516.796467,3923.091493,9992.780217,689.485948
516.796788,3108.864956,11103.089130,-1608.800546
516.797109,3627.009116,10510.924376,-1072.533697
516.797429,4663.297435,8512.368333,306.438199
516.797750,5329.482782,7031.956449,1685.410096
516.798071,5033.400406,7476.080014,536.266849
516.798391,4737.318029,8808.450710,-1532.190996
516.798712,4737.318029,9030.512492,-2374.896044
516.799033,5181.441594,7920.203579,-1608.800546
516.799354,6143.709319,6291.750507,76.609550
516.799674,6069.688724,6587.832884,919.314598
516.799995,6439.791695,8586.388927,612.876398
516.800316,5477.523971,9918.759623,-766.095498
516.800636,5847.626942,8290.306550,-995.924147
516.800957,6439.791695,6513.812290,0.000000
516.801278,6439.791695,5181.441594,995.924147
516.801598,6069.688724,5625.565159,919.314598
516.801919,5625.565159,7031.956449,-919.314598
516.802240,5255.462188,8290.306550,-1762.019645
516.802561,5107.421000,8216.285956,-1225.752797
516.802881,5699.585753,7105.977043,0.000000
516.803202,4959.379811,6291.750507,1455.581446
516.803523,5699.585753,7105.977043,1685.410096
516.803843,5551.544565,8216.285956,153.219100
516.804164,4811.338623,8882.471304,-1838.629195
516.804485,5033.400406,8142.265362,-1302.362347
516.804806,5255.462188,7920.203579,612.876398
516.805126,4589.276840,7698.141797,1838.629195
516.805447,5033.400406,8142.265362,1532.190996
516.805768,4441.235652,8512.368333,-612.876398
516.806088,3701.029710,8512.368333,-1225.752797
516.806409,3182.885551,7328.038826,383.047749
516.806730,3775.050304,6809.894666,1225.752797
516.807050,4811.338623,7624.121203,1762.019645
516.807371,4885.359217,9252.574275,919.314598
516.807692,4293.194464,9696.697840,-1608.800546
516.808013,4663.297435,8956.491898,-1838.629195
516.808333,4737.318029,7846.182985,-689.485948
516.808654,4367.215058,7254.018232,306.438199
516.808975,5625.565159,7920.203579,306.438199
516.809295,6069.688724,9770.718434,-612.876398
516.809616,5551.544565,10066.800811,-1378.971896
516.809937,4737.318029,7846.182985,-1072.533697
516.810257,5107.421000,5625.565159,919.314598
516.810578,5033.400406,6069.688724,1838.629195
516.810899,5033.400406,8290.306550,1378.971896
516.811220,5699.585753,9992.780217,-536.266849
516.811540,6217.729913,9474.636058,-2451.505594
516.811861,5625.565159,8438.347739,-612.876398
516.812182,5477.523971,7105.977043,1149.143247
516.812502,5033.400406,6439.791695,689.485948
516.812823,4589.276840,7994.224174,153.219100
516.813144,4737.318029,9178.553681,-689.485948
516.813465,4959.379811,9178.553681,-1225.752797
516.813785,4663.297435,7772.162391,-153.219100
516.814106,3923.091493,7179.997637,612.876398
516.814427,4515.256246,8438.347739,689.485948
516.814747,4737.318029,10140.821405,0.000000
516.815068,4367.215058,10214.842000,-766.095498
516.815389,4145.153275,8364.327145,-536.266849
516.815709,4959.379811,7031.956449,306.438199
516.816030,4441.235652,7624.121203,1072.533697
516.816351,3997.112087,8956.491898,306.438199
516.816672,4811.338623,8290.306550,-1455.581446
516.816992,5403.503377,7846.182985,-1838.629195
516.817313,5403.503377,7179.997637,-919.314598
516.817634,5477.523971,5995.668130,612.876398
516.817954,5107.421000,6809.894666,689.485948
516.818275,5773.606348,8660.409521,-919.314598
516.818596,5477.523971,9918.759623,-1532.190996
516.818917,6069.688724,8956.491898,-995.924147
516.819237,6661.853478,7254.018232,0.000000
516.819558,5847.626942,6217.729913,383.047749
516.819879,6069.688724,6735.874072,0.000000
516.820199,5773.606348,7994.224174,-1608.800546
516.820520,5181.441594,7920.203579,-2145.067394
516.820841,5255.462188,7105.977043,-229.828649
516.821161,5477.523971,6143.709319,919.314598
516.821482,5477.523971,6217.729913,1225.752797
516.821803,4959.379811,7994.224174,612.876398
516.822124,5551.544565,9400.615463,-842.705048
516.822444,4737.318029,9622.677246,-1378.971896
516.822765,5107.421000,8660.409521,76.609550
516.823086,5477.523971,6735.874072,1378.971896
516.823406,5181.441594,6365.771101,995.924147
516.823727,4589.276840,7846.182985,-229.828649
516.824048,4293.194464,10362.883188,-1532.190996
516.824369,3627.009116,9548.656652,-1532.190996
516.824689,4515.256246,7328.038826,76.609550
516.825010,6587.832884,6365.771101,2221.676944
516.825331,4885.359217,7105.977043,1378.971896
516.825651,4589.276840,9252.574275,-689.485948
516.825972,4293.194464,9474.636058,-1838.629195
516.826293,5625.565159,9474.636058,-1302.362347
516.826613,6513.812290,7994.224174,1149.143247
516.826934,6365.771101,6883.915261,1608.800546
516.827255,5551.544565,8068.244768,-536.266849
516.827576,4589.276840,9326.594869,-1608.800546
516.827896,3923.091493,8882.471304,-1608.800546
516.828217,6069.688724,6957.935855,-383.047749
516.828538,6143.709319,5773.606348,1991.848295
516.828858,4811.338623,6365.771101,1225.752797
516.829179,4441.235652,8068.244768,-612.876398
516.829500,4663.297435,10140.821405,-1378.971896
516.829820,4589.276840,9918.759623,-1915.238745
516.830141,5773.606348,7698.141797,-612.876398
516.830462,6513.812290,6735.874072,612.876398
516.830783,4737.318029,8142.265362,919.314598
516.831103,2812.782580,8586.388927,0.000000
516.831424,3775.050304,9178.553681,-1149.143247
516.831745,4293.194464,8068.244768,-995.924147
516.832065,4145.153275,5921.647536,229.828649
516.832386,5181.441594,6883.915261,1225.752797
516.832707,4885.359217,9104.533087,306.438199
516.833028,3552.988522,10288.862594,-612.876398
516.833348,4219.173869,9326.594869,-459.657299
516.833669,5403.503377,7846.182985,0.000000
516.833990,4293.194464,7105.977043,689.485948
516.834310,4515.256246,7772.162391,1072.533697
516.834631,4959.379811,9030.512492,-766.095498
516.834952,3849.070898,9696.697840,-2604.724693
516.835272,4071.132681,8586.388927,-1455.581446
516.835593,4885.359217,6809.894666,-536.266849
516.835914,5033.400406,6439.791695,612.876398
516.836235,4885.359217,8142.265362,1072.533697
516.836555,5033.400406,9770.718434,229.828649
516.836876,5181.441594,9770.718434,-2145.067394
516.837197,5921.647536,8586.388927,-536.266849
516.837517,6143.709319,6957.935855,1685.410096
516.837838,5477.523971,6661.853478,1685.410096
516.838159,4959.379811,7624.121203,766.095498
516.838480,5107.421000,7624.121203,-2221.676944
516.838800,4663.297435,7550.100608,-2451.505594
516.839121,6291.750507,7402.059420,-612.876398
516.839442,5921.647536,7031.956449,919.314598
516.839762,5329.482782,7550.100608,612.876398
516.840083,5699.585753,8808.450710,0.000000
516.840404,4515.256246,9104.533087,-1685.410096
516.840724,4441.235652,8364.327145,-1149.143247
516.841045,5477.523971,7624.121203,919.314598
516.841366,5477.523971,7254.018232,1685.410096
516.841687,5403.503377,8216.285956,766.095498
516.842007,5033.400406,8734.430116,-995.924147
516.842328,4219.173869,9178.553681,-2451.505594
516.842649,4663.297435,8142.265362,-1149.143247
516.842969,4885.359217,7105.977043,1378.971896
516.843290,5033.400406,5995.668130,2221.676944
516.843611,4737.318029,7624.121203,1072.533697
516.843932,4737.318029,9326.594869,-766.095498
516.844252,3552.988522,9770.718434,-1762.019645
516.844573,5477.523971,8956.491898,-229.828649
516.844894,6143.709319,7179.997637,536.266849
516.845214,5329.482782,6735.874072,766.095498
516.845535,5107.421000,7994.224174,-383.047749
516.845856,4589.276840,9992.780217,-1378.971896
516.846176,3849.070898,9326.594869,-1838.629195
516.846497,5551.544565,6883.915261,0.000000
516.846818,5995.668130,5181.441594,766.095498
516.847139,5329.482782,6439.791695,0.000000
516.847459,5033.400406,8364.327145,-536.266849
516.847780,4811.338623,9548.656652,-1455.581446
516.848101,5329.482782,8956.491898,-1608.800546
516.848421,6143.709319,8512.368333,0.000000
516.848742,5255.462188,7179.997637,-383.047749
516.849063,5181.441594,7550.100608,-919.314598
516.849384,4589.276840,9104.533087,-612.876398
516.849704,3775.050304,9622.677246,-919.314598
516.850025,4737.318029,8142.265362,-536.266849
516.850346,4737.318029,6513.812290,383.047749
516.850666,4293.194464,7328.038826,612.876398
516.850987,4959.379811,9548.656652,995.924147
516.851308,4663.297435,10362.883188,-536.266849
516.851628,4515.256246,8882.471304,-1915.238745
516.851949,5403.503377,7772.162391,-153.219100
516.852270,6143.709319,7698.141797,689.485948
516.852591,4811.338623,7920.203579,1608.800546
516.852911,5329.482782,8734.430116,153.219100
516.853232,5181.441594,9548.656652,-1532.190996
516.853553,4071.132681,9104.533087,-1302.362347
516.853873,4145.153275,7402.059420,612.876398
516.854194,5847.626942,6365.771101,1532.190996
516.854515,5773.606348,7550.100608,612.876398
516.854835,5033.400406,9474.636058,-383.047749
516.855156,4145.153275,8882.471304,-2221.676944
516.855477,4811.338623,7698.141797,-1762.019645
516.855798,4885.359217,7624.121203,1072.533697
516.856118,5033.400406,8216.285956,1915.238745
516.856439,5033.400406,9030.512492,0.000000
516.856760,4589.276840,9326.594869,-2221.676944
516.857080,3256.906145,8808.450710,-2451.505594
516.857401,3256.906145,7105.977043,76.609550
516.857722,4515.256246,6291.750507,1532.190996
516.858043,4515.256246,7031.956449,1149.143247
516.858363,5107.421000,9400.615463,-229.828649
516.858684,4441.235652,9992.780217,-2451.505594
516.859005,4367.215058,9474.636058,-1532.190996
516.859325,4737.318029,8216.285956,306.438199
516.859646,5181.441594,7920.203579,2528.115143
516.859967,4663.297435,7994.224174,1608.800546
516.860287,4811.338623,8586.388927,-536.266849
516.860608,3997.112087,8734.430116,-1149.143247
516.860929,4293.194464,8364.327145,76.609550
516.861250,4145.153275,6735.874072,1225.752797
516.861570,3701.029710,5847.626942,842.705048
516.861891,4811.338623,7179.997637,0.000000
516.862212,4959.379811,8956.491898,-612.876398
516.862532,4589.276840,9474.636058,-689.485948
516.862853,5551.544565,9474.636058,0.000000
516.863174,5329.482782,8216.285956,689.485948
516.863494,5625.565159,7846.182985,842.705048
516.863815,6809.894666,7846.182985,229.828649
516.864136,5107.421000,8364.327145,-1455.581446
516.864456,4737.318029,7698.141797,-1302.362347
516.864777,4367.215058,6587.832884,-1225.752797
516.865098,5033.400406,5699.585753,-536.266849
516.865418,6365.771101,7328.038826,0.000000
516.865739,5847.626942,9474.636058,-689.485948
516.866060,4367.215058,9696.697840,-1225.752797
516.866380,4885.359217,8364.327145,-306.438199
516.866701,5181.441594,7254.018232,1302.362347
516.867021,5403.503377,6883.915261,1608.800546
516.867342,6513.812290,8364.327145,229.828649
516.867663,6217.729913,9030.512492,-1762.019645
516.867983,4737.318029,8216.285956,-2528.115143
516.868304,4885.359217,5921.647536,-766.095498
516.868625,6069.688724,6143.709319,919.314598
516.868945,5625.565159,7550.100608,1149.143247
516.869266,5255.462188,8882.471304,-536.266849
516.869587,5995.668130,9992.780217,-2221.676944
516.869907,5551.544565,9326.594869,-1532.190996
516.870228,5255.462188,7550.100608,766.095498
516.870549,5477.523971,7328.038826,2374.896044
516.870869,5699.585753,8956.491898,229.828649
516.871190,4663.297435,9770.718434,-995.924147
516.871511,4737.318029,9844.739029,-1991.848295
516.871831,5551.544565,7920.203579,-1685.410096
516.872152,3478.967927,6587.832884,766.095498
516.872473,2960.823768,6365.771101,1685.410096
516.872793,4515.256246,8438.347739,1608.800546
516.873114,3997.112087,9622.677246,0.000000
516.873435,3997.112087,9104.533087,-1455.581446
516.873755,5477.523971,9548.656652,-2451.505594
516.874076,5329.482782,8734.430116,-689.485948
516.874397,4737.318029,9104.533087,153.219100
516.874717,5477.523971,9030.512492,383.047749
516.875038,5773.606348,9104.533087,-1302.362347
516.875359,4663.297435,8586.388927,0.000000
516.875679,3404.947333,6587.832884,459.657299
516.876000,3775.050304,6291.750507,153.219100
516.876321,5181.441594,8290.306550,612.876398
516.876641,4959.379811,9474.636058,0.000000
516.876962,5107.421000,9474.636058,-1532.190996
516.877282,6069.688724,7624.121203,-536.266849
516.877603,4811.338623,7624.121203,153.219100
516.877924,3997.112087,7476.080014,689.485948
516.878244,4737.318029,8290.306550,-306.438199
516.878565,4515.256246,9400.615463,-919.314598
516.878886,4589.276840,9400.615463,-76.609550
516.879206,5255.462188,7994.224174,1378.971896
516.879527,4663.297435,6809.894666,1072.533697
516.879848,3552.988522,7105.977043,-306.438199
516.880168,3923.091493,9030.512492,-919.314598
516.880489,3478.967927,9178.553681,-1991.848295
516.880810,4293.194464,8142.265362,0.000000
516.881130,5551.544565,7698.141797,2221.676944
516.881451,4811.338623,7994.224174,1762.019645
516.881772,3552.988522,8956.491898,0.000000
516.882092,3775.050304,9104.533087,-1072.533697
516.882413,4737.318029,8216.285956,-612.876398
516.882734,5773.606348,7105.977043,995.924147
516.883054,5625.565159,5847.626942,1532.190996
516.883375,4885.359217,6143.709319,0.000000
516.883696,4663.297435,8068.244768,-842.705048
516.884016,4811.338623,8290.306550,-689.485948
516.884337,5551.544565,7254.018232,-459.657299
516.884658,7550.100608,7031.956449,1225.752797
516.884978,7105.977043,6809.894666,1685.410096
516.885299,6143.709319,8068.244768,-383.047749
516.885620,6513.812290,8586.388927,-2221.676944
516.885940,5995.668130,8142.265362,-2757.943793
516.886261,6439.791695,6365.771101,-1532.190996
516.886582,6883.915261,5107.421000,689.485948
516.886902,5477.523971,5107.421000,306.438199
516.887223,4737.318029,7994.224174,-689.485948
516.887543,4737.318029,10436.903782,-1455.581446
516.887864,4589.276840,10658.965565,-383.047749
516.888185,5995.668130,9474.636058,919.314598
516.888505,7105.977043,8068.244768,2757.943793
516.888826,4367.215058,7105.977043,1532.190996
516.889147,2738.761985,6735.874072,0.000000
516.889467,3182.885551,8956.491898,-612.876398
516.889788,3552.988522,9252.574275,-612.876398
516.890109,4071.132681,7698.141797,459.657299
516.890429,6587.832884,7031.956449,536.266849
516.890750,4959.379811,8438.347739,0.000000
516.891071,3627.009116,10066.800811,-689.485948
516.891391,2960.823768,9770.718434,-689.485948
516.891712,5255.462188,8586.388927,-689.485948
516.892033,6217.729913,7920.203579,1302.362347
516.892353,5847.626942,8364.327145,1762.019645
516.892674,5033.400406,8660.409521,-1149.143247
516.892995,4219.173869,9992.780217,-2834.553343
516.893315,3552.988522,8882.471304,-2221.676944
516.893636,5625.565159,6957.935855,-842.705048
516.893957,7031.956449,5995.668130,919.314598
516.894277,4811.338623,6661.853478,1225.752797
516.894598,4071.132681,8438.347739,-612.876398
516.894919,4515.256246,9770.718434,-1838.629195
516.895239,4737.318029,9548.656652,-1762.019645
516.895560,6439.791695,7698.141797,-383.047749
516.895881,7105.977043,6513.812290,383.047749
516.896201,5921.647536,7698.141797,-306.438199
516.896522,4441.235652,9400.615463,-919.314598
516.896843,3552.988522,9400.615463,-1991.848295
516.897163,4293.194464,8216.285956,-1302.362347
516.897484,5403.503377,7624.121203,1378.971896
516.897804,5329.482782,7846.182985,2451.505594
516.898125,5329.482782,8068.244768,1302.362347
516.898446,4367.215058,8290.306550,0.000000
516.898766,3849.070898,8142.265362,-1455.581446
516.899087,4515.256246,7328.038826,-612.876398
516.899408,4811.338623,6513.812290,1455.581446
516.899728,6439.791695,7179.997637,1532.190996
516.900049,6809.894666,8142.265362,919.314598
516.900370,5255.462188,9400.615463,-459.657299
516.900690,4885.359217,8586.388927,-2068.457845
516.901011,5107.421000,7105.977043,-536.266849
516.901332,6439.791695,5477.523971,1072.533697
516.901652,6883.915261,6143.709319,1149.143247
516.901973,6291.750507,7994.224174,-536.266849
516.902294,4663.297435,8808.450710,-2834.553343
516.902614,4737.318029,8290.306550,-1991.848295
516.902935,5921.647536,7328.038826,229.828649
516.903256,6957.935855,6883.915261,1378.971896
516.903576,6217.729913,7550.100608,766.095498
516.903897,5477.523971,8660.409521,-1762.019645
516.904218,4071.132681,9252.574275,-2298.286494
516.904538,4071.132681,7179.997637,-383.047749
516.904859,5329.482782,6143.709319,1685.410096
516.905180,5403.503377,6809.894666,2068.457845
516.905500,4145.153275,8808.450710,766.095498
516.905821,3108.864956,10881.027347,-689.485948
516.906142,3552.988522,10066.800811,-1455.581446
516.906462,4885.359217,8290.306550,306.438199
516.906783,5403.503377,7550.100608,1838.629195
516.907104,4959.379811,7772.162391,1225.752797
516.907424,3923.091493,9178.553681,0.000000
516.907745,3108.864956,10214.842000,-1149.143247
516.908065,3330.926739,8808.450710,-1072.533697
516.908386,4145.153275,7328.038826,306.438199
516.908707,5107.421000,6661.853478,1149.143247
516.909027,4441.235652,8216.285956,306.438199
516.909348,4663.297435,9918.759623,-689.485948
516.909669,3923.091493,10066.800811,-1762.019645
516.909989,4663.297435,8882.471304,-1149.143247
516.910310,5625.565159,7920.203579,689.485948
516.910631,6217.729913,7476.080014,1225.752797
516.910951,6439.791695,7624.121203,459.657299
516.911272,5477.523971,7698.141797,-842.705048
516.911593,4589.276840,7179.997637,-1378.971896
516.911913,5329.482782,7031.956449,-842.705048
516.912234,5403.503377,6513.812290,76.609550
516.912555,6587.832884,7031.956449,-459.657299
516.912875,7105.977043,8512.368333,-1225.752797
516.913196,5107.421000,9474.636058,-1838.629195
516.913517,4737.318029,9030.512492,-1685.410096
516.913837,5551.544565,7920.203579,76.609550
516.914158,5921.647536,7105.977043,1532.190996
516.914479,5921.647536,7846.182985,1072.533697
516.914799,5477.523971,9400.615463,-766.095498
516.915120,4071.132681,9326.594869,-1685.410096
516.915441,4367.215058,8364.327145,-306.438199
516.915761,4737.318029,7550.100608,1915.238745
516.916082,4737.318029,6069.688724,2451.505594
516.916403,4737.318029,7402.059420,1149.143247
516.916723,3182.885551,8808.450710,-1991.848295
516.917044,3552.988522,9030.512492,-2451.505594
516.917364,5773.606348,9178.553681,0.000000
516.917685,6513.812290,7846.182985,1072.533697
516.918006,6291.750507,7402.059420,306.438199
516.918326,5773.606348,7994.224174,-536.266849
516.918647,4515.256246,9844.739029,-689.485948
516.918968,4219.173869,8142.265362,-383.047749
516.919288,5403.503377,6069.688724,995.924147
516.919609,6587.832884,5403.503377,919.314598
516.919930,6957.935855,6809.894666,0.000000
516.920250,5773.606348,8290.306550,-612.876398
516.920571,5181.441594,8290.306550,-1685.410096
516.920892,5625.565159,7105.977043,-689.485948
516.921212,6143.709319,5847.626942,536.266849
516.921533,6069.688724,5477.523971,995.924147
516.921854,6217.729913,7994.224174,459.657299
516.922174,5255.462188,10214.842000,-1378.971896
516.922495,4441.235652,9474.636058,-2145.067394
516.922816,4737.318029,7846.182985,-919.314598
516.923136,5699.585753,6809.894666,612.876398
516.923457,4663.297435,7105.977043,1378.971896
516.923778,4145.153275,8216.285956,383.047749
516.924098,3552.988522,9548.656652,-1455.581446
516.924419,3701.029710,9400.615463,-612.876398
516.924740,4367.215058,8586.388927,1149.143247
516.925060,4885.359217,7402.059420,2068.457845
516.925381,4219.173869,7402.059420,1378.971896
516.925702,3478.967927,8586.388927,-459.657299
516.926022,3108.864956,7994.224174,-1378.971896
516.926343,4367.215058,7179.997637,-1225.752797
516.926664,4959.379811,7031.956449,0.000000
516.926984,5181.441594,7994.224174,229.828649
516.927305,5329.482782,10288.862594,-383.047749
516.927625,4737.318029,10658.965565,-1455.581446
516.927946,4441.235652,9770.718434,-1532.190996
516.928267,6143.709319,7550.100608,-383.047749
516.928587,5921.647536,5995.668130,1149.143247
516.928908,5477.523971,6439.791695,536.266849
516.929229,5181.441594,8364.327145,-689.485948
516.929549,4663.297435,9474.636058,-2911.162892
516.929870,4367.215058,8882.471304,-2298.286494
516.930191,5625.565159,7698.141797,76.609550
516.930511,5699.585753,7105.977043,1302.362347
516.930832,4441.235652,7994.224174,919.314598
516.931153,3997.112087,8808.450710,-536.266849
516.931473,2960.823768,10140.821405,-2145.067394
516.931794,3404.947333,9844.739029,0.000000
516.932115,4071.132681,8586.388927,1762.019645
516.932435,4737.318029,7846.182985,689.485948
516.932756,5625.565159,7994.224174,-459.657299
516.933077,4219.173869,8586.388927,-459.657299
516.933397,3256.906145,8068.244768,-842.705048
516.933718,4737.318029,7846.182985,229.828649
516.934039,5033.400406,7994.224174,1225.752797
516.934359,5181.441594,7698.141797,383.047749
516.934680,7328.038826,8290.306550,-383.047749
516.935001,5255.462188,8734.430116,-1149.143247
516.935321,4219.173869,8142.265362,-1378.971896
516.935642,5181.441594,6439.791695,76.609550
516.935963,6365.771101,5329.482782,383.047749
516.936283,6735.874072,6809.894666,0.000000
516.936604,6365.771101,9030.512492,-536.266849
516.936925,5477.523971,8808.450710,-2528.115143
516.937245,5773.606348,7476.080014,-1838.629195
516.937566,6587.832884,6513.812290,1532.190996
516.937886,7179.997637,5773.606348,2451.505594
516.938207,6883.915261,7179.997637,459.657299
516.938528,4441.235652,8216.285956,-1991.848295
516.938848,3627.009116,7994.224174,-3370.820191
516.939169,5329.482782,7920.203579,-919.314598
516.939490,5625.565159,7105.977043,612.876398
516.939810,5329.482782,7105.977043,689.485948
516.940131,5329.482782,9104.533087,-229.828649
516.940452,3034.844362,10436.903782,-1302.362347
516.940772,2072.576638,8512.368333,0.000000
516.941093,3997.112087,6957.935855,1762.019645
516.941414,4959.379811,6957.935855,2221.676944
516.941734,4737.318029,8142.265362,1149.143247
516.942055,3849.070898,9326.594869,-536.266849
516.942376,3404.947333,9474.636058,-2145.067394
516.942696,3849.070898,9400.615463,-1225.752797
516.943017,4515.256246,7920.203579,306.438199
516.943338,5255.462188,7105.977043,689.485948
516.943658,6217.729913,9030.512492,229.828649
516.943979,4885.359217,10436.903782,-536.266849
516.944300,3997.112087,9474.636058,-1149.143247
516.944620,5181.441594,7328.038826,0.000000
516.944941,5921.647536,5403.503377,612.876398
516.945262,5847.626942,6365.771101,0.000000
516.945582,6069.688724,7772.162391,-919.314598
516.945903,5329.482782,9326.594869,-2528.115143
516.946224,5403.503377,9400.615463,-1532.190996
516.946544,6365.771101,8290.306550,919.314598
516.946865,6365.771101,7402.059420,1378.971896
516.947186,5773.606348,7698.141797,229.828649
516.947506,4663.297435,9178.553681,-1302.362347
516.947827,3108.864956,9104.533087,-1838.629195
516.948147,4145.153275,7994.224174,-612.876398
516.948468,4811.338623,7254.018232,1225.752797
516.948789,3997.112087,7105.977043,1378.971896
516.949109,3997.112087,8808.450710,306.438199
516.949430,2812.782580,10362.883188,-766.095498
516.949751,2812.782580,9844.739029,-842.705048
516.950071,4367.215058,8364.327145,1072.533697
516.950392,4367.215058,7105.977043,2145.067394
516.950713,4441.235652,7994.224174,1149.143247
516.951033,4441.235652,9178.553681,76.609550
516.951354,3182.885551,9252.574275,-995.924147
516.951675,3775.050304,8068.244768,-536.266849
516.951995,4959.379811,6587.832884,536.266849
516.952316,5403.503377,6513.812290,383.047749
516.952637,6143.709319,8512.368333,-306.438199
516.952957,6439.791695,9992.780217,-1378.971896
516.953278,5773.606348,9474.636058,-2068.457845
516.953599,5255.462188,7772.162391,-689.485948
516.953919,6069.688724,5773.606348,1762.019645
516.954240,6069.688724,5107.421000,1915.238745
516.954561,6439.791695,6735.874072,995.924147
516.954881,5773.606348,7254.018232,-1685.410096
516.955202,4441.235652,6513.812290,-2911.162892
516.955523,5847.626942,5995.668130,-1225.752797
516.955843,7179.997637,6957.935855,919.314598
516.956164,6957.935855,7550.100608,229.828649
516.956485,6735.874072,8364.327145,-766.095498
516.956805,5847.626942,9178.553681,-2451.505594
516.957126,4071.132681,9030.512492,-1532.190996
516.957447,4589.276840,8142.265362,1838.629195
516.957767,5255.462188,7402.059420,2145.067394
516.958088,4441.235652,7698.141797,0.000000
516.958408,3330.926739,9030.512492,-1762.019645
516.958729,1998.556043,9104.533087,-2528.115143
516.959050,2812.782580,8586.388927,-1072.533697
516.959370,3849.070898,8364.327145,2451.505594
516.959691,4737.318029,8068.244768,2604.724693
516.960012,5403.503377,9992.780217,995.924147
516.960332,2368.659014,10362.883188,-459.657299
516.960653,1332.370696,8956.491898,-2068.457845
516.960974,3775.050304,7920.203579,0.000000
516.961294,5477.523971,7402.059420,1685.410096
516.961615,5921.647536,7698.141797,536.266849
516.961936,6513.812290,8808.450710,-1455.581446
516.962256,5107.421000,9918.759623,-3140.991542
516.962577,4219.173869,9030.512492,-2145.067394
516.962898,6143.709319,7105.977043,995.924147
516.963218,7846.182985,6439.791695,2145.067394
516.963539,8364.327145,7328.038826,536.266849
516.963860,7328.038826,8956.491898,-536.266849
516.964180,4885.359217,8808.450710,-2681.334243
516.964501,4515.256246,6809.894666,-1685.410096
516.964822,6809.894666,6661.853478,612.876398
516.965142,6513.812290,6365.771101,459.657299
516.965463,5699.585753,7772.162391,-1225.752797
516.965783,5847.626942,9770.718434,-1685.410096
516.966104,3775.050304,9844.739029,-1302.362347
516.966424,3775.050304,8290.306550,995.924147
516.966745,4441.235652,6809.894666,1685.410096
516.967065,4367.215058,6883.915261,919.314598
516.967386,4071.132681,8364.327145,689.485948
516.967707,3034.844362,9474.636058,-536.266849
516.968027,2368.659014,9770.718434,-1378.971896
516.968348,3256.906145,8956.491898,0.000000
516.968668,4071.132681,8142.265362,766.095498
516.968989,4515.256246,8068.244768,383.047749
516.969309,4663.297435,9622.677246,536.266849
516.969630,2812.782580,10288.862594,76.609550
516.969951,3034.844362,8512.368333,0.000000
516.970271,3997.112087,6957.935855,1762.019645
516.970592,5255.462188,5995.668130,1302.362347
516.970912,5921.647536,7402.059420,0.000000
516.971233,5477.523971,9252.574275,-1302.362347
516.971553,4515.256246,9548.656652,-1991.848295
516.971874,5625.565159,7402.059420,-459.657299
516.972195,7031.956449,6365.771101,766.095498
516.972515,7624.121203,6217.729913,1149.143247
516.972836,6809.894666,7698.141797,-689.485948
516.973156,5477.523971,8290.306550,-1532.190996
516.973477,4885.359217,7550.100608,-1915.238745
516.973797,5847.626942,6439.791695,153.219100
516.974118,7328.038826,5181.441594,1532.190996
516.974439,7402.059420,6439.791695,689.485948
516.974759,5699.585753,8290.306550,-1762.019645
516.975080,4219.173869,8660.409521,-3447.429741
516.975400,4737.318029,7624.121203,-1685.410096
516.975721,5477.523971,7105.977043,1608.800546
516.976041,5625.565159,7772.162391,2911.162892
516.976362,4737.318029,8660.409521,842.705048
516.976682,3923.091493,9992.780217,-1302.362347
516.977003,3552.988522,8808.450710,-1608.800546
516.977324,3701.029710,6365.771101,0.000000
516.977644,4145.153275,4959.379811,1455.581446
516.977965,5107.421000,7624.121203,1072.533697
516.978285,4219.173869,10732.986159,76.609550
516.978606,3627.009116,11473.192101,-1685.410096
516.978926,5329.482782,9770.718434,-919.314598
516.979247,5773.606348,8882.471304,689.485948
516.979568,4885.359217,7254.018232,2374.896044
516.979888,4737.318029,7402.059420,1608.800546
516.980209,5403.503377,8808.450710,-689.485948
516.980529,4367.215058,8734.430116,-1608.800546
516.980850,4367.215058,7402.059420,-842.705048
516.981170,5329.482782,6291.750507,-1072.533697
516.981491,5625.565159,6809.894666,0.000000
516.981812,6217.729913,8660.409521,459.657299
516.982132,6291.750507,9844.739029,-1302.362347
516.982453,5847.626942,9030.512492,-2068.457845
516.982773,5255.462188,7994.224174,-306.438199
516.983094,5625.565159,7402.059420,1149.143247
516.983414,6143.709319,7550.100608,383.047749
516.983735,5329.482782,9104.533087,-689.485948
516.984056,4589.276840,8956.491898,-2374.896044
516.984376,4589.276840,8216.285956,-1608.800546
516.984697,4663.297435,6957.935855,612.876398
516.985017,4589.276840,6513.812290,1685.410096
516.985338,4885.359217,7994.224174,459.657299
516.985658,3775.050304,9474.636058,-919.314598
516.985979,3701.029710,9696.697840,-612.876398
516.986300,4663.297435,9178.553681,1149.143247
516.986620,4441.235652,7698.141797,2451.505594
516.986941,4219.173869,6513.812290,1685.410096
516.987261,4293.194464,7402.059420,76.609550
516.987582,3701.029710,8956.491898,-1915.238745
516.987902,3256.906145,9252.574275,-1455.581446
516.988223,5477.523971,7920.203579,-383.047749
516.988543,6291.750507,7179.997637,1608.800546
516.988864,6439.791695,7254.018232,689.485948
516.989185,6291.750507,8808.450710,-306.438199
516.989505,5551.544565,9252.574275,-2298.286494
516.989826,5255.462188,7846.182985,-1225.752797
516.990146,6439.791695,6291.750507,1149.143247
516.990467,6883.915261,5551.544565,1378.971896
516.990787,6735.874072,6957.935855,0.000000
516.991108,5477.523971,8956.491898,-1378.971896
516.991429,4441.235652,8882.471304,-2451.505594
516.991749,4811.338623,7031.956449,-766.095498
516.992070,6069.688724,5403.503377,2145.067394
516.992390,6587.832884,5995.668130,1685.410096
516.992711,6291.750507,8142.265362,306.438199
516.993031,4811.338623,9474.636058,-1991.848295
516.993352,3701.029710,8956.491898,-1991.848295
516.993673,4737.318029,7179.997637,459.657299
516.993993,5033.400406,6217.729913,1762.019645
516.994314,4737.318029,7402.059420,1149.143247
516.994634,4145.153275,9474.636058,-1149.143247
516.994955,2960.823768,10214.842000,-2451.505594
516.995275,3108.864956,8438.347739,-1302.362347
516.995596,5255.462188,7402.059420,1302.362347
516.995917,5033.400406,7179.997637,2834.553343
516.996237,4515.256246,8142.265362,1762.019645
516.996558,4145.153275,9844.739029,-612.876398
516.996878,3330.926739,9770.718434,-1685.410096
516.997199,4145.153275,8956.491898,-689.485948
516.997519,5699.585753,8068.244768,612.876398
516.997840,5033.400406,7550.100608,459.657299
516.998160,5107.421000,8808.450710,-995.924147
516.998481,4663.297435,8956.491898,-1685.410096
516.998802,3256.906145,8216.285956,-1455.581446
516.999122,4737.318029,7105.977043,0.000000
516.999443,6291.750507,7179.997637,1302.362347
516.999763,6365.771101,7476.080014,1149.143247
517.000084,5551.544565,8512.368333,-459.657299
517.000404,5625.565159,10066.800811,-2068.457845
517.000725,4293.194464,8956.491898,-1991.848295
517.001046,5033.400406,6883.915261,-459.657299
517.001366,7105.977043,6365.771101,919.314598
517.001687,6069.688724,7624.121203,-229.828649
517.002007,4441.235652,8660.409521,-995.924147
517.002328,3552.988522,9844.739029,-766.095498
517.002648,3997.112087,8586.388927,-229.828649
517.002969,4589.276840,7105.977043,1378.971896
517.003290,5033.400406,7105.977043,842.705048
517.003610,4663.297435,8512.368333,-1302.362347
517.003931,3256.906145,9696.697840,-1378.971896
517.004251,2516.700203,9474.636058,-919.314598
517.004572,4663.297435,8734.430116,-153.219100
517.004892,5033.400406,7698.141797,1378.971896
517.005213,4589.276840,7624.121203,612.876398
517.005534,4589.276840,8882.471304,-536.266849
517.005854,4737.318029,10362.883188,-919.314598
517.006175,3997.112087,9548.656652,-306.438199
517.006495,4811.338623,6513.812290,842.705048
517.006816,6735.874072,5329.482782,1149.143247
517.007136,5921.647536,7105.977043,459.657299
517.007457,4811.338623,8512.368333,-383.047749
517.007777,5773.606348,8586.388927,-1838.629195
517.008098,5699.585753,7994.224174,-1608.800546
517.008419,6439.791695,7698.141797,306.438199
517.008739,7105.977043,7328.038826,842.705048
517.009060,6587.832884,7698.141797,-306.438199
517.009380,5995.668130,8438.347739,-995.924147
517.009701,4885.359217,7476.080014,-842.705048
517.010021,5255.462188,5995.668130,-153.219100
517.010342,5921.647536,4885.359217,1532.190996
517.010663,6365.771101,6365.771101,1762.019645
517.010983,6439.791695,8290.306550,76.609550
517.011304,5255.462188,9178.553681,-2298.286494
517.011624,5255.462188,8290.306550,-2451.505594
517.011945,5625.565159,7402.059420,76.609550
517.012265,5107.421000,6735.874072,2528.115143
517.012586,4367.215058,6957.935855,1455.581446
517.012907,3775.050304,8216.285956,-76.609550
517.013227,2812.782580,8586.388927,-1532.190996
517.013548,2812.782580,8364.327145,-1532.190996
517.013868,4441.235652,7994.224174,0.000000
517.014189,4959.379811,7698.141797,1685.410096
517.014509,4737.318029,9252.574275,383.047749
517.014830,4737.318029,10214.842000,-383.047749
517.015151,3849.070898,10510.924376,-842.705048
517.015471,3478.967927,8364.327145,306.438199
517.015792,4293.194464,6809.894666,1838.629195
517.016112,4885.359217,7105.977043,1455.581446
517.016433,4663.297435,8142.265362,-536.266849
517.016753,3923.091493,9252.574275,-2451.505594
517.017074,4071.132681,8438.347739,-2604.724693
517.017395,4885.359217,7105.977043,76.609550
517.017715,6143.709319,7105.977043,2221.676944
517.018036,6735.874072,8586.388927,995.924147
517.018356,5847.626942,9844.739029,0.000000
517.018677,5033.400406,11103.089130,-1225.752797
517.018997,4737.318029,9696.697840,-842.705048
517.019318,5181.441594,7402.059420,459.657299
517.019638,5773.606348,6365.771101,842.705048
517.019959,4737.318029,7105.977043,-383.047749
517.020280,3034.844362,8290.306550,-1532.190996
517.020600,2738.761985,8438.347739,-1455.581446
517.020921,4811.338623,7624.121203,383.047749
517.021241,4811.338623,6957.935855,1838.629195
517.021562,4515.256246,6957.935855,1302.362347
517.021882,5329.482782,9770.718434,-229.828649
517.022203,3552.988522,11547.212695,-1378.971896
517.022524,3034.844362,9030.512492,-1225.752797
517.022844,6883.915261,7698.141797,383.047749
517.023165,5773.606348,6809.894666,1072.533697
517.023485,4071.132681,7254.018232,0.000000
517.023806,4367.215058,8512.368333,-1608.800546
517.024126,3997.112087,9178.553681,-2451.505594
517.024447,4071.132681,8216.285956,-995.924147
517.024768,5329.482782,7402.059420,1762.019645
517.025088,5847.626942,6883.915261,919.314598
517.025409,6069.688724,7772.162391,919.314598
517.025729,5033.400406,8956.491898,76.609550
517.026050,4441.235652,8216.285956,-1455.581446
517.026370,5551.544565,7179.997637,-306.438199
517.026691,5773.606348,6439.791695,1149.143247
517.027012,5699.585753,6513.812290,-689.485948
517.027332,6587.832884,8586.388927,-1455.581446
517.027653,6217.729913,9992.780217,-1838.629195
517.027973,5033.400406,8734.430116,-1685.410096
517.028294,5847.626942,6883.915261,0.000000
517.028614,6439.791695,6365.771101,2145.067394
517.028935,5255.462188,6365.771101,1762.019645
517.029255,4811.338623,7550.100608,0.000000
517.029576,4071.132681,8734.430116,-1838.629195
517.029897,3923.091493,9104.533087,-1302.362347
517.030217,5107.421000,8660.409521,306.438199
517.030538,5403.503377,7920.203579,919.314598
517.030858,5181.441594,7698.141797,0.000000
517.031179,3923.091493,8882.471304,-689.485948
517.031499,3627.009116,9178.553681,-842.705048
517.031820,3775.050304,7328.038826,229.828649
517.032141,4959.379811,5699.585753,1838.629195
517.032461,5773.606348,7328.038826,1225.752797
517.032782,5551.544565,9844.739029,-306.438199
517.033102,3849.070898,10658.965565,-1915.238745
517.033423,5477.523971,9474.636058,-2451.505594
517.033743,6513.812290,7994.224174,-459.657299
517.034064,6291.750507,6587.832884,1378.971896
517.034385,6217.729913,6809.894666,995.924147
517.034705,5551.544565,9400.615463,-76.609550
517.035026,4367.215058,10510.924376,-1149.143247
517.035346,4219.173869,9178.553681,76.609550
517.035667,5255.462188,6439.791695,919.314598
517.035987,5995.668130,5329.482782,1302.362347
517.036308,5033.400406,6957.935855,1072.533697
517.036629,3849.070898,8808.450710,-1608.800546
517.036949,3552.988522,9178.553681,-2757.943793
517.037270,4959.379811,8068.244768,-766.095498
517.037590,6143.709319,7772.162391,1378.971896
517.037911,5403.503377,8438.347739,1378.971896
517.038231,4293.194464,9252.574275,-689.485948
517.038552,3775.050304,9474.636058,-1762.019645
517.038873,3034.844362,8364.327145,-1149.143247
517.039193,4145.153275,6735.874072,919.314598
517.039514,4737.318029,5847.626942,919.314598
517.039834,4367.215058,6883.915261,-459.657299
517.040155,4293.194464,10066.800811,-1685.410096
517.040475,3552.988522,10584.944971,-1838.629195
517.040796,3775.050304,8956.491898,-1532.190996
517.041116,5699.585753,7994.224174,995.924147
517.041437,5181.441594,7402.059420,1915.238745
517.041758,4145.153275,8438.347739,229.828649
517.042078,4145.153275,9474.636058,-1378.971896
517.042399,3108.864956,9548.656652,-1838.629195
517.042719,4071.132681,8438.347739,0.000000
517.043040,5847.626942,7328.038826,1915.238745
517.043360,6365.771101,7476.080014,766.095498
517.043681,5255.462188,8956.491898,-995.924147
517.044002,3775.050304,9104.533087,-1838.629195
517.044322,5181.441594,8882.471304,-1378.971896
517.044643,6069.688724,7624.121203,1455.581446
517.044963,6587.832884,7179.997637,3217.601092
517.045284,6587.832884,8808.450710,1685.410096
517.045604,3701.029710,9770.718434,-1608.800546
517.045925,2886.803174,8734.430116,-2528.115143
517.046246,6291.750507,6883.915261,-383.047749
517.046566,6291.750507,5403.503377,842.705048
517.046887,6069.688724,5477.523971,0.000000
517.047207,6069.688724,7105.977043,-612.876398
517.047528,5329.482782,10140.821405,-1838.629195
517.047848,4959.379811,10807.006753,-459.657299
517.048169,7031.956449,8438.347739,1149.143247
517.048490,7920.203579,6809.894666,1302.362347
517.048810,5847.626942,6883.915261,842.705048
517.049131,3849.070898,7254.018232,-153.219100
517.049451,4145.153275,7550.100608,-2374.896044
517.049772,4589.276840,7254.018232,-2068.457845
517.050092,4441.235652,5921.647536,-306.438199
517.050413,5255.462188,5551.544565,-612.876398
517.050733,6143.709319,7846.182985,383.047749
517.051054,4589.276840,11029.068536,153.219100
517.051375,4071.132681,11251.130318,-689.485948
517.051695,5255.462188,9030.512492,76.609550
517.052016,5625.565159,7772.162391,842.705048
517.052336,4737.318029,6661.853478,1378.971896
517.052657,4589.276840,6809.894666,-153.219100
517.052977,4737.318029,7994.224174,-2298.286494
517.053298,3775.050304,9104.533087,-2145.067394
517.053619,4145.153275,7402.059420,-306.438199
517.053939,5477.523971,6661.853478,766.095498
517.054260,5329.482782,6957.935855,2221.676944
517.054580,4737.318029,9178.553681,1685.410096
517.054901,4293.194464,9770.718434,-612.876398
517.055221,3552.988522,9178.553681,-1838.629195
517.055542,4959.379811,7994.224174,-536.266849
517.055863,6809.894666,7328.038826,1302.362347
517.056183,6365.771101,7846.182985,306.438199
517.056504,4811.338623,9252.574275,-1991.848295
517.056824,3627.009116,9622.677246,-2681.334243
517.057145,3404.947333,8734.430116,-1838.629195
517.057465,4145.153275,6661.853478,1302.362347
517.057786,5847.626942,5847.626942,2911.162892
517.058107,6439.791695,8142.265362,612.876398
517.058427,3997.112087,10584.944971,-1608.800546
517.058748,2886.803174,10362.883188,-3217.601092
517.059068,4885.359217,8660.409521,-1378.971896
517.059389,6587.832884,6513.812290,2068.457845
517.059709,6957.935855,7476.080014,2987.772442
517.060030,5921.647536,9400.615463,0.000000
517.060351,3923.091493,10436.903782,-2834.553343
517.060671,3108.864956,9770.718434,-1455.581446
517.060992,4737.318029,7105.977043,1762.019645
517.061312,6883.915261,5847.626942,3600.648841
517.061633,6365.771101,7031.956449,2374.896044
517.061953,4441.235652,8586.388927,-995.924147
517.062274,3330.926739,9252.574275,-3907.087040
517.062594,3775.050304,7624.121203,-2221.676944
517.062915,5107.421000,6513.812290,1685.410096
517.063236,6661.853478,7031.956449,2604.724693
517.063556,5329.482782,8882.471304,153.219100
517.063877,4219.173869,10658.965565,-2145.067394
517.064194,3182.885551,10140.821405,-1838.629195
517.064514,4145.153275,7476.080014,383.047749
517.064835,5477.523971,4811.338623,2298.286494
517.065156,6439.791695,5033.400406,1838.629195
517.065476,5477.523971,7105.977043,-1455.581446
517.065797,4219.173869,8142.265362,-2911.162892
517.066118,3923.091493,7994.224174,-2298.286494
517.066438,5847.626942,7624.121203,536.266849
517.066759,6661.853478,6661.853478,2145.067394
517.067080,6883.915261,7105.977043,1225.752797
517.067400,7105.977043,8216.285956,-919.314598
517.067721,4589.276840,8512.368333,-2221.676944
517.068041,4219.173869,6809.894666,-1378.971896
517.068362,6217.729913,6217.729913,459.657299
517.068683,7328.038826,6587.832884,919.314598
517.069003,7698.141797,7920.203579,612.876398
517.069324,6365.771101,8882.471304,-1302.362347
517.069645,4515.256246,9252.574275,-2298.286494
517.069965,4071.132681,8068.244768,306.438199
517.070286,5181.441594,7254.018232,2681.334243
517.070607,6143.709319,7920.203579,1991.848295
517.070927,5551.544565,9178.553681,229.828649
517.071248,3997.112087,9770.718434,-1608.800546
517.071569,2664.741391,8808.450710,-1532.190996
517.071889,3627.009116,7328.038826,-153.219100
517.072210,3997.112087,6883.915261,1685.410096
517.072531,5551.544565,8216.285956,1455.581446
517.072851,5181.441594,10658.965565,-766.095498
517.073172,2886.803174,11769.274478,-1378.971896
517.073492,2886.803174,9474.636058,-612.876398
517.073813,5033.400406,7476.080014,2451.505594
517.074134,5921.647536,7105.977043,2451.505594
517.074454,5107.421000,7994.224174,76.609550
517.074775,4367.215058,9030.512492,-2145.067394
517.075096,3997.112087,7846.182985,-2604.724693
517.075416,4589.276840,6365.771101,-153.219100
517.075737,6365.771101,5107.421000,1225.752797
517.076058,7031.956449,6957.935855,383.047749
517.076378,5921.647536,9178.553681,-1455.581446
517.076699,4959.379811,10584.944971,-1302.362347
517.077020,6365.771101,9622.677246,0.000000
517.077340,5329.482782,7179.997637,919.314598
517.077661,5477.523971,6291.750507,459.657299
517.077982,5329.482782,7179.997637,-383.047749
517.078302,4367.215058,9178.553681,-1762.019645
517.078623,3108.864956,9104.533087,-1455.581446
517.078943,3775.050304,7624.121203,-766.095498
517.079264,4663.297435,6735.874072,536.266849
517.079585,4737.318029,8290.306550,1838.629195
517.079905,4071.132681,9326.594869,1149.143247
517.080226,3997.112087,10066.800811,-689.485948
517.080547,3701.029710,8586.388927,-306.438199
517.080867,3849.070898,7105.977043,1455.581446
517.081188,5255.462188,6217.729913,2374.896044
517.081509,5107.421000,6735.874072,459.657299
517.081829,5625.565159,9400.615463,-1991.848295
517.082150,5477.523971,9992.780217,-2145.067394
517.082471,4885.359217,8142.265362,-919.314598
517.082791,7105.977043,5995.668130,1225.752797
517.083112,7772.162391,5847.626942,2451.505594
517.083433,6883.915261,6957.935855,306.438199
517.083753,4737.318029,8216.285956,-2068.457845
517.084074,4959.379811,7920.203579,-2757.943793
517.084394,5773.606348,7920.203579,-842.705048
517.084715,7031.956449,7402.059420,1608.800546
517.085036,7254.018232,7179.997637,689.485948
517.085356,6365.771101,8586.388927,-1302.362347
517.085677,3923.091493,9178.553681,-2068.457845
517.085998,3404.947333,8660.409521,-842.705048
517.086318,4515.256246,7846.182985,1608.800546
517.086639,6143.709319,6439.791695,2987.772442
517.086960,5551.544565,7179.997637,1685.410096
517.087280,4589.276840,7994.224174,-306.438199
517.087601,3330.926739,9696.697840,-2528.115143
517.087922,3478.967927,9252.574275,-1838.629195
517.088242,4959.379811,7550.100608,459.657299
517.088563,7105.977043,7328.038826,1762.019645
517.088884,5625.565159,8438.347739,766.095498
517.089204,3478.967927,9918.759623,-1225.752797
517.089525,2738.761985,10288.862594,-1302.362347
517.089846,3404.947333,8882.471304,-306.438199
517.090166,5477.523971,6513.812290,2068.457845
517.090487,6365.771101,6365.771101,1838.629195
517.090807,4959.379811,6957.935855,-995.924147
517.091128,3552.988522,8438.347739,-2451.505594
517.091449,3997.112087,9178.553681,-1532.190996
517.091769,5921.647536,8586.388927,229.828649
517.092090,6439.791695,7846.182985,995.924147
517.092411,5551.544565,6957.935855,383.047749
517.092731,5255.462188,8068.244768,-1225.752797
517.093052,4737.318029,9326.594869,-842.705048
517.093373,4145.153275,8808.450710,-919.314598
517.093693,6143.709319,7105.977043,-1378.971896
517.094014,7105.977043,6809.894666,-689.485948
517.094335,6069.688724,7328.038826,-229.828649
517.094655,5107.421000,7105.977043,-612.876398
517.094976,6439.791695,7402.059420,-689.485948
517.095297,7254.018232,7698.141797,-306.438199
517.095617,7698.141797,6735.874072,766.095498
517.095938,8586.388927,5921.647536,919.314598
517.096258,9474.636058,7254.018232,919.314598
517.096579,7920.203579,7772.162391,766.095498
517.096900,7105.977043,5699.585753,0.000000
517.097220,8882.471304,3404.947333,-919.314598
517.097541,9696.697840,3775.050304,-459.657299
517.097862,10510.924376,4959.379811,612.876398
517.098182,10658.965565,6291.750507,-229.828649
517.098503,9696.697840,6587.832884,-2374.896044
517.098824,8956.491898,6513.812290,-1378.971896
517.099144,9992.780217,5699.585753,153.219100
517.099465,10288.862594,4589.276840,1225.752797
517.099786,9104.533087,4219.173869,459.657299
517.100106,7994.224174,4959.379811,-306.438199
517.100427,7476.080014,6439.791695,-1608.800546
517.100748,6809.894666,6809.894666,-1378.971896
517.101068,7476.080014,5995.668130,-536.266849
517.101389,9104.533087,5551.544565,612.876398
517.101709,8290.306550,5995.668130,383.047749
517.102030,7105.977043,6143.709319,153.219100
517.102351,7105.977043,5995.668130,-459.657299
517.102671,7846.182985,5625.565159,0.000000
517.102992,8882.471304,5921.647536,1225.752797
517.103313,9474.636058,5033.400406,1991.848295
517.103633,9474.636058,4959.379811,612.876398
517.103954,8956.491898,4885.359217,0.000000
517.104275,9178.553681,4737.318029,-1149.143247
517.104595,10807.006753,4515.256246,-1225.752797
517.104916,11473.192101,4811.338623,-306.438199
517.105237,11325.150913,5329.482782,536.266849
517.105557,10288.862594,6069.688724,306.438199
517.105878,9474.636058,5551.544565,-383.047749
517.106199,9770.718434,5625.565159,-995.924147
517.106519,10881.027347,6513.812290,-383.047749
517.106840,9696.697840,7105.977043,-689.485948
517.107161,8438.347739,7105.977043,-1149.143247
517.107481,7994.224174,7254.018232,-919.314598
517.107802,6661.853478,7105.977043,383.047749
517.108122,6661.853478,5995.668130,1378.971896
517.108443,7105.977043,5551.544565,689.485948
517.108764,7254.018232,5847.626942,383.047749
517.109084,6809.894666,6365.771101,536.266849
517.109405,7550.100608,6735.874072,1149.143247
517.109726,7476.080014,5403.503377,1991.848295
517.110046,8216.285956,4441.235652,1072.533697
517.110367,8808.450710,4515.256246,-383.047749
517.110688,9696.697840,4145.153275,-2451.505594
517.111008,11029.068536,3775.050304,-2374.896044
517.111329,13767.830521,5255.462188,-459.657299
517.111650,14063.912898,6291.750507,0.000000
517.111970,13101.645173,6587.832884,-612.876398
517.112291,12583.501014,6069.688724,-995.924147
517.112612,11251.130318,4367.215058,-1072.533697
517.112932,9918.759623,1850.514855,0.000000
517.113253,10584.944971,444.123565,689.485948
517.113573,9992.780217,1776.494261,-919.314598
517.113894,9400.615463,4145.153275,-1762.019645
517.114215,8882.471304,7105.977043,-1608.800546
517.114535,9178.553681,7920.203579,-1608.800546
517.114856,8512.368333,7550.100608,-689.485948
517.115177,7846.182985,7624.121203,1072.533697
517.115497,6291.750507,6957.935855,536.266849
517.115818,5403.503377,6735.874072,-383.047749
517.116139,5921.647536,6143.709319,0.000000
517.116459,6439.791695,6587.832884,-306.438199
517.116780,7031.956449,7105.977043,-76.609550
517.117101,6735.874072,7920.203579,-612.876398
517.117421,7476.080014,8068.244768,-689.485948
517.117742,8586.388927,6883.915261,689.485948
517.118063,9178.553681,5403.503377,2528.115143
517.118383,9104.533087,4293.194464,2834.553343
517.118704,8586.388927,3849.070898,1225.752797
517.119024,8882.471304,4589.276840,0.000000
517.119345,10214.842000,4959.379811,-766.095498
517.119666,11843.295072,5403.503377,-1762.019645
517.119986,12065.356855,6513.812290,-2145.067394
517.120307,12213.398043,7402.059420,-1762.019645
517.120628,11325.150913,6661.853478,-766.095498
517.120948,9770.718434,5921.647536,1072.533697
517.121269,9400.615463,5255.462188,1072.533697
517.121590,8734.430116,5403.503377,536.266849
517.121910,8734.430116,5773.606348,-689.485948
517.122231,8734.430116,5551.544565,-1378.971896
517.122552,9104.533087,4885.359217,-842.705048
517.122872,8512.368333,3627.009116,76.609550
517.123193,7624.121203,2960.823768,919.314598
517.123514,6957.935855,3849.070898,1072.533697
517.123834,7105.977043,6217.729913,536.266849
517.124155,7254.018232,6513.812290,306.438199
517.124476,8882.471304,6143.709319,-689.485948
517.124796,10288.862594,5773.606348,-919.314598
517.125117,10066.800811,6513.812290,-919.314598
517.125437,8734.430116,7254.018232,-919.314598
517.125758,8660.409521,7772.162391,-1302.362347
517.126079,9252.574275,6957.935855,-459.657299
517.126399,9474.636058,5921.647536,689.485948
517.126720,10066.800811,3701.029710,919.314598
517.127041,8882.471304,2664.741391,1455.581446
517.127361,8364.327145,2294.638420,459.657299
517.127682,9178.553681,1702.473667,612.876398
517.128003,10362.883188,1702.473667,229.828649
517.128323,11843.295072,3330.926739,0.000000
517.128644,11917.315666,4737.318029,-536.266849
517.128965,11621.233289,5995.668130,-1991.848295
517.129285,11991.336260,6809.894666,-2145.067394
517.129606,12287.418637,7105.977043,-1762.019645
517.129927,12065.356855,6735.874072,-1991.848295
517.130247,10732.986159,6143.709319,-1455.581446
517.130568,10066.800811,5921.647536,-229.828649
517.130888,9400.615463,6143.709319,459.657299
517.131209,8956.491898,5773.606348,1455.581446
517.131530,8734.430116,5329.482782,1378.971896
517.131850,8068.244768,4811.338623,1149.143247
517.132171,7105.977043,4219.173869,1608.800546
517.132492,7105.977043,3478.967927,1072.533697
517.132812,7476.080014,3701.029710,229.828649
517.133133,8438.347739,5107.421000,-153.219100
517.133454,9622.677246,7179.997637,-229.828649
517.133774,10658.965565,8586.388927,-306.438199
517.134095,10732.986159,8808.450710,76.609550
517.134416,11251.130318,8290.306550,842.705048
517.134736,10288.862594,7105.977043,306.438199
517.135057,9548.656652,5773.606348,306.438199
517.135378,9474.636058,4367.215058,0.000000
517.135698,9992.780217,2886.803174,-306.438199
517.136019,10732.986159,2590.720797,-536.266849
517.136339,10807.006753,3330.926739,-612.876398
517.136660,10140.821405,5329.482782,-383.047749
517.136981,9770.718434,6809.894666,0.000000
517.137301,9622.677246,7105.977043,459.657299
517.137622,8882.471304,6587.832884,1838.629195
517.137943,7920.203579,6809.894666,1532.190996
517.138263,6365.771101,7105.977043,766.095498
517.138584,4959.379811,7179.997637,0.000000
517.138905,4737.318029,6957.935855,-919.314598
517.139225,4811.338623,6587.832884,-536.266849
517.139546,4885.359217,7105.977043,0.000000
517.139867,4441.235652,8142.265362,1072.533697
517.140187,4441.235652,9918.759623,1838.629195
517.140508,4515.256246,10214.842000,2221.676944
517.140829,5403.503377,9918.759623,3217.601092
517.141149,5995.668130,9104.533087,4060.306139
517.141470,5107.421000,8142.265362,4136.915689
517.141790,4737.318029,7846.182985,3983.696590
517.142111,5181.441594,7624.121203,4443.353888
517.142432,6069.688724,8512.368333,3677.258390
517.142752,6883.915261,9252.574275,3830.477490
517.143073,7328.038826,9104.533087,4213.525239
517.143394,7105.977043,8734.430116,4060.306139
517.143714,6587.832884,7846.182985,4826.401637
517.144035,7031.956449,7476.080014,5362.668486
517.144356,7698.141797,7179.997637,5209.449386
517.144676,7624.121203,7772.162391,4826.401637
517.144997,7328.038826,8068.244768,4596.572988
517.145318,7476.080014,8290.306550,4903.011187
517.145638,7550.100608,9030.512492,6128.763984
517.145959,7328.038826,8438.347739,7507.735880
517.146280,7105.977043,7920.203579,6971.469032
517.146600,6735.874072,6883.915261,6741.640382
517.146921,6143.709319,6069.688724,6588.421283
517.147242,5477.523971,5255.462188,6588.421283
517.147562,5625.565159,4737.318029,7048.078582
517.147883,6143.709319,5995.668130,6818.249932
517.148203,5995.668130,7772.162391,6818.249932
517.148524,5329.482782,8438.347739,6281.983084
517.148845,5181.441594,7772.162391,6358.592633
517.149165,4959.379811,7624.121203,6894.859482
517.149486,4367.215058,6587.832884,7890.783629
517.149807,3627.009116,6143.709319,7890.783629
517.150127,3330.926739,5847.626942,6894.859482
517.150448,2664.741391,5995.668130,6511.811733
517.150769,2590.720797,5995.668130,6358.592633
517.151089,2664.741391,6143.709319,5898.935335
517.151410,2812.782580,6439.791695,5439.278036
517.151731,3034.844362,6735.874072,6128.763984
517.152051,3478.967927,6809.894666,6358.592633
517.152372,3034.844362,6809.894666,6588.421283
517.152693,3182.885551,6365.771101,6205.373534
517.153013,4071.132681,6735.874072,5515.887586
517.153334,4071.132681,7105.977043,4673.182538
517.153654,3997.112087,6661.853478,3907.087040
517.153975,4293.194464,5995.668130,3600.648841
517.154296,4367.215058,5403.503377,3907.087040
517.154616,4145.153275,5403.503377,3907.087040
517.154937,4071.132681,5625.565159,2757.943793
517.155258,4737.318029,6513.812290,1685.410096
517.155578,5551.544565,7846.182985,2221.676944
517.155899,6291.750507,9252.574275,2911.162892
517.156220,7105.977043,10288.862594,2604.724693
517.156540,7105.977043,10732.986159,3064.381992
517.156861,7179.997637,11103.089130,4213.525239
517.157182,7031.956449,10955.047942,5592.497135
517.157502,6439.791695,11251.130318,5745.716235
517.157823,5477.523971,10436.903782,6052.154434
517.158144,4589.276840,9252.574275,6128.763984
517.158464,3182.885551,7105.977043,5439.278036
517.158785,2812.782580,4145.153275,4903.011187
517.159105,3256.906145,2516.700203,4060.306139
517.159426,3330.926739,3552.988522,1915.238745
517.159747,4441.235652,6069.688724,536.266849
517.160067,6809.894666,9918.759623,-383.047749
517.160388,9400.615463,14285.974681,-766.095498
517.160709,10807.006753,17690.922014,-612.876398
517.161029,10732.986159,18505.148550,995.924147
517.161350,9770.718434,15544.324782,3294.210641
517.161671,7920.203579,11399.171507,5439.278036
517.161991,6513.812290,7920.203579,7201.297681
517.162312,5551.544565,7031.956449,7354.516781
517.162633,2442.679609,6883.915261,5439.278036
517.162953,1554.432478,6809.894666,3983.696590
517.163274,2220.617826,5847.626942,3830.477490
517.163595,2812.782580,3701.029710,5056.230287
517.163915,3627.009116,3330.926739,4519.963438
517.164236,5255.462188,6069.688724,4213.525239
517.164557,5551.544565,10510.924376,3140.991542
517.164877,5847.626942,13323.706956,2451.505594
517.165198,7254.018232,14878.139434,2145.067394
517.165518,9696.697840,15470.304188,2451.505594
517.165839,8660.409521,14211.954086,4443.353888
517.166160,5551.544565,9770.718434,6435.202183
517.166480,5033.400406,5625.565159,6971.469032
517.166801,1406.391290,3478.967927,6741.640382
517.167122,1998.556043,2886.803174,5669.106685
517.167442,2886.803174,4145.153275,4903.011187
517.167763,3627.009116,5995.668130,5132.839837
517.168083,4219.173869,5477.523971,6971.469032
517.168404,5847.626942,5847.626942,8733.488677
517.168724,6217.729913,8216.285956,9499.584175
517.169045,4367.215058,11399.171507,8427.050478
517.169366,3923.091493,12435.459826,5439.278036
517.169686,4441.235652,10510.924376,3753.867940
517.170007,4737.318029,7328.038826,3600.648841
517.170327,4737.318029,5033.400406,7584.345430
517.170648,5921.647536,7179.997637,9116.536426
517.170968,592.164754,8734.430116,7354.516781
517.171289,148.041188,9326.594869,4749.792088
517.171610,2146.597232,6883.915261,3907.087040
517.171930,3552.988522,3923.091493,6511.811733
517.172251,3256.906145,2368.659014,8580.269578
517.172571,5773.606348,3775.050304,9193.145976
517.172892,6291.750507,8734.430116,7201.297681
517.173212,4145.153275,10955.047942,4519.963438
517.173533,3775.050304,8512.368333,3064.381992
517.173854,5181.441594,5995.668130,3524.039291
517.174174,3997.112087,4811.338623,6435.202183
517.174495,3627.009116,4589.276840,9499.584175
517.174815,7105.977043,7772.162391,9269.755526
517.175136,4293.194464,11251.130318,6052.154434
517.175456,1776.494261,12509.480420,3983.696590
517.175777,3478.967927,10584.944971,2834.553343
517.176098,5477.523971,7698.141797,3524.039291
517.176418,3108.864956,3997.112087,4826.401637
517.176739,3552.988522,2146.597232,4903.011187
517.177059,5033.400406,3478.967927,4903.011187
517.177380,3478.967927,7105.977043,4903.011187
517.177700,3108.864956,8290.306550,3524.039291
517.178021,5403.503377,9622.677246,1608.800546
517.178342,5773.606348,10362.883188,2374.896044
517.178662,4145.153275,11177.109724,4443.353888
517.178983,6735.874072,9992.780217,5056.230287
517.179303,6883.915261,8660.409521,2451.505594
517.179624,4441.235652,7846.182985,-536.266849
517.179944,3108.864956,6587.832884,-2221.676944
517.180265,5181.441594,6069.688724,-536.266849
517.180586,5773.606348,8512.368333,3370.820191
517.180906,5773.606348,11399.171507,5745.716235
517.181227,5625.565159,11621.233289,4290.134789
517.181547,7031.956449,11843.295072,2221.676944
517.181868,5403.503377,11177.109724,1685.410096
517.182188,3849.070898,8142.265362,1991.848295
517.182509,5477.523971,5625.565159,2528.115143
517.182830,5699.585753,5847.626942,2987.772442
517.183150,4737.318029,8142.265362,3677.258390
517.183471,5847.626942,10362.883188,2451.505594
517.183791,6809.894666,12065.356855,-842.705048
517.184112,5773.606348,12435.459826,-536.266849
517.184432,5625.565159,11473.192101,3524.039291
517.184753,7476.080014,10436.903782,5209.449386
517.185074,6439.791695,9252.574275,4903.011187
517.185394,4589.276840,9474.636058,3753.867940
517.185715,3997.112087,9696.697840,1532.190996
517.186035,4219.173869,10214.842000,1149.143247
517.186356,3478.967927,9178.553681,2987.772442
517.186676,4589.276840,7402.059420,3983.696590
517.186997,4663.297435,6809.894666,2604.724693
517.187318,2368.659014,6513.812290,1762.019645
517.187638,2146.597232,7105.977043,229.828649
517.187959,3627.009116,8142.265362,-766.095498
517.188279,4737.318029,7920.203579,229.828649
517.188600,5773.606348,9030.512492,2528.115143
517.188920,6365.771101,10362.883188,3370.820191
517.189241,4737.318029,10066.800811,1991.848295
517.189562,3108.864956,8290.306550,-689.485948
517.189882,3552.988522,6809.894666,-2221.676944
517.190203,3997.112087,6365.771101,-229.828649
517.190523,4219.173869,6217.729913,2528.115143
517.190844,4219.173869,5773.606348,2757.943793
517.191164,2886.803174,5921.647536,689.485948
517.191485,1924.535449,5921.647536,383.047749
517.191806,3034.844362,5329.482782,689.485948
517.192126,4071.132681,4219.173869,459.657299
517.192447,4441.235652,4737.318029,229.828649
517.192767,5995.668130,6735.874072,-1225.752797
517.193088,5403.503377,7698.141797,-1838.629195
517.193408,4589.276840,7994.224174,-919.314598
517.193729,5773.606348,8142.265362,-383.047749
517.194050,5773.606348,8586.388927,-1149.143247
517.194370,4737.318029,7550.100608,-1378.971896
517.194691,5699.585753,6735.874072,-306.438199
517.195011,6513.812290,7179.997637,-1149.143247
517.195332,4737.318029,7105.977043,-1685.410096
517.195653,3775.050304,6365.771101,-2451.505594
517.195973,4959.379811,6439.791695,-2681.334243
517.196294,6143.709319,8734.430116,-1378.971896
517.196614,6513.812290,9474.636058,-995.924147
517.196935,5551.544565,8882.471304,-1685.410096
517.197255,5033.400406,8438.347739,-1915.238745
517.197576,4959.379811,9770.718434,0.000000
517.197897,5403.503377,10658.965565,995.924147
517.198217,5921.647536,11399.171507,-689.485948
517.198538,5847.626942,11917.315666,-1915.238745
517.198858,4663.297435,11547.212695,-1838.629195
517.199179,4737.318029,10510.924376,-306.438199
517.199499,4071.132681,9474.636058,919.314598
517.199820,3775.050304,8290.306550,1072.533697
517.200141,4663.297435,9474.636058,-536.266849
517.200461,3923.091493,11103.089130,-2068.457845
517.200782,2442.679609,10510.924376,-2451.505594
517.201102,4145.153275,9770.718434,0.000000
517.201423,7031.956449,9548.656652,2145.067394
517.201743,6661.853478,10584.944971,2068.457845
517.202064,5329.482782,12065.356855,689.485948
517.202385,4515.256246,11843.295072,-919.314598
517.202705,4441.235652,9992.780217,-995.924147
517.203026,4737.318029,7846.182985,1072.533697
517.203346,6365.771101,7254.018232,1455.581446
517.203667,6587.832884,7994.224174,1072.533697
517.203987,5921.647536,7920.203579,0.000000
517.204308,4219.173869,6957.935855,-1225.752797
517.204629,4367.215058,5255.462188,-766.095498
517.204949,5625.565159,4367.215058,1149.143247
517.205270,6661.853478,5329.482782,1225.752797
517.205590,8660.409521,8364.327145,-842.705048
517.205911,7698.141797,9548.656652,-2987.772442
517.206231,5773.606348,8512.368333,-2911.162892
517.206552,6587.832884,6661.853478,383.047749
517.206873,6883.915261,5181.441594,3140.991542
517.207193,5181.441594,5847.626942,2451.505594
517.207514,4737.318029,6291.750507,-842.705048
517.207834,3182.885551,5847.626942,-1608.800546
517.208155,3256.906145,5255.462188,229.828649
517.208475,3997.112087,4663.297435,2298.286494
517.208796,2664.741391,3256.906145,1072.533697
517.209117,2886.803174,4663.297435,-689.485948
517.209437,2960.823768,7254.018232,-919.314598
517.209758,814.226536,7846.182985,-1378.971896
517.210078,1924.535449,7105.977043,-1072.533697
517.210399,4811.338623,6957.935855,0.000000
517.210719,3775.050304,8142.265362,-536.266849
517.211040,3923.091493,10140.821405,-1072.533697
517.211361,3034.844362,10140.821405,-2757.943793
517.211681,2072.576638,8882.471304,-3907.087040
517.212002,3182.885551,7476.080014,-1302.362347
517.212322,5107.421000,6735.874072,459.657299
517.212643,5551.544565,7105.977043,0.000000
517.212963,5773.606348,9178.553681,-1149.143247
517.213284,5477.523971,9992.780217,-1915.238745
517.213605,5181.441594,8660.409521,-2068.457845
517.213925,6735.874072,7994.224174,0.000000
517.214246,7105.977043,7550.100608,1455.581446
517.214566,8364.327145,7994.224174,-459.657299
517.214887,8068.244768,9844.739029,-2528.115143
517.215207,5551.544565,9696.697840,-3294.210641
517.215528,5995.668130,8734.430116,-919.314598
517.215849,8290.306550,8290.306550,1455.581446
517.216169,7031.956449,8068.244768,-383.047749
517.216490,6365.771101,8290.306550,-3064.381992
517.216810,7031.956449,9622.677246,-3983.696590
517.217131,5773.606348,8956.491898,-2757.943793
517.217451,7254.018232,8142.265362,-1302.362347
517.217772,8142.265362,9696.697840,-306.438199
517.218093,7179.997637,11177.109724,-1838.629195
517.218413,6291.750507,11843.295072,-1532.190996
517.218734,5699.585753,11103.089130,-1072.533697
517.219054,4737.318029,8808.450710,-459.657299
517.219375,5107.421000,6587.832884,1149.143247
517.219695,4367.215058,5625.565159,1225.752797
517.220016,3552.988522,6365.771101,-1302.362347
517.220337,3478.967927,8438.347739,-2068.457845
517.220657,2590.720797,8808.450710,-3140.991542
517.220978,3478.967927,8438.347739,-2681.334243
517.221298,6069.688724,8882.471304,-459.657299
