#time,accel_x,accel_y,accel_z
590.295107,5255.462188,8068.244768,-76.609550
590.295428,4885.359217,7994.224174,-306.438199
590.295748,4885.359217,8216.285956,0.000000
590.296069,5033.400406,8216.285956,-229.828649
590.296389,4737.318029,7920.203579,-383.047749
590.296710,4811.338623,8068.244768,-306.438199
590.297030,4959.379811,7920.203579,76.609550
590.297351,4885.359217,7994.224174,-536.266849
590.297671,4959.379811,8216.285956,-153.219100
590.297992,4959.379811,8438.347739,0.000000
590.298312,4885.359217,7994.224174,229.828649
590.298633,5033.400406,8142.265362,0.000000
590.298953,5033.400406,8068.244768,-306.438199
590.299274,5107.421000,8142.265362,-153.219100
590.299594,5033.400406,8142.265362,0.000000
590.299915,4959.379811,7994.224174,0.000000
590.300235,4811.338623,7994.224174,-153.219100
590.300556,5033.400406,8142.265362,0.000000
590.300876,4737.318029,8438.347739,0.000000
590.301197,4885.359217,8142.265362,0.000000
590.301517,5403.503377,8290.306550,-229.828649
590.301838,5033.400406,7772.162391,0.000000
590.302158,5107.421000,8068.244768,-306.438199
590.302479,5033.400406,8438.347739,0.000000
590.302799,5033.400406,8142.265362,-153.219100
590.303120,5033.400406,8068.244768,0.000000
590.303440,5033.400406,8142.265362,0.000000
590.303761,5181.441594,8216.285956,0.000000
590.304081,4885.359217,8216.285956,0.000000
590.304402,4959.379811,8142.265362,-153.219100
590.304722,4737.318029,7920.203579,76.609550
590.305043,5181.441594,8068.244768,0.000000
590.305363,4885.359217,8068.244768,-229.828649
590.305684,4959.379811,8068.244768,153.219100
590.306004,5033.400406,8068.244768,-383.047749
590.306325,4959.379811,8142.265362,-306.438199
590.306645,4885.359217,8142.265362,0.000000
590.306966,5033.400406,7920.203579,0.000000
590.307286,5255.462188,7846.182985,-153.219100
590.307606,4959.379811,7994.224174,0.000000
590.307927,5107.421000,8216.285956,-306.438199
590.308247,5033.400406,7994.224174,0.000000
590.308568,4959.379811,7772.162391,-229.828649
590.308888,4737.318029,7920.203579,153.219100
590.309209,4219.173869,7402.059420,-383.047749
590.309529,4145.153275,7920.203579,0.000000
590.309850,4441.235652,9030.512492,-766.095498
590.310170,4515.256246,9918.759623,-995.924147
590.310491,4589.276840,9918.759623,-1685.410096
590.310811,4219.173869,9622.677246,-536.266849
590.311132,3552.988522,9030.512492,0.000000
590.311452,2812.782580,8734.430116,842.705048
590.311773,2590.720797,8808.450710,842.705048
590.312093,2590.720797,8808.450710,229.828649
590.312414,2590.720797,8364.327145,-229.828649
590.312734,2812.782580,7920.203579,-383.047749
590.313055,3256.906145,9104.533087,0.000000
590.313375,3182.885551,9696.697840,612.876398
590.313696,2590.720797,9178.553681,383.047749
590.314016,2812.782580,8586.388927,76.609550
590.314337,2442.679609,9474.636058,-229.828649
590.314657,2220.617826,10288.862594,-919.314598
590.314978,1702.473667,11547.212695,-1302.362347
590.315298,1554.432478,11843.295072,-1685.410096
590.315619,1406.391290,11399.171507,-1225.752797
590.315939,74.020594,10807.006753,-1149.143247
590.316260,0.000000,11103.089130,-1455.581446
590.316580,-370.102971,12509.480420,-919.314598
590.316901,-1480.411884,13397.727550,0.000000
590.317221,-1554.432478,12361.439231,919.314598
590.317542,-962.267725,11695.253884,1302.362347
590.317862,-962.267725,11547.212695,1762.019645
590.318183,-1998.556043,12065.356855,1685.410096
590.318503,-2442.679609,11547.212695,536.266849
590.318824,-2368.659014,10584.944971,-612.876398
590.319144,-1406.391290,10066.800811,-536.266849
590.319465,-666.185348,9992.780217,383.047749
590.319785,148.041188,10510.924376,1149.143247
590.320106,444.123565,11399.171507,383.047749
590.320426,444.123565,11547.212695,-842.705048
590.320747,1110.308913,11399.171507,-1685.410096
590.321067,1924.535449,10214.842000,-1225.752797
590.321388,2590.720797,10362.883188,229.828649
590.321708,2812.782580,10436.903782,76.609550
590.322029,2220.617826,10066.800811,-1608.800546
590.322349,1702.473667,9770.718434,-2451.505594
590.322670,1776.494261,9252.574275,-2221.676944
590.322990,1850.514855,9992.780217,-536.266849
590.323311,1850.514855,10066.800811,229.828649
590.323631,1332.370696,10881.027347,-153.219100
590.323952,888.247130,11103.089130,-383.047749
590.324272,444.123565,11325.150913,229.828649
590.324593,0.000000,10214.842000,919.314598
590.324913,-370.102971,9992.780217,383.047749
590.325234,-296.082377,10140.821405,536.266849
590.325554,0.000000,10214.842000,229.828649
590.325875,-518.144159,10658.965565,459.657299
590.326195,0.000000,10881.027347,1225.752797
590.326516,814.226536,11029.068536,1608.800546
590.326836,666.185348,11325.150913,842.705048
590.327156,814.226536,11029.068536,-459.657299
590.327477,1480.411884,10584.944971,-1225.752797
590.327797,1850.514855,9992.780217,-995.924147
590.328118,2294.638420,9548.656652,-383.047749
590.328438,1998.556043,8956.491898,0.000000
590.328759,1924.535449,8882.471304,0.000000
590.329079,2146.597232,9474.636058,76.609550
590.329400,2664.741391,10214.842000,-306.438199
590.329720,2294.638420,10510.924376,-766.095498
590.330041,3182.885551,9844.739029,-766.095498
590.330361,3108.864956,9696.697840,-1072.533697
590.330682,3034.844362,9548.656652,-842.705048
590.331002,2886.803174,9770.718434,-919.314598
590.331323,2368.659014,10214.842000,-842.705048
590.331643,1554.432478,11029.068536,-536.266849
590.331964,1258.350101,11473.192101,-612.876398
590.332284,1184.329507,10881.027347,-1149.143247
590.332605,296.082377,10214.842000,-2068.457845
590.332925,-370.102971,10214.842000,-1608.800546
590.333246,-1184.329507,9844.739029,-842.705048
590.333566,-962.267725,9844.739029,919.314598
590.333887,-370.102971,10436.903782,1915.238745
590.334207,74.020594,11991.336260,2451.505594
590.334528,148.041188,12879.583391,1608.800546
590.334848,-222.061783,12805.562797,919.314598
590.335169,444.123565,12509.480420,-306.438199
590.335489,1110.308913,11029.068536,-536.266849
590.335810,1332.370696,9770.718434,-306.438199
590.336130,592.164754,9770.718434,-1225.752797
590.336451,222.061783,10066.800811,-2221.676944
590.336771,-1110.308913,10955.047942,-2298.286494
590.337092,-1924.535449,11621.233289,-1838.629195
590.337412,-1036.288319,11695.253884,-153.219100
590.337733,1036.288319,12435.459826,842.705048
590.338053,1036.288319,13471.748144,919.314598
590.338374,-518.144159,13027.624579,-306.438199
590.338694,-666.185348,12731.542202,-1149.143247
590.339015,666.185348,12657.521608,-766.095498
590.339335,740.205942,10436.903782,306.438199
590.339656,1332.370696,8068.244768,383.047749
590.339976,1480.411884,7994.224174,0.000000
590.340297,888.247130,9770.718434,76.609550
590.340617,-222.061783,11325.150913,459.657299
590.340938,1258.350101,11251.130318,536.266849
590.341258,1332.370696,9696.697840,306.438199
590.341579,1776.494261,8364.327145,229.828649
590.341899,1480.411884,8882.471304,229.828649
590.342220,1184.329507,10436.903782,-766.095498
590.342540,0.000000,12287.418637,-1532.190996
590.342861,518.144159,12139.377449,-2068.457845
590.343181,1332.370696,12213.398043,-2068.457845
590.343502,1110.308913,12805.562797,-766.095498
590.343822,888.247130,13545.768739,306.438199
590.344143,0.000000,12879.583391,153.219100
590.344463,-592.164754,11843.295072,536.266849
590.344784,-1332.370696,9474.636058,689.485948
590.345104,-1332.370696,8142.265362,1762.019645
590.345425,-1776.494261,7254.018232,2681.334243
590.345745,-2146.597232,8142.265362,2911.162892
590.346065,-2146.597232,8586.388927,689.485948
590.346386,-296.082377,9400.615463,-306.438199
590.346706,1184.329507,11991.336260,-689.485948
590.347027,2368.659014,13471.748144,0.000000
590.347347,3404.947333,13175.665768,-153.219100
590.347668,2590.720797,11325.150913,-1685.410096
590.347988,1036.288319,8142.265362,-2451.505594
590.348309,2072.576638,7772.162391,-1072.533697
590.348629,3256.906145,10288.862594,995.924147
590.348950,2590.720797,12139.377449,153.219100
590.349270,1702.473667,12583.501014,-2451.505594
590.349591,1702.473667,11103.089130,-3447.429741
590.349911,1110.308913,9696.697840,-2681.334243
590.350232,-740.205942,7772.162391,-383.047749
590.350552,-370.102971,8068.244768,0.000000
590.350873,592.164754,10214.842000,153.219100
590.351193,-296.082377,13249.686362,306.438199
590.351514,-1184.329507,14656.077652,383.047749
590.351834,-1776.494261,14952.160028,-919.314598
590.352155,-1406.391290,14063.912898,766.095498
590.352475,-1628.453072,12287.418637,1455.581446
590.352796,-814.226536,10288.862594,1149.143247
590.353116,-1110.308913,8586.388927,0.000000
590.353437,-370.102971,10140.821405,0.000000
590.353757,-148.041188,11769.274478,1149.143247
590.354078,-444.123565,11251.130318,536.266849
590.354398,1406.391290,10510.924376,919.314598
590.354719,3182.885551,10510.924376,1762.019645
590.355039,3330.926739,11029.068536,1532.190996
590.355360,3108.864956,10732.986159,0.000000
590.355680,3775.050304,10066.800811,-1685.410096
590.356001,4589.276840,10214.842000,-2374.896044
590.356321,2442.679609,8290.306550,-2451.505594
590.356642,2368.659014,6661.853478,-1378.971896
590.356962,3701.029710,9918.759623,0.000000
590.357283,1850.514855,13693.809927,689.485948
590.357604,962.267725,13619.789333,-842.705048
590.357924,2516.700203,10807.006753,-2221.676944
590.358245,296.082377,8290.306550,-2068.457845
590.358566,-1332.370696,8438.347739,306.438199
590.358886,-1258.350101,9770.718434,1608.800546
590.359207,-1554.432478,11621.233289,-536.266849
590.359528,-444.123565,12953.603985,-995.924147
590.359848,222.061783,13767.830521,-919.314598
590.360169,-1480.411884,12435.459826,-1378.971896
590.360489,-2442.679609,12287.418637,1072.533697
590.360810,-1850.514855,12509.480420,4213.525239
590.361131,-1480.411884,11399.171507,3524.039291
590.361451,-1702.473667,9252.574275,1608.800546
590.361772,0.000000,9326.594869,459.657299
590.362093,-370.102971,10066.800811,536.266849
590.362413,-1258.350101,9400.615463,1225.752797
590.362734,1110.308913,8142.265362,306.438199
590.363054,2960.823768,7920.203579,306.438199
590.363375,4515.256246,9992.780217,689.485948
590.363696,3552.988522,10732.986159,0.000000
590.364016,3256.906145,10436.903782,-2068.457845
590.364337,3404.947333,11103.089130,-2911.162892
590.364658,3552.988522,10881.027347,-3064.381992
590.364978,3108.864956,7994.224174,-2298.286494
590.365299,3997.112087,8290.306550,-1149.143247
590.365620,2294.638420,10881.027347,-842.705048
590.365940,1036.288319,12879.583391,-1762.019645
590.366261,0.000000,11325.150913,-3447.429741
590.366581,-296.082377,10362.883188,-2374.896044
590.366902,296.082377,10288.862594,1455.581446
590.367223,-592.164754,10807.006753,3753.867940
590.367543,-1924.535449,11399.171507,2681.334243
590.367864,-2812.782580,12805.562797,306.438199
590.368185,-3849.070898,12805.562797,689.485948
590.368505,-2516.700203,11473.192101,153.219100
590.368826,0.000000,11177.109724,1302.362347
590.369146,0.000000,12361.439231,2221.676944
590.369467,-962.267725,13471.748144,995.924147
590.369788,-1184.329507,13175.665768,-306.438199
590.370108,-296.082377,12287.418637,-229.828649
590.370429,814.226536,10214.842000,995.924147
590.370750,2590.720797,8512.368333,1762.019645
590.371070,1850.514855,8512.368333,0.000000
590.371391,1924.535449,9178.553681,-919.314598
590.371711,2294.638420,9770.718434,-1762.019645
590.372032,4515.256246,9622.677246,-1838.629195
590.372353,5033.400406,9178.553681,-1149.143247
590.372673,4367.215058,10066.800811,-1225.752797
590.372994,3182.885551,10362.883188,-2298.286494
590.373315,3404.947333,9474.636058,-2604.724693
590.373635,3552.988522,9770.718434,-1608.800546
590.373956,2664.741391,9992.780217,-383.047749
590.374277,1628.453072,11103.089130,0.000000
590.374597,592.164754,11695.253884,-1532.190996
590.374918,-1924.535449,11843.295072,-3447.429741
590.375238,-518.144159,10066.800811,-1532.190996
590.375559,-518.144159,9844.739029,1455.581446
590.375880,-2294.638420,12065.356855,2298.286494
590.376200,-2516.700203,13619.789333,2451.505594
590.376521,-3256.906145,14508.036463,766.095498
590.376842,-2146.597232,13249.686362,1455.581446
590.377162,-1702.473667,11917.315666,3753.867940
590.377483,-2812.782580,9844.739029,3064.381992
590.377803,-3404.947333,10140.821405,1532.190996
590.378124,-2886.803174,11103.089130,2374.896044
590.378445,-1184.329507,11843.295072,1608.800546
590.378765,1776.494261,11473.192101,1149.143247
590.379086,1406.391290,9770.718434,-1072.533697
590.379407,888.247130,10584.944971,-1685.410096
590.379727,1258.350101,10732.986159,0.000000
590.380048,3034.844362,10732.986159,842.705048
590.380368,4737.318029,9252.574275,995.924147
590.380689,5181.441594,9400.615463,-1149.143247
590.381010,5403.503377,9030.512492,-2451.505594
590.381330,2294.638420,8364.327145,-3524.039291
590.381651,2960.823768,8142.265362,-2451.505594
590.381972,5551.544565,9844.739029,-842.705048
590.382292,3552.988522,9178.553681,-919.314598
590.382613,2664.741391,8586.388927,-2451.505594
590.382934,2960.823768,8882.471304,-1378.971896
590.383254,592.164754,10584.944971,-383.047749
590.383575,1480.411884,10658.965565,459.657299
590.383895,1332.370696,10066.800811,689.485948
590.384216,222.061783,9770.718434,766.095498
590.384537,1110.308913,11103.089130,2221.676944
590.384857,-1110.308913,10658.965565,1608.800546
590.385178,-1850.514855,10288.862594,-536.266849
590.385499,-2368.659014,11843.295072,-383.047749
590.385819,-1628.453072,12509.480420,229.828649
590.386140,-1480.411884,11695.253884,76.609550
590.386460,-148.041188,10510.924376,0.000000
590.386781,-592.164754,10436.903782,-919.314598
590.387102,-2146.597232,12213.398043,0.000000
590.387422,-2146.597232,11917.315666,459.657299
590.387743,-370.102971,10658.965565,1149.143247
590.388064,3330.926739,10362.883188,1532.190996
590.388384,3849.070898,9622.677246,919.314598
590.388705,740.205942,7254.018232,-1455.581446
590.389025,1850.514855,7994.224174,-3064.381992
590.389346,4811.338623,9844.739029,-2681.334243
590.389667,4589.276840,9400.615463,-2604.724693
590.389987,6735.874072,6809.894666,-2374.896044
590.390308,7254.018232,7920.203579,-612.876398
590.390629,3182.885551,10140.821405,-1608.800546
590.390949,2812.782580,12435.459826,-1991.848295
590.391270,3404.947333,12509.480420,-2834.553343
590.391591,3478.967927,11325.150913,-3447.429741
590.391911,3997.112087,11325.150913,-1225.752797
590.392232,296.082377,10881.027347,-1455.581446
590.392552,-2886.803174,11695.253884,-3447.429741
590.392873,-3182.885551,13619.789333,-459.657299
590.393194,-3552.988522,14730.098246,1378.971896
590.393514,-3404.947333,11843.295072,1915.238745
590.393835,-3627.009116,10584.944971,1608.800546
590.394156,-4737.318029,13249.686362,1532.190996
590.394476,-6513.812290,15470.304188,3217.601092
590.394797,-6143.709319,15100.201217,2604.724693
590.395117,-4441.235652,11325.150913,306.438199
590.395438,222.061783,10288.862594,2068.457845
590.395759,3330.926739,12361.439231,4979.620737
590.396079,-518.144159,12361.439231,1378.971896
590.396400,-1332.370696,10288.862594,-2451.505594
590.396721,4737.318029,9696.697840,-2221.676944
590.397041,5847.626942,8438.347739,-1149.143247
590.397362,6291.750507,6143.709319,919.314598
590.397683,7698.141797,8142.265362,0.000000
590.398003,5477.523971,10584.944971,-1991.848295
590.398324,1406.391290,9918.759623,-2987.772442
590.398644,5033.400406,6735.874072,-2834.553343
590.398965,7624.121203,6587.832884,-2068.457845
590.399286,6883.915261,8956.491898,306.438199
590.399606,3923.091493,11843.295072,-1532.190996
590.399927,1406.391290,10362.883188,-3907.087040
590.400248,888.247130,7624.121203,-2987.772442
590.400568,2812.782580,8364.327145,1838.629195
590.400889,814.226536,8734.430116,2451.505594
590.401209,-1924.535449,8660.409521,-1302.362347
590.401530,-1258.350101,10955.047942,-1225.752797
590.401851,-2220.617826,11399.171507,1072.533697
590.402171,-888.247130,11103.089130,4136.915689
590.402492,-296.082377,9400.615463,4366.744339
590.402813,-1406.391290,10510.924376,1455.581446
590.403133,-1554.432478,12805.562797,1072.533697
590.403454,-444.123565,12361.439231,1762.019645
590.403774,592.164754,9326.594869,919.314598
590.404095,3627.009116,6513.812290,1915.238745
590.404416,4811.338623,8290.306550,2757.943793
590.404736,2442.679609,8216.285956,612.876398
590.405057,3182.885551,9030.512492,-1608.800546
590.405378,2960.823768,8734.430116,-2298.286494
590.405698,4811.338623,7254.018232,-1378.971896
590.406019,8512.368333,6957.935855,1915.238745
590.406340,8512.368333,7328.038826,1149.143247
590.406660,6217.729913,9252.574275,-1378.971896
590.406981,7328.038826,9178.553681,-2987.772442
590.407301,6735.874072,7920.203579,-2681.334243
590.407622,6587.832884,6439.791695,-2604.724693
590.407943,9326.594869,5329.482782,-995.924147
590.408263,8068.244768,7254.018232,-1608.800546
590.408584,5995.668130,8882.471304,-2221.676944
590.408905,2442.679609,8660.409521,-1225.752797
590.409225,3552.988522,9474.636058,-229.828649
590.409546,4071.132681,9400.615463,536.266849
590.409866,3627.009116,8734.430116,1685.410096
590.410187,3997.112087,9400.615463,-306.438199
590.410508,3997.112087,10732.986159,-459.657299
590.410828,1406.391290,9696.697840,459.657299
590.411149,3552.988522,8808.450710,2374.896044
590.411470,3997.112087,8142.265362,3140.991542
590.411790,3701.029710,9622.677246,1915.238745
590.412111,2072.576638,9696.697840,1149.143247
590.412431,3108.864956,9104.533087,-612.876398
590.412752,5625.565159,7772.162391,-153.219100
590.413073,5551.544565,6291.750507,-153.219100
590.413393,5255.462188,5773.606348,-1149.143247
590.413714,4515.256246,8216.285956,-2068.457845
590.414035,3701.029710,10288.862594,-2451.505594
590.414355,4885.359217,12805.562797,-689.485948
590.414676,6735.874072,11029.068536,-536.266849
590.414997,7031.956449,8808.450710,-459.657299
590.415317,7254.018232,7920.203579,0.000000
590.415638,5551.544565,7105.977043,-1838.629195
590.415958,4737.318029,6513.812290,-2145.067394
590.416279,5625.565159,4663.297435,-1991.848295
590.416600,7328.038826,3849.070898,-689.485948
590.416920,10066.800811,5181.441594,1532.190996
590.417241,8216.285956,5329.482782,306.438199
590.417562,5921.647536,5625.565159,-689.485948
590.417882,8068.244768,6365.771101,153.219100
590.418203,8068.244768,6513.812290,1072.533697
590.418523,7328.038826,5551.544565,0.000000
590.418844,8956.491898,7031.956449,-2145.067394
590.419165,8364.327145,9696.697840,-3983.696590
590.419485,4145.153275,9844.739029,-4136.915689
590.419806,6587.832884,8512.368333,-2451.505594
590.420127,5773.606348,6957.935855,459.657299
590.420447,4515.256246,8734.430116,2757.943793
590.420768,4441.235652,10881.027347,3830.477490
590.421089,1110.308913,9622.677246,689.485948
590.421409,814.226536,6809.894666,383.047749
590.421730,3034.844362,5551.544565,2145.067394
590.422050,3701.029710,6661.853478,995.924147
590.422371,3552.988522,8290.306550,-842.705048
590.422692,2368.659014,10362.883188,-842.705048
590.423012,2738.761985,11547.212695,229.828649
590.423333,3775.050304,9178.553681,2451.505594
590.423654,3478.967927,7328.038826,2451.505594
590.423974,2664.741391,9178.553681,1225.752797
590.424295,2812.782580,11843.295072,-306.438199
590.424615,3330.926739,11621.233289,-2451.505594
590.424936,5477.523971,8438.347739,-3983.696590
590.425257,7402.059420,7994.224174,-1991.848295
590.425577,3182.885551,6957.935855,0.000000
590.425898,1850.514855,8290.306550,-766.095498
590.426219,4515.256246,9696.697840,919.314598
590.426539,5181.441594,9474.636058,1455.581446
590.426860,6809.894666,9326.594869,1378.971896
590.427180,6069.688724,8438.347739,0.000000
590.427501,666.185348,6513.812290,-1225.752797
590.427822,1554.432478,5921.647536,383.047749
590.428142,5773.606348,6143.709319,2987.772442
590.428463,4959.379811,6217.729913,1225.752797
590.428784,4441.235652,7328.038826,-1378.971896
590.429104,4663.297435,10066.800811,-2451.505594
590.429425,3404.947333,11029.068536,-1225.752797
590.429746,5921.647536,11251.130318,1225.752797
590.430066,8438.347739,8216.285956,2221.676944
590.430387,5403.503377,4367.215058,459.657299
590.430707,4589.276840,5329.482782,-459.657299
590.431028,3997.112087,6809.894666,536.266849
590.431349,3034.844362,7105.977043,-1608.800546
590.431669,6513.812290,5921.647536,-536.266849
590.431990,6587.832884,4589.276840,-229.828649
590.432311,5403.503377,3923.091493,-612.876398
590.432631,7476.080014,6365.771101,-536.266849
590.432952,7550.100608,10955.047942,-919.314598
590.433272,5625.565159,9252.574275,-2451.505594
590.433593,6365.771101,4959.379811,0.000000
590.433914,9400.615463,5329.482782,2987.772442
590.434234,7624.121203,9252.574275,3140.991542
590.434555,3849.070898,10807.006753,229.828649
590.434876,5625.565159,9992.780217,-5822.325785
590.435196,6365.771101,8438.347739,-7201.297681
590.435517,4737.318029,6513.812290,-3524.039291
590.435837,6439.791695,4737.318029,-612.876398
590.436158,4885.359217,6809.894666,2298.286494
590.436479,2368.659014,10362.883188,3217.601092
590.436799,3404.947333,11621.233289,2911.162892
590.437120,4959.379811,9474.636058,-306.438199
590.437441,5921.647536,9252.574275,-306.438199
590.437761,4589.276840,11251.130318,2757.943793
590.438082,5255.462188,9696.697840,2451.505594
590.438403,3552.988522,6587.832884,-1455.581446
590.438723,4071.132681,5181.441594,-1762.019645
590.439044,5107.421000,6143.709319,-2451.505594
590.439364,4219.173869,8068.244768,0.000000
590.439685,3701.029710,11769.274478,1685.410096
590.440006,7105.977043,13397.727550,1762.019645
590.440326,5403.503377,8956.491898,76.609550
590.440647,5181.441594,6809.894666,-842.705048
590.440968,3552.988522,7402.059420,-689.485948
590.441288,518.144159,7624.121203,-2451.505594
590.441609,3627.009116,10214.842000,-1455.581446
590.441929,6661.853478,8438.347739,-383.047749
590.442250,4515.256246,7550.100608,612.876398
590.442571,3997.112087,7328.038826,1685.410096
590.442891,4515.256246,10066.800811,459.657299
590.443212,4589.276840,12953.603985,-1455.581446
590.443533,5107.421000,9400.615463,-1072.533697
590.443853,6439.791695,4071.132681,0.000000
590.444174,7031.956449,3182.885551,1762.019645
590.444495,5477.523971,7105.977043,3753.867940
590.444815,2220.617826,9696.697840,2068.457845
590.445136,3627.009116,8882.471304,-1838.629195
590.445456,6143.709319,6957.935855,-2068.457845
590.445777,6809.894666,5033.400406,-306.438199
590.446098,6957.935855,5625.565159,995.924147
590.446418,4811.338623,7105.977043,153.219100
590.446739,1924.535449,7179.997637,-1149.143247
590.447060,5551.544565,7476.080014,-612.876398
590.447380,6735.874072,6735.874072,-383.047749
590.447701,6957.935855,9400.615463,-383.047749
590.448021,8068.244768,11399.171507,2374.896044
590.448342,5921.647536,10584.944971,995.924147
590.448663,4959.379811,6291.750507,-2068.457845
590.448983,5995.668130,1702.473667,-1149.143247
590.449304,6143.709319,3404.947333,153.219100
590.449625,3849.070898,6439.791695,1225.752797
590.449945,2072.576638,8216.285956,-919.314598
590.450266,5255.462188,7994.224174,-2298.286494
590.450586,6809.894666,7698.141797,-306.438199
590.450907,6365.771101,7994.224174,2068.457845
590.451228,5551.544565,8512.368333,2145.067394
590.451548,3404.947333,9178.553681,0.000000
590.451869,3108.864956,8068.244768,-1455.581446
590.452190,7994.224174,8290.306550,153.219100
590.452510,8660.409521,8068.244768,-229.828649
590.452831,7105.977043,9474.636058,-1302.362347
590.453152,6069.688724,12287.418637,-1915.238745
590.453472,5625.565159,11843.295072,-2757.943793
590.453793,6291.750507,9178.553681,-383.047749
590.454113,5255.462188,4737.318029,2451.505594
590.454434,3330.926739,2516.700203,2911.162892
590.454755,4145.153275,5699.585753,4213.525239
590.455075,3849.070898,10362.883188,2374.896044
590.455396,2072.576638,11103.089130,-1838.629195
590.455717,4219.173869,8068.244768,-2834.553343
590.456037,7550.100608,6217.729913,0.000000
590.456358,5403.503377,6217.729913,1072.533697
590.456678,4589.276840,7624.121203,0.000000
590.456999,6217.729913,11991.336260,-1838.629195
590.457320,5921.647536,11769.274478,-3830.477490
590.457640,6513.812290,8438.347739,-2374.896044
590.457961,9474.636058,7550.100608,-612.876398
590.458282,6735.874072,7550.100608,-766.095498
590.458602,3330.926739,9548.656652,-229.828649
590.458923,4219.173869,8364.327145,-459.657299
590.459243,4885.359217,5403.503377,-612.876398
590.459564,4959.379811,4071.132681,842.705048
590.459885,4441.235652,7031.956449,995.924147
590.460205,3034.844362,10436.903782,-689.485948
590.460526,1258.350101,12435.459826,-2528.115143
590.460846,2368.659014,11103.089130,-919.314598
590.461167,5329.482782,7772.162391,1608.800546
590.461487,4441.235652,8882.471304,4060.306139
590.461808,666.185348,12657.521608,2068.457845
590.462128,-2368.659014,10436.903782,-2604.724693
590.462449,370.102971,8808.450710,-4213.525239
590.462769,4441.235652,6809.894666,-1072.533697
590.463090,6957.935855,7846.182985,2604.724693
590.463411,4885.359217,10732.986159,2681.334243
590.463731,2590.720797,11695.253884,0.000000
590.464052,2886.803174,10140.821405,-459.657299
590.464372,6513.812290,4367.215058,1838.629195
590.464693,7105.977043,1258.350101,3830.477490
590.465013,8882.471304,5107.421000,3370.820191
590.465334,6513.812290,8290.306550,-153.219100
590.465654,6291.750507,9104.533087,-4136.915689
590.465975,9474.636058,5551.544565,-4060.306139
590.466295,10288.862594,3849.070898,-1225.752797
590.466616,7698.141797,3256.906145,689.485948
590.466937,7031.956449,5625.565159,0.000000
590.467257,7105.977043,8882.471304,-1378.971896
590.467578,7179.997637,10955.047942,-2451.505594
590.467898,9992.780217,10658.965565,-766.095498
590.468219,7772.162391,7476.080014,-1149.143247
590.468539,2960.823768,5477.523971,-1302.362347
590.468860,2886.803174,7624.121203,1455.581446
590.469180,3330.926739,7994.224174,1991.848295
590.469501,2812.782580,7550.100608,919.314598
590.469822,4737.318029,7105.977043,1302.362347
590.470142,3330.926739,8364.327145,1915.238745
590.470463,1998.556043,8882.471304,2757.943793
590.470783,1628.453072,9030.512492,3294.210641
590.471104,2220.617826,5995.668130,76.609550
590.471424,3997.112087,5699.585753,-689.485948
590.471745,6143.709319,6957.935855,689.485948
590.472065,4737.318029,9326.594869,0.000000
590.472386,5033.400406,10881.027347,-1225.752797
590.472706,4145.153275,9474.636058,-1302.362347
590.473027,5477.523971,7550.100608,-1991.848295
590.473348,6809.894666,7476.080014,-306.438199
590.473668,7402.059420,8438.347739,-842.705048
590.473989,7994.224174,10362.883188,-2528.115143
590.474309,7550.100608,10955.047942,-3830.477490
590.474630,5699.585753,8142.265362,-1915.238745
590.474950,6735.874072,6069.688724,2145.067394
590.475271,5921.647536,6365.771101,3677.258390
590.475591,2664.741391,8364.327145,1532.190996
590.475912,2960.823768,9400.615463,-1991.848295
590.476232,4293.194464,9326.594869,-4826.401637
590.476553,3034.844362,7698.141797,-3370.820191
590.476874,2738.761985,3997.112087,153.219100
590.477194,4071.132681,6143.709319,2451.505594
590.477515,1776.494261,11103.089130,1762.019645
590.477835,740.205942,13027.624579,-1378.971896
590.478156,3923.091493,12361.439231,-3064.381992
590.478476,5625.565159,10214.842000,-1762.019645
590.478797,5847.626942,9548.656652,1762.019645
590.479117,6439.791695,10510.924376,3524.039291
590.479438,4589.276840,10436.903782,919.314598
590.479759,2664.741391,8216.285956,-1072.533697
590.480079,3997.112087,6587.832884,-1225.752797
590.480400,5921.647536,6365.771101,0.000000
590.480720,4589.276840,7846.182985,766.095498
590.481041,4811.338623,9696.697840,229.828649
590.481361,2442.679609,5329.482782,-1455.581446
590.481682,3182.885551,2368.659014,-2068.457845
590.482002,5403.503377,4071.132681,459.657299
590.482323,4145.153275,8364.327145,229.828649
590.482643,5995.668130,12731.542202,-2145.067394
590.482964,5033.400406,12139.377449,-4366.744339
590.483285,6957.935855,10362.883188,-2987.772442
590.483605,9252.574275,7772.162391,842.705048
590.483926,4589.276840,8216.285956,1149.143247
590.484246,5181.441594,9326.594869,-2298.286494
590.484567,4367.215058,7476.080014,-4673.182538
590.484887,4589.276840,4959.379811,-3064.381992
590.485208,7624.121203,5329.482782,2068.457845
590.485528,5773.606348,6587.832884,5056.230287
590.485849,2442.679609,6809.894666,3677.258390
590.486170,4515.256246,5773.606348,1225.752797
590.486490,5033.400406,4737.318029,536.266849
590.486811,5551.544565,3627.009116,-536.266849
590.487131,6587.832884,5107.421000,-919.314598
590.487452,6217.729913,8586.388927,-1685.410096
590.487772,5181.441594,10436.903782,-2681.334243
590.488093,6661.853478,9104.533087,-1915.238745
590.488413,7328.038826,8290.306550,-3064.381992
590.488734,5921.647536,10510.924376,-1915.238745
590.489054,4367.215058,12065.356855,919.314598
590.489375,3256.906145,10362.883188,1072.533697
590.489696,4293.194464,7105.977043,-1455.581446
590.490016,6291.750507,6143.709319,-995.924147
590.490337,3775.050304,9474.636058,-1072.533697
590.490657,3775.050304,9326.594869,-306.438199
590.490978,2960.823768,6587.832884,-459.657299
590.491298,2960.823768,3701.029710,842.705048
590.491619,5255.462188,4737.318029,2681.334243
590.491939,3404.947333,9400.615463,3830.477490
590.492260,2442.679609,13619.789333,1455.581446
590.492580,4071.132681,12583.501014,-1455.581446
590.492901,7105.977043,8512.368333,-2528.115143
590.493222,7402.059420,6439.791695,-2604.724693
590.493542,5921.647536,7476.080014,76.609550
590.493863,4441.235652,10066.800811,229.828649
590.494183,3627.009116,10362.883188,-1532.190996
590.494504,6661.853478,8216.285956,-2221.676944
590.494824,7846.182985,5921.647536,-1072.533697
590.495145,7402.059420,7624.121203,76.609550
590.495465,4811.338623,10807.006753,1455.581446
590.495786,4737.318029,9622.677246,536.266849
590.496107,5329.482782,4959.379811,689.485948
590.496427,6365.771101,3552.988522,1685.410096
590.496748,5773.606348,8438.347739,1532.190996
590.497068,518.144159,11029.068536,-306.438199
590.497389,518.144159,9992.780217,-3830.477490
590.497709,5699.585753,7920.203579,-1072.533697
590.498030,6439.791695,7105.977043,1915.238745
590.498350,3404.947333,6957.935855,1225.752797
590.498671,1776.494261,10436.903782,-306.438199
590.498991,444.123565,11177.109724,-459.657299
590.499312,3330.926739,9326.594869,1685.410096
590.499633,7698.141797,4737.318029,2451.505594
590.499953,6883.915261,4589.276840,-1072.533697
590.500274,2886.803174,6365.771101,-1608.800546
590.500594,3849.070898,7550.100608,-2145.067394
590.500915,7105.977043,7105.977043,-1991.848295
590.501235,8142.265362,4959.379811,-919.314598
590.501556,8882.471304,7105.977043,-689.485948
590.501876,5773.606348,9696.697840,-766.095498
590.502197,962.267725,10584.944971,-1149.143247
590.502517,5033.400406,9178.553681,306.438199
590.502838,5921.647536,5551.544565,919.314598
590.503159,5995.668130,5773.606348,-229.828649
590.503479,3997.112087,8068.244768,-1532.190996
590.503800,814.226536,8512.368333,-1685.410096
590.504120,3552.988522,9400.615463,612.876398
590.504441,7994.224174,9474.636058,3600.648841
590.504761,5033.400406,7624.121203,1455.581446
590.505082,5329.482782,7402.059420,-612.876398
590.505402,3108.864956,6735.874072,0.000000
590.505723,2590.720797,6069.688724,306.438199
590.506044,4441.235652,3478.967927,-459.657299
590.506364,4737.318029,4071.132681,-2604.724693
590.506685,5551.544565,10362.883188,-4213.525239
590.507005,5107.421000,13915.871710,-2834.553343
590.507326,5773.606348,12879.583391,-1685.410096
590.507646,9622.677246,9770.718434,0.000000
590.507967,6661.853478,7550.100608,1915.238745
590.508287,2368.659014,5477.523971,1838.629195
590.508608,4145.153275,6957.935855,1302.362347
590.508928,6809.894666,9844.739029,1838.629195
590.509249,5181.441594,11473.192101,-229.828649
590.509570,7179.997637,9178.553681,-2374.896044
590.509890,6661.853478,5921.647536,-3064.381992
590.510211,3108.864956,4219.173869,0.000000
590.510531,4737.318029,4367.215058,3524.039291
590.510852,7105.977043,5847.626942,1838.629195
590.511172,4663.297435,7254.018232,-2604.724693
590.511493,3997.112087,7624.121203,-4903.011187
590.511813,5699.585753,9252.574275,-3217.601092
590.512134,8290.306550,14804.118840,0.000000
590.512455,6809.894666,15840.407159,2068.457845
590.512775,5625.565159,11843.295072,919.314598
590.513096,4811.338623,7698.141797,-1302.362347
590.513416,4219.173869,5477.523971,0.000000
590.513737,1406.391290,4737.318029,1378.971896
590.514057,2738.761985,6587.832884,995.924147
590.514378,4515.256246,9770.718434,1072.533697
590.514698,2220.617826,9252.574275,383.047749
590.515019,3997.112087,6439.791695,229.828649
590.515339,5847.626942,6957.935855,919.314598
590.515660,3330.926739,10066.800811,1685.410096
590.515981,2442.679609,10955.047942,1072.533697
590.516301,3849.070898,6809.894666,-1072.533697
590.516622,7328.038826,4811.338623,0.000000
590.516942,6661.853478,6143.709319,2451.505594
590.517263,4737.318029,9030.512492,459.657299
590.517583,5181.441594,11695.253884,-3600.648841
590.517904,6439.791695,11325.150913,-4443.353888
590.518224,7994.224174,7846.182985,-1302.362347
590.518545,9474.636058,1850.514855,2298.286494
590.518865,7550.100608,1480.411884,3753.867940
590.519186,3256.906145,4441.235652,2068.457845
590.519507,2220.617826,7476.080014,-2757.943793
590.519827,6513.812290,8216.285956,-5362.668486
590.520148,9918.759623,6513.812290,-2757.943793
590.520468,7846.182985,7550.100608,1762.019645
590.520789,4663.297435,11029.068536,3983.696590
590.521109,2442.679609,13323.706956,2298.286494
590.521430,2220.617826,10732.986159,536.266849
590.521750,4219.173869,7772.162391,-459.657299
590.522071,5773.606348,6365.771101,153.219100
590.522392,3923.091493,7994.224174,1149.143247
590.522712,1036.288319,10066.800811,612.876398
590.523033,-148.041188,7920.203579,383.047749
590.523353,3701.029710,6439.791695,842.705048
590.523674,5181.441594,6365.771101,2068.457845
590.523994,2664.741391,7254.018232,2911.162892
590.524315,3627.009116,11251.130318,1225.752797
590.524635,3923.091493,11103.089130,229.828649
590.524956,5255.462188,8068.244768,-153.219100
590.525276,8808.450710,5033.400406,76.609550
590.525597,8660.409521,4071.132681,-919.314598
590.525918,6365.771101,7105.977043,-2298.286494
590.526238,4959.379811,10214.842000,-1915.238745
590.526559,6587.832884,9918.759623,-2298.286494
590.526879,10288.862594,8808.450710,-1762.019645
590.527200,9474.636058,6217.729913,459.657299
590.527520,6735.874072,6143.709319,536.266849
590.527841,5921.647536,6291.750507,-1915.238745
590.528161,3701.029710,5625.565159,-4213.525239
590.528482,2368.659014,4515.256246,-3830.477490
590.528802,7772.162391,5255.462188,459.657299
590.529123,7698.141797,8956.491898,3677.258390
590.529444,5699.585753,11917.315666,3294.210641
590.529764,4219.173869,13989.892304,-1378.971896
590.530085,2812.782580,13101.645173,-4596.572988
590.530405,1924.535449,8216.285956,-2834.553343
590.530726,3997.112087,4441.235652,2681.334243
590.531046,6217.729913,5107.421000,3753.867940
590.531367,3849.070898,9622.677246,2068.457845
590.531687,-1332.370696,10510.924376,-1685.410096
590.532008,-518.144159,9918.759623,-4213.525239
590.532329,4441.235652,9844.739029,0.000000
590.532649,5921.647536,10436.903782,3370.820191
590.532970,5773.606348,9770.718434,1532.190996
590.533290,4441.235652,8290.306550,-1225.752797
590.533611,3108.864956,8512.368333,-1378.971896
590.533931,4367.215058,8290.306550,1149.143247
590.534252,6217.729913,5847.626942,995.924147
590.534572,11547.212695,7920.203579,-459.657299
590.534893,8438.347739,10214.842000,-1302.362347
590.535213,7772.162391,10066.800811,-383.047749
590.535534,8290.306550,7994.224174,-1302.362347
590.535855,9178.553681,5847.626942,153.219100
590.536175,6365.771101,3552.988522,2145.067394
590.536496,7772.162391,1998.556043,0.000000
590.536816,7920.203579,3701.029710,-2757.943793
590.537137,5107.421000,7179.997637,-2604.724693
590.537457,5921.647536,7994.224174,76.609550
590.537778,9474.636058,9770.718434,1685.410096
590.538098,7550.100608,11029.068536,153.219100
590.538419,4959.379811,9992.780217,-1915.238745
590.538740,3182.885551,9326.594869,-2451.505594
590.539060,3108.864956,7105.977043,-1149.143247
590.539381,2368.659014,5403.503377,3983.696590
590.539701,3775.050304,4441.235652,4519.963438
590.540022,4145.153275,7920.203579,1072.533697
590.540342,1554.432478,11991.336260,-1072.533697
590.540663,-2220.617826,9918.759623,-2374.896044
590.540983,888.247130,7698.141797,153.219100
590.541304,6069.688724,5773.606348,4290.134789
590.541624,5625.565159,6661.853478,4903.011187
590.541945,2960.823768,7179.997637,689.485948
590.542266,2960.823768,8438.347739,-2987.772442
590.542586,3775.050304,9770.718434,-1838.629195
590.542907,5477.523971,7550.100608,1072.533697
590.543227,8734.430116,7402.059420,229.828649
590.543548,9622.677246,9400.615463,-2145.067394
590.543868,5477.523971,11251.130318,-2374.896044
590.544189,3701.029710,9178.553681,-995.924147
590.544509,5181.441594,4959.379811,689.485948
590.544830,6143.709319,2812.782580,76.609550
590.545150,5847.626942,3701.029710,-1149.143247
590.545471,6439.791695,7920.203579,-2834.553343
590.545792,6587.832884,9844.739029,-3447.429741
590.546112,5699.585753,11177.109724,76.609550
590.546433,6735.874072,8364.327145,3677.258390
590.546753,5551.544565,7254.018232,3524.039291
590.547074,4219.173869,7994.224174,1838.629195
590.547394,740.205942,7624.121203,-2221.676944
590.547715,2960.823768,7402.059420,-3830.477490
590.548035,5329.482782,8586.388927,-2145.067394
590.548356,4737.318029,10066.800811,-1455.581446
590.548677,4663.297435,11251.130318,-1072.533697
590.548997,2812.782580,13027.624579,-1225.752797
590.549318,962.267725,13249.686362,1149.143247
590.549638,1332.370696,9992.780217,3524.039291
590.549959,2442.679609,6661.853478,3064.381992
590.550279,2368.659014,6439.791695,1072.533697
590.550600,2368.659014,8734.430116,383.047749
590.550920,2590.720797,7994.224174,-1149.143247
590.551241,3404.947333,6143.709319,-1455.581446
590.551561,7105.977043,6809.894666,842.705048
590.551882,6957.935855,7402.059420,919.314598
590.552203,6069.688724,8512.368333,-842.705048
590.552523,8068.244768,10807.006753,-995.924147
590.552844,9252.574275,11621.233289,76.609550
590.553164,8364.327145,7698.141797,229.828649
590.553485,8512.368333,5033.400406,-536.266849
590.553805,7624.121203,5255.462188,-3600.648841
590.554126,4071.132681,7105.977043,-4060.306139
590.554446,4293.194464,8364.327145,-1225.752797
590.554767,6513.812290,7846.182985,0.000000
590.555088,6735.874072,6291.750507,459.657299
590.555408,3997.112087,5033.400406,536.266849
590.555729,3997.112087,7402.059420,-995.924147
590.556049,1924.535449,9030.512492,-1378.971896
590.556370,2442.679609,9252.574275,-383.047749
590.556690,5847.626942,8956.491898,1455.581446
590.557011,6809.894666,8956.491898,1455.581446
590.557331,4145.153275,10955.047942,2068.457845
590.557652,814.226536,11251.130318,229.828649
590.557972,1258.350101,8586.388927,-2987.772442
590.558293,2590.720797,6513.812290,-1915.238745
590.558614,2960.823768,4959.379811,153.219100
590.558934,3701.029710,6809.894666,1225.752797
590.559255,4441.235652,10881.027347,0.000000
590.559575,3849.070898,9844.739029,-995.924147
590.559896,3256.906145,6809.894666,-766.095498
590.560216,6957.935855,5107.421000,1302.362347
590.560537,5847.626942,7328.038826,2604.724693
590.560857,7105.977043,11251.130318,383.047749
590.561178,6291.750507,11325.150913,-2374.896044
590.561498,8068.244768,9030.512492,-2604.724693
590.561819,9030.512492,7402.059420,-536.266849
590.562139,6365.771101,6439.791695,0.000000
590.562460,3627.009116,3923.091493,-2451.505594
590.562780,6439.791695,8364.327145,76.609550
590.563101,7105.977043,9474.636058,2451.505594
590.563421,6143.709319,7624.121203,612.876398
590.563742,5995.668130,6809.894666,-1838.629195
590.564062,2072.576638,6439.791695,-2757.943793
590.564383,2664.741391,9104.533087,-612.876398
590.564703,5847.626942,8586.388927,1915.238745
590.565023,5477.523971,8808.450710,-766.095498
590.565344,4959.379811,7846.182985,-1915.238745
590.565664,4441.235652,9696.697840,-383.047749
590.565985,4441.235652,13397.727550,766.095498
590.566305,3552.988522,12731.542202,459.657299
590.566626,4219.173869,7550.100608,-536.266849
590.566946,4959.379811,3775.050304,-229.828649
590.567267,5329.482782,6291.750507,2451.505594
590.567587,2664.741391,8512.368333,3064.381992
590.567907,3256.906145,8438.347739,-459.657299
590.568228,6439.791695,7402.059420,-3140.991542
590.568548,5625.565159,6365.771101,-1532.190996
590.568869,5551.544565,4515.256246,1225.752797
590.569189,6735.874072,5255.462188,1225.752797
590.569510,5625.565159,8882.471304,-995.924147
590.569830,5255.462188,9844.739029,-2834.553343
590.570151,7920.203579,7994.224174,-2757.943793
590.570471,7328.038826,7698.141797,-2528.115143
590.570792,6143.709319,10214.842000,-766.095498
590.571112,4959.379811,10881.027347,459.657299
590.571432,5773.606348,11325.150913,-2451.505594
590.571753,7846.182985,9104.533087,-2451.505594
590.572073,3775.050304,4885.359217,-306.438199
590.572394,2886.803174,2960.823768,153.219100
590.572714,2886.803174,4515.256246,2681.334243
590.573035,1184.329507,9104.533087,3983.696590
590.573355,1628.453072,11251.130318,766.095498
590.573676,5477.523971,10584.944971,-2681.334243
590.573996,5551.544565,8882.471304,-2911.162892
590.574316,1258.350101,7846.182985,-612.876398
590.574637,1702.473667,8216.285956,2221.676944
590.574957,3627.009116,9918.759623,1072.533697
590.575278,2442.679609,10436.903782,-1762.019645
590.575598,4367.215058,11621.233289,-2604.724693
590.575919,7994.224174,14137.933492,-383.047749
590.576239,5847.626942,14063.912898,842.705048
590.576560,4145.153275,10807.006753,995.924147
590.576880,5403.503377,5181.441594,689.485948
590.577201,5477.523971,1998.556043,459.657299
590.577521,5477.523971,3108.864956,3217.601092
590.577841,4885.359217,5329.482782,3064.381992
590.578162,5329.482782,8142.265362,-1072.533697
590.578482,6143.709319,8882.471304,-2221.676944
590.578803,8142.265362,8142.265362,-689.485948
590.579123,10066.800811,7328.038826,1072.533697
590.579444,7846.182985,6809.894666,-229.828649
590.579764,3478.967927,5995.668130,-3830.477490
590.580085,4959.379811,6957.935855,-3830.477490
590.580405,7476.080014,9104.533087,-2987.772442
590.580725,5921.647536,9030.512492,-766.095498
590.581046,6661.853478,10658.965565,153.219100
590.581366,4885.359217,10288.862594,-229.828649
590.581687,1628.453072,9844.739029,383.047749
590.582007,2516.700203,7994.224174,1838.629195
590.582328,3108.864956,5995.668130,995.924147
590.582648,4145.153275,5551.544565,383.047749
590.582969,3256.906145,7624.121203,2298.286494
590.583289,2590.720797,9622.677246,2834.553343
590.583610,2220.617826,8438.347739,1608.800546
590.583930,3256.906145,6661.853478,612.876398
590.584250,3108.864956,6069.688724,0.000000
590.584571,4441.235652,8882.471304,153.219100
590.584891,4145.153275,10140.821405,153.219100
590.585212,5773.606348,9918.759623,-1685.410096
590.585532,5995.668130,7772.162391,-2681.334243
590.585853,6217.729913,5921.647536,-1915.238745
590.586173,8142.265362,7624.121203,153.219100
590.586494,7328.038826,9770.718434,-612.876398
590.586814,7031.956449,8956.491898,-1685.410096
590.587134,7105.977043,7179.997637,-995.924147
590.587455,6809.894666,5181.441594,-536.266849
590.587775,7402.059420,6365.771101,1455.581446
590.588096,6291.750507,7179.997637,1532.190996
590.588416,3997.112087,7476.080014,-2451.505594
590.588737,3404.947333,7105.977043,-3217.601092
590.589057,5699.585753,7105.977043,-612.876398
590.589378,5181.441594,9622.677246,1915.238745
590.589698,2960.823768,11843.295072,1991.848295
590.590019,3108.864956,14137.933492,995.924147
590.590339,4737.318029,11991.336260,-306.438199
590.590659,2664.741391,8586.388927,-383.047749
590.590980,2368.659014,6291.750507,536.266849
590.591300,2368.659014,7550.100608,-1149.143247
590.591621,1776.494261,8068.244768,-995.924147
590.591941,3775.050304,8660.409521,-306.438199
590.592262,8956.491898,6439.791695,-383.047749
590.592582,6365.771101,7328.038826,0.000000
590.592903,3330.926739,7920.203579,76.609550
590.593223,4515.256246,9548.656652,1455.581446
590.593543,6587.832884,8364.327145,2145.067394
590.593864,7994.224174,5551.544565,76.609550
590.594184,8734.430116,5329.482782,-1762.019645
590.594505,5995.668130,6217.729913,-4596.572988
590.594825,3775.050304,8290.306550,-3447.429741
590.595146,6217.729913,8956.491898,383.047749
590.595466,9548.656652,9770.718434,612.876398
590.595787,10436.903782,9104.533087,1149.143247
590.596107,4663.297435,7031.956449,-766.095498
590.596428,1036.288319,7105.977043,-995.924147
590.596748,1702.473667,5921.647536,-536.266849
590.597068,6513.812290,7031.956449,-995.924147
590.597389,7179.997637,7846.182985,-2221.676944
590.597709,4219.173869,9252.574275,-3370.820191
590.598030,2368.659014,11843.295072,-2145.067394
590.598350,518.144159,11843.295072,0.000000
590.598671,3182.885551,10807.006753,1838.629195
590.598991,5773.606348,8660.409521,2834.553343
590.599312,4145.153275,8216.285956,1072.533697
590.599632,2146.597232,8882.471304,842.705048
590.599952,1628.453072,9622.677246,1762.019645
590.600273,4737.318029,8586.388927,2374.896044
590.600593,5033.400406,6957.935855,612.876398
590.600914,6661.853478,7105.977043,-383.047749
590.601234,7105.977043,9104.533087,-612.876398
590.601555,6439.791695,9474.636058,612.876398
590.601875,6735.874072,7031.956449,1991.848295
590.602196,9918.759623,5847.626942,1302.362347
590.602516,8808.450710,4811.338623,-1225.752797
590.602837,6883.915261,5477.523971,-2298.286494
590.603157,7105.977043,5847.626942,-1762.019645
590.603477,8586.388927,8068.244768,0.000000
590.603798,7105.977043,6809.894666,1455.581446
590.604118,6735.874072,5847.626942,-612.876398
590.604439,5921.647536,4737.318029,-3600.648841
590.604759,4589.276840,6809.894666,-3064.381992
590.605080,3108.864956,9030.512492,229.828649
590.605400,4145.153275,9474.636058,1455.581446
590.605721,4589.276840,9178.553681,459.657299
590.606041,2516.700203,9104.533087,-1225.752797
590.606361,1258.350101,11251.130318,-1915.238745
590.606682,0.000000,10732.986159,0.000000
590.607002,1184.329507,7920.203579,1378.971896
590.607323,3478.967927,6143.709319,1991.848295
590.607643,4071.132681,7105.977043,995.924147
590.607964,3552.988522,9104.533087,153.219100
590.608284,1554.432478,8438.347739,1225.752797
590.608605,4145.153275,7994.224174,2221.676944
590.608925,5033.400406,6661.853478,2451.505594
590.609246,6513.812290,6957.935855,0.000000
590.609566,7698.141797,7624.121203,-2221.676944
590.609886,5847.626942,7698.141797,-2834.553343
590.610207,7402.059420,9548.656652,-995.924147
590.610527,8142.265362,9770.718434,1072.533697
590.610848,7550.100608,7105.977043,-536.266849
590.611168,8142.265362,5033.400406,-1685.410096
590.611489,8882.471304,9030.512492,-1762.019645
590.611809,5477.523971,9918.759623,-536.266849
590.612130,4811.338623,7550.100608,153.219100
590.612450,7476.080014,5329.482782,153.219100
590.612770,6513.812290,6143.709319,0.000000
590.613091,5255.462188,7105.977043,-612.876398
590.613411,4663.297435,7994.224174,-1608.800546
590.613732,4589.276840,11103.089130,-2374.896044
590.614052,4811.338623,11177.109724,-306.438199
590.614373,6069.688724,11103.089130,1455.581446
590.614693,5921.647536,8660.409521,536.266849
590.615014,1110.308913,7105.977043,766.095498
590.615334,222.061783,7402.059420,919.314598
590.615655,1110.308913,8956.491898,536.266849
590.615975,1406.391290,10436.903782,842.705048
590.616295,4885.359217,10214.842000,-306.438199
590.616616,7105.977043,10140.821405,229.828649
590.616936,2812.782580,9178.553681,-306.438199
590.617257,2590.720797,7031.956449,1455.581446
590.617577,2516.700203,4959.379811,2604.724693
590.617898,6587.832884,5551.544565,1532.190996
590.618218,7846.182985,8734.430116,1072.533697
590.618539,7105.977043,9474.636058,-383.047749
590.618859,6365.771101,9400.615463,-2451.505594
590.619179,6217.729913,7031.956449,-1302.362347
590.619500,6883.915261,5625.565159,-1532.190996
590.619820,10066.800811,7105.977043,-1608.800546
590.620141,7031.956449,7624.121203,-2145.067394
590.620461,7254.018232,10881.027347,-2374.896044
590.620782,6291.750507,8660.409521,-306.438199
590.621102,4737.318029,4959.379811,383.047749
590.621423,6513.812290,4145.153275,2834.553343
590.621743,7031.956449,8956.491898,2374.896044
590.622064,2294.638420,11621.233289,153.219100
590.622384,1332.370696,9252.574275,-1915.238745
590.622704,5181.441594,4589.276840,-766.095498
590.623025,4885.359217,4367.215058,2068.457845
590.623345,3552.988522,5625.565159,2451.505594
590.623666,4071.132681,7772.162391,-153.219100
590.623986,5477.523971,10955.047942,-2911.162892
590.624307,5921.647536,11843.295072,-306.438199
590.624627,6143.709319,7846.182985,3217.601092
590.624948,7105.977043,5403.503377,2221.676944
590.625268,5329.482782,6809.894666,766.095498
590.625588,2368.659014,7031.956449,229.828649
590.625909,4811.338623,7105.977043,-842.705048
590.626229,5773.606348,4959.379811,-766.095498
590.626550,4885.359217,4367.215058,-2068.457845
590.626870,6957.935855,8734.430116,-459.657299
590.627191,6439.791695,10955.047942,-612.876398
590.627511,4737.318029,10214.842000,-689.485948
590.627832,7254.018232,7920.203579,153.219100
590.628152,7402.059420,7994.224174,383.047749
590.628472,4737.318029,9104.533087,153.219100
590.628793,1628.453072,7698.141797,-1225.752797
590.629113,3404.947333,5847.626942,-3064.381992
590.629434,5255.462188,7105.977043,-2145.067394
590.629754,5699.585753,10140.821405,995.924147
590.630075,3775.050304,11991.336260,842.705048
590.630395,3997.112087,12583.501014,-612.876398
590.630716,3404.947333,11991.336260,-76.609550
590.631036,888.247130,7920.203579,919.314598
590.631357,1924.535449,4885.359217,1838.629195
590.631677,5107.421000,7476.080014,3294.210641
590.631997,4515.256246,10658.965565,2451.505594
590.632318,2072.576638,9918.759623,-612.876398
590.632638,4885.359217,8438.347739,-3064.381992
590.632959,5181.441594,9178.553681,-1455.581446
590.633279,2590.720797,10362.883188,2145.067394
590.633600,3627.009116,8586.388927,1532.190996
590.633920,7772.162391,6883.915261,-1762.019645
590.634241,6809.894666,7254.018232,-2451.505594
590.634561,5551.544565,8660.409521,0.000000
590.634881,5995.668130,9326.594869,689.485948
590.635202,5995.668130,9400.615463,229.828649
590.635522,7402.059420,8068.244768,766.095498
590.635843,8660.409521,6439.791695,76.609550
590.636163,7550.100608,4441.235652,-1685.410096
590.636484,4071.132681,2294.638420,-2451.505594
590.636804,5181.441594,2368.659014,-76.609550
590.637125,9844.739029,4663.297435,2834.553343
590.637445,10436.903782,6661.853478,2068.457845
590.637766,9844.739029,7031.956449,-1225.752797
590.638086,9844.739029,8586.388927,-3600.648841
590.638406,8512.368333,6957.935855,-2757.943793
590.638727,8364.327145,5033.400406,689.485948
590.639047,11547.212695,2664.741391,1455.581446
590.639368,10658.965565,4219.173869,-1378.971896
590.639688,6809.894666,5551.544565,-1685.410096
590.640009,2960.823768,6513.812290,-1608.800546
590.640329,5107.421000,6735.874072,-1762.019645
590.640650,7624.121203,7698.141797,-76.609550
590.640970,11399.171507,9770.718434,1608.800546
590.641290,6587.832884,9104.533087,842.705048
590.641611,4811.338623,7550.100608,76.609550
590.641931,5773.606348,4811.338623,2528.115143
590.642252,5329.482782,2664.741391,3600.648841
590.642572,8364.327145,2886.803174,3370.820191
590.642893,9696.697840,4441.235652,536.266849
590.643213,8734.430116,4441.235652,-1991.848295
590.643534,12065.356855,5477.523971,-766.095498
590.643854,13915.871710,5107.421000,995.924147
590.644175,12805.562797,2886.803174,-1302.362347
590.644495,15174.221811,3849.070898,-2298.286494
590.644815,14063.912898,4515.256246,-3370.820191
590.645136,12657.521608,4515.256246,-2757.943793
590.645456,13545.768739,5033.400406,459.657299
590.645777,13693.809927,5995.668130,-76.609550
590.646097,11325.150913,7846.182985,-2834.553343
590.646418,6735.874072,7254.018232,-4519.963438
590.646738,6439.791695,6513.812290,-3600.648841
590.647059,6735.874072,5033.400406,766.095498
590.647379,3552.988522,5255.462188,3677.258390
590.647699,2738.761985,5033.400406,1838.629195
590.648020,2960.823768,6587.832884,0.000000
590.648340,1332.370696,9030.512492,-612.876398
590.648661,3256.906145,11325.150913,1225.752797
590.648981,4441.235652,11103.089130,1762.019645
590.649302,5995.668130,10584.944971,459.657299
590.649622,5551.544565,9992.780217,306.438199
590.649943,7476.080014,8290.306550,153.219100
590.650263,8290.306550,6735.874072,-842.705048
590.650584,7105.977043,3701.029710,-1532.190996
590.650904,8068.244768,2590.720797,-612.876398
590.651224,10658.965565,4145.153275,536.266849
590.651545,11695.253884,4293.194464,919.314598
590.651865,14211.954086,6143.709319,1072.533697
590.652186,15174.221811,5773.606348,0.000000
590.652506,14359.995275,6143.709319,-1149.143247
590.652827,13915.871710,4145.153275,-1225.752797
590.653147,12435.459826,1184.329507,-2068.457845
590.653468,14211.954086,-370.102971,-1608.800546
590.653788,12213.398043,1258.350101,-1608.800546
590.654108,12731.542202,4219.173869,-1838.629195
590.654429,11251.130318,6069.688724,-2604.724693
590.654749,9548.656652,6883.915261,-3983.696590
590.655070,9252.574275,7328.038826,-1838.629195
590.655390,8956.491898,7105.977043,0.000000
590.655711,6291.750507,5403.503377,1225.752797
590.656031,8068.244768,5329.482782,3140.991542
590.656352,5773.606348,5625.565159,1532.190996
590.656672,3627.009116,5773.606348,-1149.143247
590.656993,3775.050304,7476.080014,-459.657299
590.657313,4811.338623,7994.224174,383.047749
590.657633,5699.585753,6661.853478,1991.848295
590.657954,7550.100608,7105.977043,3524.039291
590.658274,6291.750507,5033.400406,1685.410096
590.658595,5847.626942,5181.441594,1072.533697
590.658915,7550.100608,5699.585753,1685.410096
590.659236,8438.347739,5773.606348,689.485948
590.659556,10362.883188,3627.009116,1149.143247
590.659877,14285.974681,4219.173869,0.000000
590.660197,15026.180623,6439.791695,-1302.362347
590.660517,12435.459826,7476.080014,-1532.190996
590.660838,11251.130318,6069.688724,-2068.457845
590.661158,12287.418637,1332.370696,-1915.238745
590.661479,14211.954086,-296.082377,1302.362347
590.661799,13767.830521,1776.494261,2451.505594
590.662120,11621.233289,4885.359217,-1072.533697
590.662440,10584.944971,5847.626942,-3524.039291
590.662761,9326.594869,5847.626942,-3217.601092
590.663081,10288.862594,3997.112087,-1608.800546
590.663402,11547.212695,3701.029710,0.000000
590.663722,8290.306550,5995.668130,-842.705048
590.664042,5255.462188,7994.224174,-2374.896044
590.664363,4737.318029,7994.224174,-919.314598
590.664683,6957.935855,8068.244768,459.657299
590.665004,7254.018232,8808.450710,1991.848295
590.665324,6143.709319,9548.656652,1762.019645
590.665645,5403.503377,10807.006753,-229.828649
590.665965,4293.194464,8956.491898,-229.828649
590.666286,3923.091493,4885.359217,2068.457845
590.666606,6735.874072,3552.988522,3677.258390
590.666926,7254.018232,4441.235652,3294.210641
590.667247,6069.688724,6143.709319,1302.362347
590.667567,8512.368333,7105.977043,459.657299
590.667888,11029.068536,5995.668130,459.657299
590.668208,11621.233289,4145.153275,612.876398
590.668529,11473.192101,3997.112087,1149.143247
590.668849,12287.418637,4589.276840,-383.047749
590.669170,12657.521608,4145.153275,-1225.752797
590.669490,15396.283594,3330.926739,-1685.410096
590.669810,15100.201217,1184.329507,-2911.162892
590.670131,14434.015869,2368.659014,-4060.306139
590.670451,13397.727550,5625.565159,-2451.505594
590.670772,11991.336260,6661.853478,-1915.238745
590.671092,12731.542202,4959.379811,-1762.019645
590.671413,13989.892304,4589.276840,-229.828649
590.671733,9104.533087,3404.947333,-459.657299
590.672054,6513.812290,4885.359217,-459.657299
590.672374,5773.606348,6217.729913,0.000000
590.672694,5477.523971,5995.668130,-306.438199
590.673015,6439.791695,5847.626942,842.705048
590.673335,7550.100608,6069.688724,306.438199
590.673656,6365.771101,7846.182985,-153.219100
590.673976,3108.864956,7994.224174,1302.362347
590.674297,4367.215058,7624.121203,1991.848295
590.674617,7328.038826,6809.894666,2911.162892
590.674938,8216.285956,6365.771101,3447.429741
590.675258,7402.059420,6069.688724,2068.457845
590.675578,8290.306550,5403.503377,-536.266849
590.675899,9178.553681,4663.297435,-1915.238745
590.676219,10955.047942,3627.009116,0.000000
590.676540,13841.851115,2590.720797,689.485948
590.676860,14434.015869,2886.803174,995.924147
590.677181,13841.851115,4589.276840,766.095498
590.677501,13471.748144,4959.379811,0.000000
590.677822,13545.768739,3404.947333,-1762.019645
590.678142,15322.262999,2368.659014,-2451.505594
590.678462,15322.262999,2886.803174,-1991.848295
590.678783,14211.954086,4811.338623,-1302.362347
590.679103,12583.501014,5773.606348,-1838.629195
590.679424,10436.903782,4959.379811,-2068.457845
590.679744,9326.594869,3256.906145,-1991.848295
590.680065,9992.780217,4663.297435,-689.485948
590.680385,8586.388927,5477.523971,306.438199
590.680706,7994.224174,4959.379811,76.609550
590.681026,6809.894666,6069.688724,459.657299
590.681346,5625.565159,5625.565159,229.828649
590.681667,4663.297435,5773.606348,536.266849
590.681987,5921.647536,7105.977043,612.876398
590.682308,5847.626942,8808.450710,306.438199
590.682628,5033.400406,9400.615463,0.000000
590.682949,5699.585753,7920.203579,229.828649
590.683269,6439.791695,7402.059420,689.485948
590.683590,6587.832884,7105.977043,1762.019645
590.683910,7031.956449,7772.162391,2298.286494
590.684231,6513.812290,5477.523971,766.095498
590.684551,7550.100608,3923.091493,153.219100
590.684871,9992.780217,4959.379811,1685.410096
590.685192,11103.089130,6143.709319,1455.581446
590.685512,11251.130318,5995.668130,-306.438199
590.685833,11843.295072,3923.091493,-1378.971896
590.686153,13249.686362,1702.473667,-2451.505594
590.686474,13175.665768,1850.514855,-1378.971896
590.686794,13471.748144,3330.926739,-536.266849
590.687115,12879.583391,5255.462188,-1149.143247
590.687435,12213.398043,5995.668130,-2757.943793
590.687755,13175.665768,5995.668130,-2451.505594
590.688076,13101.645173,5403.503377,-1991.848295
590.688396,11917.315666,5699.585753,-2145.067394
590.688717,9548.656652,6143.709319,-842.705048
590.689037,7550.100608,5477.523971,-1225.752797
590.689358,7772.162391,4293.194464,459.657299
590.689678,8142.265362,4441.235652,2145.067394
590.689999,7476.080014,6143.709319,2987.772442
590.690319,5551.544565,8808.450710,1838.629195
590.690639,3775.050304,8512.368333,306.438199
590.690960,5329.482782,6365.771101,153.219100
590.691280,6513.812290,3404.947333,2145.067394
590.691601,7920.203579,3256.906145,3370.820191
590.691921,7105.977043,6365.771101,1225.752797
590.692242,5699.585753,9326.594869,-995.924147
590.692562,6809.894666,8290.306550,-1072.533697
590.692883,10436.903782,5773.606348,383.047749
590.693203,11843.295072,3478.967927,2374.896044
590.693523,10584.944971,3775.050304,2528.115143
590.693844,9918.759623,4219.173869,-536.266849
590.694164,10362.883188,3997.112087,-2911.162892
590.694485,11843.295072,2368.659014,-2221.676944
590.694805,14878.139434,1776.494261,0.000000
590.695126,14656.077652,2368.659014,229.828649
590.695446,13101.645173,3552.988522,-1532.190996
590.695767,12361.439231,4737.318029,-3447.429741
590.696087,12361.439231,5329.482782,-3677.258390
590.696407,12657.521608,5255.462188,-1991.848295
590.696728,12287.418637,5699.585753,0.000000
590.697048,9548.656652,6365.771101,-459.657299
590.697369,7254.018232,6957.935855,-689.485948
590.697689,6439.791695,6513.812290,-1072.533697
590.698010,7105.977043,5403.503377,-536.266849
590.698330,7105.977043,5995.668130,1302.362347
590.698651,5995.668130,6883.915261,2987.772442
590.698971,4441.235652,7846.182985,2068.457845
590.699291,4145.153275,7846.182985,2145.067394
590.699612,5329.482782,6809.894666,2681.334243
590.699932,5551.544565,5477.523971,2374.896044
590.700253,6587.832884,5403.503377,995.924147
590.700573,7698.141797,6439.791695,0.000000
590.700894,8438.347739,6883.915261,0.000000
590.701214,9992.780217,6217.729913,459.657299
590.701535,11177.109724,5847.626942,459.657299
590.701855,11621.233289,4663.297435,-612.876398
590.702175,12065.356855,4071.132681,-766.095498
590.702496,12583.501014,2960.823768,-1225.752797
590.702816,13323.706956,2368.659014,-1838.629195
590.703137,13989.892304,2590.720797,-2451.505594
590.703457,14285.974681,3330.926739,-2221.676944
590.703778,14063.912898,4737.318029,-2298.286494
590.704098,13101.645173,5625.565159,-2451.505594
590.704419,12139.377449,5625.565159,-2528.115143
590.704739,11177.109724,5107.421000,-995.924147
590.705060,9326.594869,5255.462188,-76.609550
590.705380,8364.327145,5403.503377,689.485948
590.705700,7105.977043,5995.668130,0.000000
590.706021,5847.626942,5921.647536,-459.657299
590.706341,5477.523971,6217.729913,689.485948
590.706662,5773.606348,7105.977043,1072.533697
590.706982,5477.523971,8216.285956,1302.362347
590.707303,4589.276840,8216.285956,1532.190996
590.707623,4811.338623,7772.162391,1685.410096
590.707944,4885.359217,6365.771101,2298.286494
590.708264,4737.318029,5551.544565,2068.457845
590.708584,5699.585753,5329.482782,919.314598
590.708905,7920.203579,5403.503377,536.266849
590.709225,9326.594869,5847.626942,-306.438199
590.709546,10510.924376,6365.771101,-1455.581446
590.709866,11399.171507,5477.523971,-1608.800546
590.710187,12065.356855,5255.462188,-1072.533697
590.710507,11621.233289,4515.256246,76.609550
590.710828,12287.418637,3923.091493,229.828649
590.711148,12583.501014,4737.318029,-1302.362347
590.711468,12065.356855,5033.400406,-3064.381992
590.711789,11843.295072,5551.544565,-3140.991542
590.712109,11621.233289,5551.544565,-2681.334243
590.712430,10807.006753,4959.379811,-1685.410096
590.712750,10362.883188,4441.235652,-612.876398
590.713071,9474.636058,4959.379811,612.876398
590.713391,8142.265362,5551.544565,1072.533697
590.713712,7105.977043,5625.565159,1378.971896
590.714032,7105.977043,5107.421000,536.266849
590.714352,8216.285956,4737.318029,536.266849
590.714673,7105.977043,5995.668130,536.266849
590.714993,7254.018232,7328.038826,536.266849
590.715314,7402.059420,7994.224174,842.705048
590.715634,7402.059420,7402.059420,842.705048
590.715955,7624.121203,6439.791695,766.095498
590.716275,7698.141797,5551.544565,1149.143247
590.716596,7476.080014,5033.400406,1532.190996
590.716916,8068.244768,4145.153275,1532.190996
590.717236,9474.636058,3256.906145,1225.752797
590.717557,10436.903782,3182.885551,229.828649
590.717877,10584.944971,4219.173869,-842.705048
590.718198,10288.862594,4885.359217,-2068.457845
590.718518,11325.150913,5625.565159,-2298.286494
590.718839,12361.439231,6143.709319,-2298.286494
590.719159,12213.398043,5995.668130,-766.095498
590.719480,11917.315666,5773.606348,-842.705048
590.719800,10658.965565,5403.503377,-995.924147
590.720120,10214.842000,4885.359217,-612.876398
590.720441,9992.780217,4663.297435,0.000000
590.720761,9844.739029,4589.276840,76.609550
590.721082,9252.574275,4737.318029,-536.266849
590.721402,8586.388927,5033.400406,-536.266849
590.721723,7402.059420,5107.421000,-459.657299
590.722043,7328.038826,5033.400406,-229.828649
590.722364,7550.100608,5477.523971,0.000000
590.722684,7402.059420,7031.956449,0.000000
590.723004,7402.059420,8216.285956,229.828649
590.723325,7328.038826,8438.347739,612.876398
590.723645,7179.997637,8068.244768,1149.143247
590.723966,7550.100608,7476.080014,2221.676944
590.724286,7550.100608,6439.791695,1762.019645
590.724607,7254.018232,6069.688724,1149.143247
590.724927,7402.059420,5181.441594,459.657299
590.725248,8068.244768,4441.235652,689.485948
590.725568,9030.512492,3775.050304,383.047749
590.725889,9548.656652,4367.215058,0.000000
590.726209,9918.759623,6069.688724,-689.485948
590.726529,10362.883188,7920.203579,-919.314598
590.726850,10288.862594,8216.285956,-995.924147
590.727170,9844.739029,7550.100608,-842.705048
590.727491,8956.491898,6735.874072,536.266849
590.727811,7476.080014,6735.874072,229.828649
590.728132,6513.812290,6661.853478,-306.438199
590.728452,6513.812290,6143.709319,-689.485948
590.728773,6439.791695,6069.688724,-689.485948
590.729093,5847.626942,6439.791695,0.000000
590.729413,5329.482782,7328.038826,995.924147
590.729734,5625.565159,8956.491898,2145.067394
590.730054,5921.647536,9992.780217,2834.553343
590.730375,6143.709319,9844.739029,3140.991542
590.730695,5699.585753,8808.450710,3217.601092
590.731016,5181.441594,7772.162391,2987.772442
590.731336,4737.318029,7846.182985,3753.867940
590.731657,4663.297435,8512.368333,4060.306139
590.731977,5255.462188,9400.615463,3370.820191
590.732297,5625.565159,9622.677246,3524.039291
590.732618,5773.606348,9400.615463,3907.087040
590.732938,5773.606348,8734.430116,4596.572988
590.733259,5847.626942,8216.285956,4903.011187
590.733579,6217.729913,7698.141797,4519.963438
590.733900,6587.832884,7624.121203,4979.620737
590.734220,7105.977043,8512.368333,4903.011187
590.734541,7328.038826,8882.471304,5286.058936
590.734861,7031.956449,9030.512492,5362.668486
590.735181,7105.977043,9030.512492,6358.592633
590.735502,7031.956449,8586.388927,6741.640382
590.735822,6957.935855,7402.059420,6665.030833
590.736143,6587.832884,6365.771101,6741.640382
590.736463,5847.626942,5699.585753,6128.763984
590.736784,6291.750507,5033.400406,6281.983084
590.737104,5847.626942,5995.668130,6435.202183
590.737425,6069.688724,7328.038826,6818.249932
590.737745,5699.585753,8586.388927,6665.030833
590.738065,5773.606348,8586.388927,7124.688131
590.738386,5181.441594,7624.121203,7277.907231
590.738706,4145.153275,7254.018232,7890.783629
590.739027,3478.967927,6587.832884,7890.783629
590.739347,3182.885551,6513.812290,7737.564530
590.739668,2590.720797,6513.812290,7048.078582
590.739988,2072.576638,6291.750507,6128.763984
590.740309,2146.597232,6439.791695,6665.030833
590.740629,2442.679609,6143.709319,7124.688131
590.740949,2220.617826,6809.894666,6971.469032
590.741270,2516.700203,7031.956449,7048.078582
590.741590,3478.967927,7105.977043,7201.297681
590.741911,3404.947333,7402.059420,7048.078582
590.742231,3997.112087,8142.265362,7124.688131
590.742552,4293.194464,7994.224174,6281.983084
590.742872,4589.276840,7105.977043,4749.792088
590.743193,4293.194464,5995.668130,4673.182538
590.743513,4367.215058,4737.318029,4826.401637
590.743833,4293.194464,3997.112087,4903.011187
590.744154,4219.173869,4367.215058,4673.182538
590.744474,3997.112087,4811.338623,4290.134789
590.744795,4515.256246,6069.688724,2528.115143
590.745115,5699.585753,7254.018232,2757.943793
590.745436,6143.709319,7920.203579,3370.820191
590.745756,6587.832884,9104.533087,3370.820191
590.746077,6957.935855,10362.883188,2911.162892
590.746397,6587.832884,9548.656652,2987.772442
590.746718,6291.750507,9992.780217,4596.572988
590.747038,6143.709319,10214.842000,5592.497135
590.747358,5477.523971,10288.862594,5362.668486
590.747679,4589.276840,9918.759623,4826.401637
590.747999,3478.967927,8512.368333,4290.134789
590.748320,2738.761985,5773.606348,3600.648841
590.748640,2812.782580,3256.906145,3524.039291
590.748961,3552.988522,2960.823768,2528.115143
590.749281,4959.379811,5477.523971,766.095498
590.749602,6143.709319,9474.636058,0.000000
590.749922,8512.368333,13915.871710,-1532.190996
590.750242,10362.883188,16136.489536,-536.266849
590.750563,11029.068536,17098.757260,1302.362347
590.750883,10510.924376,15396.283594,3677.258390
590.751204,8586.388927,11769.274478,4903.011187
590.751524,7402.059420,9178.553681,6205.373534
590.751845,5625.565159,7328.038826,6435.202183
590.752165,4145.153275,7328.038826,5132.839837
590.752486,2886.803174,6513.812290,3907.087040
590.752806,2442.679609,5699.585753,3064.381992
590.753126,3923.091493,4589.276840,2987.772442
590.753447,5329.482782,5255.462188,3907.087040
590.753767,5995.668130,7994.224174,4213.525239
590.754088,5699.585753,11251.130318,3370.820191
590.754408,5699.585753,12879.583391,2221.676944
590.754729,6513.812290,13101.645173,1378.971896
590.755049,8216.285956,13545.768739,2451.505594
590.755370,7994.224174,12953.603985,3907.087040
590.755690,5625.565159,10584.944971,4826.401637
590.756010,3849.070898,8438.347739,4826.401637
590.756331,2516.700203,6661.853478,5132.839837
590.756651,2442.679609,5329.482782,5745.716235
590.756972,2812.782580,4811.338623,6128.763984
590.757292,2664.741391,4737.318029,5362.668486
590.757613,3849.070898,4959.379811,6128.763984
590.757933,5699.585753,6513.812290,8350.440928
590.758254,5403.503377,8956.491898,8810.098227
590.758574,4885.359217,10881.027347,7431.126331
590.758894,4515.256246,10584.944971,5056.230287
590.759215,4145.153275,8882.471304,4213.525239
590.759535,4663.297435,6513.812290,6052.154434
590.759856,6883.915261,6809.894666,8503.660028
590.760176,4811.338623,7698.141797,8197.221829
590.760497,2516.700203,9252.574275,5898.935335
590.760817,2368.659014,8660.409521,4903.011187
590.761138,2590.720797,5329.482782,5515.887586
590.761458,2146.597232,814.226536,7354.516781
590.761779,4589.276840,888.247130,8810.098227
590.762099,6217.729913,5033.400406,7814.174080
590.762420,4959.379811,8586.388927,5822.325785
590.762740,4589.276840,10066.800811,3524.039291
590.763061,6883.915261,10066.800811,3600.648841
590.763382,6513.812290,8142.265362,5745.716235
590.763702,4441.235652,6069.688724,8120.612279
590.764023,4515.256246,5033.400406,9269.755526
590.764343,5255.462188,7328.038826,9652.803275
590.764664,3330.926739,9104.533087,7431.126331
590.764984,3034.844362,8660.409521,5209.449386
590.765305,3775.050304,8364.327145,4290.134789
590.765625,2960.823768,7254.018232,5439.278036
590.765946,3256.906145,5403.503377,6894.859482
590.766266,4663.297435,3404.947333,6818.249932
590.766587,4737.318029,5107.421000,6511.811733
590.766907,3923.091493,7846.182985,6665.030833
590.767228,4071.132681,8734.430116,5132.839837
590.767548,4737.318029,8808.450710,4290.134789
590.767869,5477.523971,10510.924376,6205.373534
590.768189,5773.606348,11769.274478,7584.345430
590.768510,6587.832884,10881.027347,6205.373534
590.768830,6439.791695,9030.512492,4136.915689
590.769151,4589.276840,6809.894666,2374.896044
590.769472,4663.297435,3775.050304,1455.581446
590.769792,6217.729913,4441.235652,2681.334243
590.770113,5625.565159,8364.327145,4749.792088
590.770433,4959.379811,10584.944971,5286.058936
590.770754,6809.894666,10658.965565,4060.306139
590.771074,8142.265362,10658.965565,2987.772442
590.771395,5847.626942,10436.903782,4213.525239
590.771715,4959.379811,8808.450710,4290.134789
590.772036,5255.462188,8512.368333,3294.210641
590.772356,4663.297435,9030.512492,3907.087040
590.772677,5181.441594,9770.718434,4749.792088
590.772997,6513.812290,9548.656652,3524.039291
590.773318,4737.318029,9548.656652,2298.286494
590.773638,3256.906145,9548.656652,4443.353888
590.773959,4367.215058,8512.368333,5515.887586
590.774279,5699.585753,7179.997637,5286.058936
590.774600,4441.235652,7105.977043,4749.792088
590.774920,4367.215058,7920.203579,3677.258390
590.775241,6587.832884,10436.903782,2145.067394
590.775562,5921.647536,11473.192101,2374.896044
590.775882,4737.318029,9104.533087,3830.477490
590.776203,7328.038826,7698.141797,3753.867940
590.776523,7846.182985,8882.471304,3983.696590
590.776844,4219.173869,9104.533087,4443.353888
590.777164,4589.276840,8956.491898,3600.648841
590.777485,6735.874072,8438.347739,3370.820191
590.777805,6291.750507,7772.162391,4826.401637
590.778126,5847.626942,5995.668130,6281.983084
590.778446,6069.688724,6069.688724,5592.497135
590.778767,3997.112087,7105.977043,4673.182538
590.779087,3478.967927,7772.162391,4596.572988
590.779408,5033.400406,8216.285956,3370.820191
590.779728,5995.668130,8364.327145,3907.087040
590.780049,5551.544565,10510.924376,6511.811733
590.780369,5773.606348,12213.398043,7354.516781
590.780690,3108.864956,10140.821405,5975.544884
590.781010,1036.288319,6291.750507,5669.106685
590.781331,2368.659014,3552.988522,6894.859482
590.781652,4811.338623,5551.544565,6818.249932
590.781972,3034.844362,8808.450710,6128.763984
590.782293,1554.432478,8882.471304,3983.696590
590.782613,4219.173869,9104.533087,3447.429741
590.782934,6143.709319,8808.450710,6435.202183
590.783254,5181.441594,9030.512492,8503.660028
590.783575,5551.544565,10214.842000,7277.907231
590.783895,4663.297435,10436.903782,6741.640382
590.784216,3701.029710,8142.265362,7354.516781
590.784536,5625.565159,5181.441594,8120.612279
590.784857,6809.894666,5921.647536,7660.954980
590.785177,4737.318029,8438.347739,7354.516781
590.785498,4071.132681,9030.512492,6894.859482
590.785818,4219.173869,6439.791695,5592.497135
590.786139,5181.441594,3478.967927,5362.668486
590.786459,5551.544565,3256.906145,6741.640382
590.786780,4811.338623,4959.379811,6588.421283
590.787100,3404.947333,6143.709319,4366.744339
590.787421,4441.235652,7994.224174,2528.115143
590.787742,7105.977043,9400.615463,2681.334243
590.788062,7105.977043,9252.574275,5056.230287
590.788383,6735.874072,9400.615463,6128.763984
590.788703,5107.421000,10955.047942,5669.106685
590.789024,2812.782580,9696.697840,4749.792088
590.789344,2590.720797,5847.626942,5056.230287
590.789665,4663.297435,3330.926739,6128.763984
590.789985,2886.803174,4441.235652,6894.859482
590.790306,2442.679609,7772.162391,5362.668486
590.790626,2294.638420,9622.677246,1838.629195
590.790947,3034.844362,8660.409521,1225.752797
590.791267,5107.421000,7550.100608,4979.620737
590.791588,6661.853478,8438.347739,7354.516781
590.791908,4367.215058,9474.636058,5822.325785
590.792229,2368.659014,9622.677246,3524.039291
590.792549,4293.194464,9252.574275,2145.067394
590.792870,7476.080014,10732.986159,2374.896044
590.793191,6883.915261,10288.862594,4596.572988
590.793511,6069.688724,8956.491898,5132.839837
590.793832,6439.791695,8216.285956,3447.429741
590.794152,5773.606348,7031.956449,3753.867940
590.794473,3701.029710,5773.606348,3217.601092
590.794793,5403.503377,4071.132681,3064.381992
590.795114,6291.750507,5255.462188,3753.867940
590.795434,6809.894666,8068.244768,4366.744339
590.795755,5995.668130,9400.615463,2298.286494
590.796075,7031.956449,9548.656652,-612.876398
590.796396,7328.038826,9474.636058,0.000000
590.796716,7846.182985,10140.821405,2145.067394
590.797037,6661.853478,10362.883188,2145.067394
590.797357,5773.606348,10288.862594,536.266849
590.797678,7179.997637,11177.109724,1991.848295
590.797998,6957.935855,11251.130318,3907.087040
590.798319,3775.050304,9918.759623,5132.839837
590.798639,3404.947333,7402.059420,4673.182538
590.798960,4145.153275,7105.977043,2987.772442
590.799281,2220.617826,5699.585753,1991.848295
590.799601,1776.494261,5033.400406,2987.772442
590.799922,4885.359217,5551.544565,4366.744339
590.800242,5995.668130,7402.059420,4060.306139
590.800563,6439.791695,10362.883188,3830.477490
590.800883,6513.812290,12879.583391,2834.553343
590.801204,6587.832884,13841.851115,3524.039291
590.801524,7550.100608,12731.542202,6818.249932
590.801845,7105.977043,10436.903782,7507.735880
590.802165,5107.421000,8142.265362,5362.668486
590.802486,3849.070898,6365.771101,4213.525239
590.802806,3552.988522,5551.544565,4290.134789
590.803127,4219.173869,3923.091493,4979.620737
590.803447,4589.276840,4589.276840,2911.162892
590.803768,4589.276840,6809.894666,1455.581446
590.804088,3478.967927,8364.327145,3983.696590
590.804409,5995.668130,10955.047942,7354.516781
590.804729,7328.038826,11621.233289,6665.030833
590.805050,5477.523971,11473.192101,4290.134789
590.805371,4441.235652,10362.883188,3753.867940
590.805691,4959.379811,9400.615463,4290.134789
590.806012,5181.441594,7698.141797,6358.592633
590.806332,4145.153275,6069.688724,6435.202183
590.806653,3552.988522,6439.791695,4519.963438
590.806973,3552.988522,8438.347739,6281.983084
590.807294,2294.638420,8882.471304,9959.241474
590.807614,2812.782580,7402.059420,9806.022374
590.807935,4219.173869,5255.462188,6894.859482
590.808255,2294.638420,3182.885551,5822.325785
590.808576,2738.761985,4441.235652,7277.907231
590.808896,4737.318029,6217.729913,6511.811733
590.809217,4441.235652,7550.100608,4366.744339
590.809537,4441.235652,7624.121203,2834.553343
590.809858,4293.194464,8216.285956,2528.115143
590.810178,3849.070898,9178.553681,5975.544884
590.810499,3997.112087,7994.224174,8273.831378
590.810819,5699.585753,7624.121203,4596.572988
590.811140,5403.503377,6957.935855,919.314598
590.811461,3552.988522,5625.565159,1455.581446
590.811781,4663.297435,3330.926739,3524.039291
590.812102,6143.709319,2220.617826,5132.839837
590.812422,6439.791695,2442.679609,3524.039291
590.812743,6809.894666,6883.915261,1685.410096
590.813063,8142.265362,11843.295072,1532.190996
590.813384,7328.038826,12879.583391,3907.087040
590.813704,7994.224174,9918.759623,5822.325785
590.814025,6513.812290,5255.462188,5592.497135
590.814345,4959.379811,4737.318029,4136.915689
590.814666,2960.823768,6365.771101,4060.306139
590.814986,3182.885551,7772.162391,3064.381992
590.815307,5403.503377,8068.244768,1838.629195
590.815627,6439.791695,9548.656652,2604.724693
590.815948,3997.112087,9622.677246,3753.867940
590.816268,3627.009116,10214.842000,4903.011187
590.816589,5403.503377,11843.295072,5056.230287
590.816909,3775.050304,11917.315666,2374.896044
590.817230,2960.823768,8512.368333,229.828649
590.817551,3997.112087,5699.585753,689.485948
590.817871,5329.482782,7846.182985,4213.525239
590.818192,5329.482782,10955.047942,5745.716235
590.818512,4885.359217,13323.706956,995.924147
590.818833,3775.050304,13175.665768,-4136.915689
590.819153,4589.276840,11251.130318,-536.266849
590.819474,6069.688724,7550.100608,5286.058936
590.819794,7179.997637,4367.215058,4903.011187
590.820115,6957.935855,7772.162391,2681.334243
590.820435,4885.359217,11991.336260,-306.438199
590.820756,1554.432478,9844.739029,-2374.896044
590.821076,6217.729913,8586.388927,383.047749
590.821397,9400.615463,6957.935855,4060.306139
590.821717,7031.956449,5773.606348,1838.629195
590.822038,6143.709319,6291.750507,-2451.505594
590.822358,4515.256246,9252.574275,-3140.991542
590.822679,5033.400406,10955.047942,229.828649
590.822999,9030.512492,9622.677246,4060.306139
590.823320,7624.121203,9326.594869,3830.477490
590.823641,3775.050304,8290.306550,1838.629195
590.823961,1776.494261,8290.306550,995.924147
590.824282,2294.638420,5551.544565,153.219100
590.824602,4367.215058,4589.276840,1532.190996
590.824923,6291.750507,7105.977043,3064.381992
590.825243,1628.453072,6735.874072,459.657299
590.825564,-518.144159,5255.462188,-306.438199
590.825884,5107.421000,7105.977043,2451.505594
590.826205,6217.729913,9770.718434,2374.896044
590.826525,4145.153275,7550.100608,-459.657299
590.826846,5847.626942,8882.471304,-3140.991542
590.827166,7105.977043,10214.842000,-2834.553343
590.827487,5477.523971,6365.771101,-459.657299
590.827807,5625.565159,4515.256246,842.705048
590.828128,6217.729913,8438.347739,-689.485948
590.828448,1554.432478,8956.491898,76.609550
590.828769,2886.803174,7402.059420,689.485948
590.829090,7994.224174,4885.359217,-1072.533697
590.829410,3849.070898,3478.967927,-2145.067394
590.829731,2368.659014,5477.523971,0.000000
590.830051,6513.812290,8808.450710,306.438199
590.830372,3849.070898,10658.965565,-995.924147
590.830692,6883.915261,11399.171507,-1302.362347
590.831013,10881.027347,12657.521608,-306.438199
590.831333,4737.318029,9474.636058,1608.800546
590.831654,3997.112087,8808.450710,4519.963438
590.831974,6587.832884,10510.924376,2834.553343
590.832295,3849.070898,9622.677246,-1149.143247
590.832615,2442.679609,7698.141797,689.485948
590.832936,5625.565159,7698.141797,2757.943793
590.833256,3330.926739,7328.038826,2374.896044
590.833577,3997.112087,6143.709319,1149.143247
590.833897,5921.647536,5921.647536,-2374.896044
590.834218,5107.421000,6957.935855,-1991.848295
590.834538,4663.297435,9178.553681,2451.505594
590.834859,8142.265362,12509.480420,3217.601092
590.835180,7105.977043,13619.789333,-995.924147
590.835500,4737.318029,11473.192101,-612.876398
590.835821,5403.503377,10362.883188,919.314598
590.836141,7105.977043,8808.450710,919.314598
590.836462,3256.906145,6217.729913,919.314598
590.836782,2146.597232,6143.709319,-1149.143247
590.837103,4737.318029,6735.874072,-3294.210641
590.837423,2664.741391,6143.709319,-612.876398
590.837744,4885.359217,6883.915261,2681.334243
590.838064,7105.977043,6809.894666,1455.581446
590.838385,4737.318029,7698.141797,-383.047749
590.838705,5107.421000,9030.512492,842.705048
590.839026,6069.688724,8808.450710,76.609550
590.839346,6513.812290,6217.729913,-1991.848295
590.839667,7031.956449,7698.141797,-2068.457845
590.839987,6735.874072,7624.121203,-995.924147
590.840308,4811.338623,6957.935855,-612.876398
590.840628,5477.523971,7846.182985,229.828649
590.840949,6069.688724,7254.018232,-383.047749
590.841270,3923.091493,6513.812290,-229.828649
590.841590,4589.276840,7772.162391,2681.334243
590.841911,3182.885551,7624.121203,2757.943793
590.842231,3997.112087,7476.080014,842.705048
590.842552,5699.585753,6957.935855,-536.266849
590.842872,3108.864956,4441.235652,-2374.896044
590.843193,2220.617826,4959.379811,-689.485948
590.843513,5773.606348,8364.327145,1225.752797
590.843834,3256.906145,8734.430116,-1532.190996
590.844154,3627.009116,7254.018232,-2451.505594
590.844475,7698.141797,9548.656652,0.000000
590.844795,5921.647536,10955.047942,1072.533697
590.845116,2738.761985,10881.027347,-383.047749
590.845436,5181.441594,10066.800811,-3217.601092
590.845757,3849.070898,7254.018232,-4749.792088
590.846077,4737.318029,7105.977043,306.438199
590.846398,5033.400406,7920.203579,3983.696590
590.846718,2960.823768,7624.121203,-1378.971896
590.847039,1036.288319,8290.306550,-5056.230287
590.847360,4441.235652,10658.965565,-2451.505594
590.847680,5181.441594,9844.739029,459.657299
590.848001,6143.709319,9918.759623,1762.019645
590.848321,5773.606348,11029.068536,153.219100
590.848642,3552.988522,10288.862594,-1532.190996
590.848962,5773.606348,11399.171507,766.095498
590.849283,6661.853478,9918.759623,2451.505594
590.849603,5329.482782,7179.997637,-536.266849
590.849924,6513.812290,6439.791695,-1302.362347
590.850244,5699.585753,7698.141797,-842.705048
590.850565,3627.009116,7846.182985,842.705048
590.850885,8438.347739,9104.533087,2604.724693
590.851206,10436.903782,9474.636058,1915.238745
590.851526,5255.462188,6587.832884,-766.095498
590.851847,4219.173869,4959.379811,0.000000
590.852167,8364.327145,7328.038826,0.000000
590.852488,7698.141797,7846.182985,-612.876398
590.852808,6365.771101,6439.791695,-2681.334243
590.853129,8882.471304,7920.203579,-4673.182538
590.853450,5181.441594,8512.368333,-2834.553343
590.853770,1924.535449,9030.512492,1991.848295
590.854091,4959.379811,8512.368333,2221.676944
590.854411,5773.606348,7550.100608,-1072.533697
590.854732,2590.720797,7105.977043,-1455.581446
590.855052,3404.947333,8512.368333,-612.876398
590.855373,2960.823768,7624.121203,-1991.848295
590.855693,444.123565,5921.647536,0.000000
590.856014,4441.235652,7105.977043,2911.162892
590.856334,4515.256246,7476.080014,1532.190996
590.856655,1850.514855,8142.265362,229.828649
590.856975,1554.432478,8216.285956,0.000000
590.857296,2442.679609,7328.038826,0.000000
590.857616,2368.659014,5847.626942,995.924147
590.857937,5255.462188,6143.709319,1225.752797
590.858257,6513.812290,6883.915261,-1991.848295
590.858578,6661.853478,8808.450710,-3600.648841
590.858898,4885.359217,9696.697840,-2145.067394
590.859219,4293.194464,7624.121203,-1302.362347
590.859540,8068.244768,7920.203579,766.095498
590.859860,10658.965565,10288.862594,2068.457845
590.860181,6883.915261,10066.800811,-383.047749
590.860501,3849.070898,7402.059420,-2451.505594
590.860822,6069.688724,8586.388927,-995.924147
590.861142,6291.750507,9030.512492,1225.752797
590.861463,5107.421000,7105.977043,1608.800546
590.861783,7476.080014,7031.956449,-689.485948
590.862104,4219.173869,7105.977043,-536.266849
590.862424,296.082377,5477.523971,766.095498
590.862745,3330.926739,5551.544565,229.828649
590.863065,6291.750507,8808.450710,-1685.410096
590.863386,6513.812290,14359.995275,0.000000
590.863706,7328.038826,17246.798449,229.828649
590.864027,4441.235652,13693.809927,-995.924147
590.864347,1628.453072,5551.544565,536.266849
590.864668,4737.318029,4811.338623,3753.867940
590.864989,3404.947333,6217.729913,2298.286494
590.865309,1924.535449,8734.430116,-2221.676944
590.865630,3849.070898,10436.903782,-3217.601092
590.865950,5847.626942,11325.150913,-1838.629195
590.866271,4885.359217,8956.491898,4290.134789
590.866591,5181.441594,5625.565159,6435.202183
590.866912,3701.029710,3923.091493,919.314598
590.867232,1998.556043,3256.906145,-2757.943793
590.867553,3997.112087,4515.256246,-2604.724693
590.867873,7476.080014,5847.626942,-2374.896044
590.868194,9030.512492,8808.450710,-2298.286494
590.868514,9252.574275,12805.562797,-1455.581446
590.868835,7994.224174,13323.706956,-3983.696590
590.869155,5921.647536,9326.594869,-4213.525239
590.869476,5403.503377,5995.668130,0.000000
590.869797,7920.203579,5551.544565,2528.115143
590.870117,6735.874072,5255.462188,459.657299
590.870438,6143.709319,8364.327145,-2681.334243
590.870758,5255.462188,10510.924376,-3064.381992
590.871079,3849.070898,9696.697840,383.047749
590.871399,4663.297435,7476.080014,3370.820191
590.871720,4293.194464,3997.112087,3447.429741
590.872040,1998.556043,3330.926739,766.095498
590.872361,2146.597232,6809.894666,536.266849
590.872681,1998.556043,9844.739029,536.266849
590.873002,2886.803174,8882.471304,-612.876398
590.873322,4811.338623,9992.780217,-76.609550
590.873643,6587.832884,11029.068536,-1991.848295
590.873963,4219.173869,12657.521608,-3600.648841
590.874284,4219.173869,11695.253884,-766.095498
590.874605,3034.844362,7846.182985,0.000000
590.874925,6735.874072,6069.688724,689.485948
590.875246,3330.926739,6365.771101,842.705048
590.875566,3404.947333,7698.141797,0.000000
590.875887,4811.338623,8290.306550,-1302.362347
590.876207,2590.720797,7031.956449,-3370.820191
590.876528,3552.988522,5181.441594,-2987.772442
590.876848,7254.018232,6661.853478,306.438199
590.877169,7772.162391,8364.327145,1838.629195
590.877489,5033.400406,6809.894666,0.000000
590.877810,5625.565159,8586.388927,-3677.258390
590.878130,6957.935855,10584.944971,-3907.087040
590.878451,5477.523971,8512.368333,-766.095498
590.878771,9178.553681,8290.306550,1991.848295
590.879092,10362.883188,10436.903782,766.095498
590.879413,4441.235652,9548.656652,-2911.162892
590.879733,1702.473667,7105.977043,-3447.429741
590.880054,4145.153275,4885.359217,-76.609550
590.880374,7328.038826,6217.729913,3600.648841
590.880695,6513.812290,9030.512492,2681.334243
590.881015,4219.173869,8660.409521,-3294.210641
590.881336,-148.041188,5551.544565,-4979.620737
590.881656,5033.400406,7031.956449,2145.067394
590.881977,6735.874072,9252.574275,4979.620737
590.882297,5255.462188,9474.636058,0.000000
590.882618,4071.132681,8808.450710,-4903.011187
590.882938,4515.256246,7994.224174,-5515.887586
590.883259,3034.844362,7772.162391,-612.876398
590.883579,6661.853478,9252.574275,2298.286494
590.883900,6587.832884,9548.656652,-1608.800546
590.884221,5255.462188,11843.295072,-4903.011187
590.884541,4293.194464,12065.356855,-1225.752797
590.884862,3997.112087,9178.553681,842.705048
590.885182,5329.482782,6365.771101,1915.238745
590.885503,4663.297435,6883.915261,2451.505594
590.885823,3552.988522,7328.038826,995.924147
590.886144,3182.885551,7698.141797,-995.924147
590.886464,3552.988522,7254.018232,-1225.752797
590.886785,3775.050304,6217.729913,919.314598
590.887105,6143.709319,7254.018232,3677.258390
590.887426,7328.038826,10955.047942,3217.601092
590.887746,5477.523971,12435.459826,-459.657299
590.888067,6439.791695,10732.986159,-2374.896044
590.888387,7179.997637,7550.100608,-459.657299
590.888708,4515.256246,4293.194464,3140.991542
590.889028,6513.812290,6217.729913,4749.792088
590.889349,7772.162391,10214.842000,153.219100
590.889670,4885.359217,10658.965565,-4443.353888
590.889990,4145.153275,7698.141797,-2221.676944
590.890311,6513.812290,6217.729913,3140.991542
590.890631,6809.894666,6365.771101,5822.325785
590.890952,5181.441594,8660.409521,3524.039291
590.891272,4737.318029,9104.533087,-2298.286494
590.891593,2294.638420,7698.141797,-4596.572988
590.891913,3256.906145,6143.709319,2681.334243
590.892234,6957.935855,7105.977043,6435.202183
590.892554,5625.565159,6661.853478,3140.991542
590.892875,1258.350101,6661.853478,-3140.991542
590.893195,1924.535449,6957.935855,-5669.106685
590.893516,2590.720797,7179.997637,-842.705048
590.893836,5403.503377,7105.977043,4443.353888
590.894157,4589.276840,6513.812290,2987.772442
590.894478,3775.050304,6957.935855,-3524.039291
590.894798,666.185348,6365.771101,-5132.839837
590.895119,1850.514855,5625.565159,-2451.505594
590.895439,4293.194464,4737.318029,-229.828649
590.895760,5551.544565,7402.059420,-229.828649
590.896080,6883.915261,10881.027347,-2221.676944
590.896401,6439.791695,14285.974681,-3140.991542
590.896721,4663.297435,10732.986159,-383.047749
590.897042,2590.720797,4071.132681,2911.162892
590.897362,5033.400406,2960.823768,4213.525239
590.897683,5551.544565,5181.441594,2451.505594
590.898003,3256.906145,9178.553681,-2451.505594
590.898324,5403.503377,9770.718434,-5209.449386
590.898644,5329.482782,8290.306550,-3600.648841
590.898965,6291.750507,7179.997637,1762.019645
590.899286,8290.306550,8512.368333,3370.820191
590.899606,6291.750507,9104.533087,842.705048
590.899927,4589.276840,9400.615463,-3830.477490
590.900247,6587.832884,9474.636058,-3753.867940
590.900568,6365.771101,9474.636058,-842.705048
590.900888,8290.306550,9622.677246,2145.067394
590.901209,10288.862594,12065.356855,1685.410096
590.901529,6957.935855,12509.480420,-3064.381992
590.901850,3775.050304,9918.759623,-4136.915689
590.902170,4737.318029,6809.894666,0.000000
590.902491,4885.359217,4959.379811,3524.039291
590.902811,4145.153275,6291.750507,3064.381992
590.903132,5477.523971,10362.883188,-1762.019645
590.903452,4959.379811,11843.295072,-4749.792088
590.903773,3923.091493,10288.862594,-1455.581446
590.904094,4885.359217,8068.244768,1149.143247
590.904414,3552.988522,6809.894666,-459.657299
590.904735,3701.029710,7105.977043,-1149.143247
590.905055,5699.585753,8512.368333,-383.047749
590.905376,5329.482782,9622.677246,-2834.553343
590.905696,4589.276840,10658.965565,-2834.553343
590.906017,4219.173869,11621.233289,0.000000
590.906337,4959.379811,9770.718434,1149.143247
590.906658,7402.059420,8290.306550,2757.943793
590.906978,5255.462188,6069.688724,1762.019645
590.907299,1332.370696,3849.070898,-1608.800546
590.907619,1924.535449,2664.741391,-153.219100
590.907940,4145.153275,4441.235652,3753.867940
590.908260,5033.400406,5995.668130,3140.991542
590.908581,7698.141797,9178.553681,-1685.410096
590.908902,5625.565159,9844.739029,-5286.058936
590.909222,3552.988522,9252.574275,-1455.581446
590.909543,7105.977043,9622.677246,5362.668486
590.909863,8142.265362,7772.162391,4673.182538
590.910184,5181.441594,5773.606348,-1608.800546
590.910504,4811.338623,7328.038826,-3447.429741
590.910825,4219.173869,9326.594869,0.000000
590.911145,2664.741391,7846.182985,4519.963438
590.911466,5551.544565,6439.791695,3753.867940
590.911786,5551.544565,5625.565159,-2604.724693
590.912107,3552.988522,5625.565159,-3217.601092
590.912427,2590.720797,6735.874072,2068.457845
590.912748,5625.565159,8216.285956,4136.915689
590.913068,5773.606348,8734.430116,2451.505594
590.913389,5625.565159,8586.388927,-153.219100
590.913710,4293.194464,8438.347739,-2374.896044
590.914030,6143.709319,11177.109724,689.485948
590.914351,4145.153275,9104.533087,4136.915689
590.914671,5921.647536,7994.224174,2451.505594
590.914992,3552.988522,7476.080014,-536.266849
590.915312,1628.453072,7994.224174,-229.828649
590.915633,3182.885551,7328.038826,2298.286494
590.915953,5255.462188,7328.038826,1149.143247
590.916274,1332.370696,5033.400406,-1072.533697
590.916594,3478.967927,5329.482782,76.609550
590.916915,7402.059420,9548.656652,1915.238745
590.917235,5773.606348,10288.862594,1225.752797
590.917556,3034.844362,8512.368333,-229.828649
590.917876,7328.038826,8290.306550,-2221.676944
590.918197,5699.585753,8438.347739,0.000000
590.918517,4589.276840,7402.059420,3064.381992
590.918838,7698.141797,7402.059420,689.485948
590.919159,6809.894666,7624.121203,-4519.963438
590.919479,2294.638420,6957.935855,-5132.839837
590.919800,2960.823768,5625.565159,-1225.752797
590.920120,7328.038826,7402.059420,995.924147
590.920441,7105.977043,7402.059420,536.266849
590.920761,6439.791695,8364.327145,-2757.943793
590.921082,5477.523971,8216.285956,-4673.182538
590.921402,3997.112087,8660.409521,-1685.410096
590.921723,6143.709319,8734.430116,1838.629195
590.922043,7328.038826,8438.347739,-536.266849
590.922364,4885.359217,7179.997637,-3907.087040
590.922684,4811.338623,9030.512492,-2068.457845
590.923005,3775.050304,8882.471304,153.219100
590.923325,4441.235652,8956.491898,459.657299
590.923646,5107.421000,10510.924376,-995.924147
590.923967,5551.544565,11029.068536,-2374.896044
590.924287,4811.338623,10732.986159,306.438199
590.924608,4441.235652,9548.656652,2911.162892
590.924928,2738.761985,6365.771101,229.828649
590.925249,4367.215058,6587.832884,-153.219100
590.925569,5477.523971,8290.306550,612.876398
590.925890,5107.421000,10510.924376,-1685.410096
590.926210,6069.688724,10362.883188,-2681.334243
590.926531,5625.565159,9252.574275,-1685.410096
590.926851,6587.832884,9252.574275,1762.019645
590.927172,7328.038826,10066.800811,5286.058936
590.927492,5477.523971,10140.821405,1608.800546
590.927813,5033.400406,9844.739029,-2987.772442
590.928133,5255.462188,8290.306550,-2221.676944
590.928454,4293.194464,7105.977043,1455.581446
590.928775,5107.421000,6439.791695,4060.306139
590.929095,4811.338623,6143.709319,1838.629195
590.929416,4145.153275,6069.688724,-3217.601092
590.929736,3256.906145,6365.771101,-3753.867940
590.930057,4293.194464,9326.594869,306.438199
590.930377,4885.359217,9178.553681,3677.258390
590.930698,5255.462188,8142.265362,2451.505594
590.931018,6735.874072,7994.224174,-153.219100
590.931339,4737.318029,6069.688724,-1915.238745
590.931659,3552.988522,6217.729913,-919.314598
590.931980,5699.585753,7550.100608,536.266849
590.932300,4441.235652,8142.265362,-153.219100
590.932621,6809.894666,7624.121203,-1378.971896
590.932941,6809.894666,7328.038826,-689.485948
590.933262,3034.844362,5403.503377,2068.457845
590.933583,1702.473667,3108.864956,3140.991542
590.933903,4737.318029,3775.050304,1455.581446
590.934224,3330.926739,5181.441594,-1915.238745
590.934544,5477.523971,8808.450710,-2374.896044
590.934865,6143.709319,9918.759623,-1608.800546
590.935185,4367.215058,7031.956449,-306.438199
590.935506,4885.359217,5773.606348,2451.505594
590.935826,6217.729913,8142.265362,1685.410096
590.936147,3108.864956,9104.533087,-1838.629195
590.936467,2072.576638,9548.656652,-2298.286494
590.936788,4663.297435,9622.677246,-995.924147
590.937108,3330.926739,8068.244768,689.485948
590.937429,2368.659014,6439.791695,2451.505594
590.937749,4441.235652,7994.224174,153.219100
590.938070,3256.906145,7624.121203,-3677.258390
590.938391,1924.535449,7550.100608,-2987.772442
590.938711,5107.421000,7624.121203,0.000000
590.939032,6069.688724,8808.450710,995.924147
590.939352,7031.956449,11843.295072,536.266849
590.939673,7550.100608,12657.521608,-689.485948
590.939993,6957.935855,11251.130318,-3140.991542
590.940314,6069.688724,9696.697840,-1455.581446
590.940634,5995.668130,9178.553681,2145.067394
590.940955,4145.153275,6291.750507,2145.067394
590.941275,6883.915261,7254.018232,306.438199
590.941596,6661.853478,9918.759623,-2451.505594
590.941916,3997.112087,9622.677246,-3524.039291
590.942237,4515.256246,7105.977043,-766.095498
590.942557,6957.935855,6143.709319,842.705048
590.942878,6809.894666,7772.162391,1608.800546
590.943199,7920.203579,10658.965565,229.828649
590.943519,6143.709319,11843.295072,-3600.648841
590.943840,4145.153275,8808.450710,-3217.601092
590.944160,6217.729913,7920.203579,1149.143247
590.944481,9030.512492,8660.409521,2451.505594
590.944801,6143.709319,8364.327145,-689.485948
590.945122,2960.823768,8068.244768,-3294.210641
590.945442,4589.276840,8956.491898,-3447.429741
590.945763,3923.091493,8364.327145,-1072.533697
590.946083,2516.700203,5181.441594,1072.533697
590.946404,5773.606348,6661.853478,153.219100
590.946724,6069.688724,9104.533087,-842.705048
590.947045,1998.556043,9474.636058,-1072.533697
590.947365,2294.638420,6661.853478,-1608.800546
590.947686,5033.400406,6365.771101,-1762.019645
590.948006,5551.544565,9104.533087,536.266849
590.948327,5477.523971,10214.842000,2451.505594
590.948648,5403.503377,7994.224174,0.000000
590.948968,4663.297435,6661.853478,-1455.581446
590.949289,2738.761985,5551.544565,1072.533697
590.949609,3775.050304,4293.194464,2068.457845
590.949930,3997.112087,4515.256246,-229.828649
590.950250,6883.915261,9178.553681,-1532.190996
590.950571,5625.565159,10140.821405,-2451.505594
590.950891,4737.318029,5995.668130,-2145.067394
590.951212,4219.173869,4737.318029,919.314598
590.951532,7105.977043,7846.182985,4673.182538
590.951853,5477.523971,8364.327145,1455.581446
590.952173,6143.709319,8438.347739,-4443.353888
590.952494,4885.359217,7031.956449,-4366.744339
590.952814,5403.503377,6513.812290,1149.143247
590.953135,8290.306550,8290.306550,4673.182538
590.953456,5699.585753,8734.430116,229.828649
590.953776,3182.885551,8438.347739,-5286.058936
590.954097,6217.729913,10214.842000,-3217.601092
590.954417,6217.729913,10140.821405,2374.896044
590.954738,3108.864956,5921.647536,4903.011187
590.955058,5255.462188,5403.503377,3447.429741
590.955379,5181.441594,8364.327145,-1608.800546
590.955699,1036.288319,8808.450710,-3064.381992
590.956020,2072.576638,7920.203579,-306.438199
590.956340,7624.121203,7402.059420,76.609550
590.956661,4737.318029,7698.141797,76.609550
590.956981,4737.318029,10807.006753,1149.143247
590.957302,4885.359217,11843.295072,-612.876398
590.957622,4071.132681,10732.986159,-459.657299
590.957943,3552.988522,8808.450710,919.314598
590.958264,5255.462188,6661.853478,0.000000
590.958584,3404.947333,5773.606348,-995.924147
590.958905,5107.421000,8882.471304,536.266849
590.959225,4885.359217,9030.512492,-919.314598
590.959546,3256.906145,7031.956449,-3447.429741
590.959866,2812.782580,6069.688724,-1762.019645
590.960187,5551.544565,8512.368333,536.266849
590.960507,5699.585753,10140.821405,1532.190996
590.960828,4219.173869,10288.862594,-1685.410096
590.961148,4737.318029,9918.759623,-5592.497135
590.961469,5329.482782,9474.636058,-2298.286494
590.961789,6291.750507,9844.739029,3753.867940
590.962110,6439.791695,8438.347739,3447.429741
590.962430,5477.523971,8586.388927,-2298.286494
590.962751,3849.070898,8512.368333,-3600.648841
590.963071,3256.906145,6883.915261,-229.828649
590.963392,4959.379811,5477.523971,3830.477490
590.963712,7846.182985,7328.038826,4290.134789
590.964033,5995.668130,7994.224174,-229.828649
590.964353,4145.153275,7328.038826,-4060.306139
590.964674,5329.482782,8734.430116,-1762.019645
590.964994,6365.771101,9326.594869,3140.991542
590.965315,5477.523971,6661.853478,2528.115143
590.965635,7476.080014,5625.565159,-459.657299
590.965955,6735.874072,8068.244768,-2068.457845
590.966276,4737.318029,10362.883188,-1378.971896
590.966596,4219.173869,8660.409521,-995.924147
590.966917,6957.935855,8068.244768,-919.314598
590.967237,6439.791695,7846.182985,842.705048
590.967558,6069.688724,8068.244768,1915.238745
590.967878,4367.215058,7179.997637,76.609550
590.968199,3775.050304,7031.956449,-1455.581446
590.968519,2072.576638,7624.121203,612.876398
590.968840,5551.544565,7402.059420,2298.286494
590.969160,5995.668130,8068.244768,2374.896044
590.969481,4367.215058,9030.512492,842.705048
590.969801,1924.535449,8512.368333,-1225.752797
590.970121,1628.453072,5477.523971,-1149.143247
590.970442,2960.823768,6809.894666,2374.896044
590.970762,4737.318029,7772.162391,3677.258390
590.971083,4145.153275,8882.471304,-1378.971896
590.971403,4663.297435,11251.130318,-3983.696590
590.971724,2812.782580,10362.883188,-536.266849
590.972044,3182.885551,7772.162391,4596.572988
590.972365,7846.182985,6957.935855,4749.792088
590.972685,6587.832884,7402.059420,459.657299
590.973006,1850.514855,6735.874072,-3140.991542
590.973326,2960.823768,6735.874072,-1302.362347
590.973647,5329.482782,7994.224174,2911.162892
590.973967,5403.503377,5847.626942,3983.696590
590.974287,5921.647536,3627.009116,0.000000
590.974608,7179.997637,6217.729913,-5515.887586
590.974928,4441.235652,9400.615463,-3600.648841
590.975249,4145.153275,9326.594869,1685.410096
590.975569,8734.430116,7105.977043,1225.752797
590.975890,7031.956449,5921.647536,-2757.943793
590.976210,5255.462188,8216.285956,-2987.772442
590.976531,5625.565159,10066.800811,-2068.457845
590.976851,5403.503377,10436.903782,-3140.991542
590.977172,4071.132681,9252.574275,-1225.752797
590.977492,5181.441594,7179.997637,306.438199
590.977812,7698.141797,7402.059420,383.047749
590.978133,5181.441594,8808.450710,1991.848295
590.978453,1628.453072,7550.100608,229.828649
590.978774,4737.318029,7179.997637,-1991.848295
590.979094,6883.915261,9622.677246,766.095498
590.979415,5107.421000,9770.718434,3600.648841
590.979735,7772.162391,9104.533087,1532.190996
590.980056,7031.956449,10436.903782,-919.314598
590.980376,666.185348,8216.285956,-1072.533697
590.980697,1998.556043,7179.997637,766.095498
590.981017,7698.141797,8734.430116,1378.971896
590.981338,5847.626942,11029.068536,612.876398
590.981658,4071.132681,10955.047942,-2221.676944
590.981978,5181.441594,10584.944971,-2834.553343
590.982299,3849.070898,8734.430116,-383.047749
590.982619,3478.967927,7105.977043,3140.991542
590.982940,7994.224174,7772.162391,766.095498
590.983260,5847.626942,7624.121203,-3907.087040
590.983581,3552.988522,8438.347739,-2911.162892
590.983901,6809.894666,9992.780217,1608.800546
590.984222,7105.977043,9104.533087,2145.067394
590.984542,4145.153275,7846.182985,1915.238745
590.984863,5773.606348,7105.977043,-612.876398
590.985183,5403.503377,6661.853478,-3217.601092
590.985504,2738.761985,5551.544565,0.000000
590.985824,3627.009116,4589.276840,2298.286494
590.986144,5921.647536,4737.318029,-306.438199
590.986465,7105.977043,8216.285956,-2451.505594
590.986785,4589.276840,11769.274478,-2451.505594
590.987106,4737.318029,11917.315666,-2298.286494
590.987426,6957.935855,9696.697840,229.828649
590.987747,4737.318029,5181.441594,2528.115143
590.988067,3552.988522,2738.761985,2145.067394
590.988388,6883.915261,6735.874072,2145.067394
590.988708,4145.153275,9252.574275,1149.143247
590.989029,0.000000,6883.915261,-1838.629195
590.989349,4885.359217,6883.915261,-1685.410096
590.989670,7031.956449,8438.347739,1455.581446
590.989990,2960.823768,5181.441594,3600.648841
590.990310,4663.297435,3627.009116,1302.362347
590.990631,5625.565159,7031.956449,-3677.258390
590.990951,1850.514855,9474.636058,-3524.039291
590.991272,4737.318029,10436.903782,766.095498
590.991592,9178.553681,11843.295072,1302.362347
590.991913,7105.977043,12435.459826,1762.019645
590.992233,5255.462188,11251.130318,1608.800546
590.992554,2960.823768,5033.400406,-995.924147
590.992874,222.061783,2368.659014,-766.095498
590.993195,4589.276840,6069.688724,3140.991542
590.993515,6365.771101,8068.244768,536.266849
590.993836,3108.864956,6143.709319,-4443.353888
590.994156,3552.988522,8216.285956,-3524.039291
590.994476,7105.977043,12287.418637,2145.067394
590.994797,4367.215058,9844.739029,4826.401637
590.995117,5107.421000,7254.018232,1455.581446
590.995438,7846.182985,9992.780217,-2834.553343
590.995758,5995.668130,11843.295072,-1762.019645
590.996079,2886.803174,8438.347739,2298.286494
590.996399,4811.338623,6587.832884,2068.457845
590.996720,6069.688724,8512.368333,1532.190996
590.997040,5403.503377,10066.800811,766.095498
590.997361,5255.462188,10140.821405,-2911.162892
590.997681,4071.132681,8438.347739,-2604.724693
590.998002,4589.276840,6587.832884,3370.820191
590.998322,6883.915261,6069.688724,5209.449386
590.998642,6217.729913,6809.894666,1455.581446
590.998963,3330.926739,8290.306550,-1225.752797
590.999283,5773.606348,9326.594869,-2604.724693
590.999604,6661.853478,8512.368333,-2987.772442
590.999924,5255.462188,7254.018232,459.657299
591.000245,7105.977043,8142.265362,2451.505594
591.000565,7772.162391,9030.512492,153.219100
591.000886,4441.235652,7920.203579,-1762.019645
591.001206,4737.318029,7550.100608,-1991.848295
591.001527,5699.585753,7476.080014,-1762.019645
591.001847,3552.988522,5773.606348,689.485948
591.002168,5773.606348,7254.018232,1685.410096
591.002488,7402.059420,8290.306550,-842.705048
591.002808,2368.659014,6069.688724,-2145.067394
591.003129,1036.288319,3034.844362,-919.314598
591.003449,6143.709319,4219.173869,919.314598
591.003770,4589.276840,7624.121203,612.876398
591.004090,3256.906145,7772.162391,-2374.896044
591.004411,6291.750507,7772.162391,-6281.983084
591.004731,6957.935855,10288.862594,-3294.210641
591.005052,5403.503377,10955.047942,3294.210641
591.005372,4959.379811,8512.368333,1991.848295
591.005693,6217.729913,6291.750507,-2911.162892
591.006013,3182.885551,7105.977043,-2451.505594
591.006333,3923.091493,7624.121203,-612.876398
591.006654,5847.626942,7994.224174,1072.533697
591.006974,3701.029710,7550.100608,1608.800546
591.007295,4737.318029,10584.944971,-153.219100
591.007615,7254.018232,12953.603985,-1608.800546
591.007936,1110.308913,8586.388927,-1762.019645
591.008256,1184.329507,5995.668130,1149.143247
591.008577,6365.771101,7698.141797,3064.381992
591.008897,3552.988522,9252.574275,459.657299
591.009218,2294.638420,9622.677246,-2681.334243
591.009538,6069.688724,12953.603985,-4136.915689
591.009859,6661.853478,14878.139434,76.609550
591.010179,3997.112087,11251.130318,4290.134789
591.010499,2960.823768,5921.647536,1455.581446
591.010820,5255.462188,6883.915261,-1838.629195
591.011140,4811.338623,10732.986159,842.705048
591.011461,4367.215058,10881.027347,536.266849
591.011781,4293.194464,6883.915261,-1532.190996
591.012102,5847.626942,6809.894666,383.047749
591.012422,7550.100608,9696.697840,2681.334243
591.012743,4589.276840,8142.265362,1991.848295
591.013063,5847.626942,7105.977043,-995.924147
591.013384,6439.791695,6217.729913,-1991.848295
591.013704,5773.606348,4885.359217,-76.609550
591.014025,6957.935855,4885.359217,842.705048
591.014345,8364.327145,7179.997637,153.219100
591.014665,6439.791695,8216.285956,-2221.676944
591.014986,5255.462188,7698.141797,-3600.648841
591.015306,7402.059420,7550.100608,-2068.457845
591.015627,7179.997637,7624.121203,1762.019645
591.015947,8142.265362,8734.430116,1991.848295
591.016268,6587.832884,8956.491898,-919.314598
591.016588,2220.617826,6217.729913,-2757.943793
591.016909,1036.288319,2664.741391,0.000000
591.017229,4811.338623,2368.659014,3294.210641
591.017550,2812.782580,2960.823768,1532.190996
591.017870,3108.864956,6513.812290,-1532.190996
591.018191,4885.359217,9622.677246,-3677.258390
591.018511,3034.844362,10140.821405,-3370.820191
591.018831,4515.256246,10288.862594,1838.629195
591.019152,6513.812290,8734.430116,3294.210641
591.019472,4663.297435,6735.874072,-153.219100
591.019793,3256.906145,7624.121203,-1915.238745
591.020113,4885.359217,10436.903782,-1685.410096
591.020434,3404.947333,9400.615463,-1072.533697
591.020754,4367.215058,7772.162391,1302.362347
591.021075,5625.565159,7624.121203,612.876398
591.021395,4737.318029,7254.018232,-1762.019645
591.021716,3997.112087,6957.935855,-689.485948
591.022036,4515.256246,8364.327145,-995.924147
591.022357,4219.173869,7402.059420,-383.047749
591.022677,3849.070898,6439.791695,1762.019645
591.022997,7328.038826,9030.512492,1455.581446
591.023318,8216.285956,12287.418637,-536.266849
591.023638,4885.359217,13693.809927,-1072.533697
591.023959,5847.626942,12139.377449,-842.705048
591.024279,8364.327145,10436.903782,-306.438199
591.024600,6069.688724,8290.306550,2834.553343
591.024920,6809.894666,8808.450710,2911.162892
591.025241,4885.359217,7994.224174,-1149.143247
591.025561,2442.679609,7624.121203,-2145.067394
591.025882,2812.782580,6513.812290,306.438199
591.026202,6217.729913,6217.729913,-306.438199
591.026523,7698.141797,6809.894666,-306.438199
591.026843,6513.812290,8512.368333,-612.876398
591.027163,4663.297435,9400.615463,-2374.896044
591.027484,5699.585753,9770.718434,-1455.581446
591.027804,5181.441594,6217.729913,459.657299
591.028125,4811.338623,3108.864956,536.266849
591.028445,8808.450710,6143.709319,-842.705048
591.028766,5033.400406,10288.862594,-3064.381992
591.029086,4219.173869,12583.501014,-5132.839837
591.029407,4367.215058,10658.965565,-3600.648841
591.029727,5773.606348,7031.956449,-766.095498
591.030048,4293.194464,3404.947333,2298.286494
591.030368,3478.967927,2590.720797,842.705048
591.030688,1406.391290,4441.235652,-2374.896044
591.031009,370.102971,6883.915261,-4519.963438
591.031329,2664.741391,7698.141797,-3217.601092
591.031650,8660.409521,10955.047942,-612.876398
591.031970,7698.141797,11547.212695,612.876398
591.032291,3182.885551,11547.212695,-459.657299
591.032611,1702.473667,10436.903782,-1608.800546
591.032932,3997.112087,8660.409521,1455.581446
591.033252,4663.297435,7550.100608,4136.915689
591.033573,7105.977043,8068.244768,2298.286494
591.033893,5107.421000,9252.574275,-2681.334243
591.034214,-444.123565,9326.594869,-3753.867940
591.034534,1480.411884,4293.194464,-306.438199
591.034854,7920.203579,3627.009116,3064.381992
591.035175,8586.388927,4737.318029,2987.772442
591.035495,5477.523971,8586.388927,-1838.629195
591.035816,6291.750507,13323.706956,-6052.154434
591.036136,7328.038826,12731.542202,-1302.362347
591.036457,9474.636058,10807.006753,5822.325785
591.036777,10584.944971,6809.894666,4979.620737
591.037098,7772.162391,7031.956449,-1455.581446
591.037418,3478.967927,9030.512492,-3983.696590
591.037739,3997.112087,9992.780217,-3064.381992
591.038059,4515.256246,7328.038826,-383.047749
591.038380,5181.441594,3627.009116,1915.238745
591.038700,6587.832884,6513.812290,2451.505594
591.039020,4589.276840,10066.800811,-153.219100
591.039341,1702.473667,12361.439231,-2451.505594
591.039661,3182.885551,10955.047942,-1685.410096
591.039982,5033.400406,6365.771101,1072.533697
591.040302,6365.771101,4737.318029,3064.381992
591.040623,4737.318029,7920.203579,2374.896044
591.040943,1406.391290,11029.068536,-153.219100
591.041264,518.144159,8586.388927,-2681.334243
591.041584,3775.050304,6587.832884,-1225.752797
591.041905,4219.173869,5847.626942,1378.971896
591.042225,4737.318029,7105.977043,2374.896044
591.042546,3108.864956,6809.894666,0.000000
591.042866,1702.473667,6957.935855,-2911.162892
591.043186,2442.679609,5551.544565,0.000000
591.043507,5995.668130,6069.688724,1455.581446
591.043827,7772.162391,8068.244768,-536.266849
591.044148,5773.606348,10881.027347,-2834.553343
591.044468,3849.070898,10658.965565,-3753.867940
591.044789,5921.647536,7772.162391,-689.485948
591.045109,6809.894666,5107.421000,4290.134789
591.045430,6365.771101,3997.112087,4136.915689
591.045750,4367.215058,5255.462188,-1685.410096
591.046071,2590.720797,7402.059420,-5592.497135
591.046391,4219.173869,9696.697840,-3600.648841
591.046712,9104.533087,10140.821405,1838.629195
591.047032,8660.409521,7920.203579,2145.067394
591.047352,6143.709319,7254.018232,-536.266849
591.047673,4737.318029,8290.306550,-2374.896044
591.047993,4219.173869,8882.471304,-2528.115143
591.048314,3923.091493,7698.141797,919.314598
591.048634,7031.956449,9104.533087,2145.067394
591.048955,7550.100608,10288.862594,0.000000
591.049275,5255.462188,11547.212695,-842.705048
591.049596,3404.947333,11695.253884,689.485948
591.049916,2368.659014,8660.409521,536.266849
591.050237,2738.761985,5403.503377,153.219100
591.050557,3627.009116,4959.379811,1072.533697
591.050878,4441.235652,7031.956449,612.876398
591.051198,4737.318029,9548.656652,0.000000
591.051518,3034.844362,12213.398043,-2221.676944
591.051839,1776.494261,10140.821405,-3370.820191
591.052159,1924.535449,6735.874072,-2145.067394
591.052480,6439.791695,6957.935855,-612.876398
591.052800,5773.606348,10436.903782,-1455.581446
591.053121,3627.009116,12213.398043,-3447.429741
591.053441,3404.947333,10140.821405,-4366.744339
591.053762,5329.482782,8216.285956,-1608.800546
591.054082,6513.812290,7550.100608,1762.019645
591.054403,6439.791695,6069.688724,-1072.533697
591.054723,3775.050304,4811.338623,-5669.106685
591.055043,3330.926739,5181.441594,-5209.449386
591.055364,6883.915261,5403.503377,0.000000
591.055684,7402.059420,2664.741391,919.314598
591.056005,5033.400406,1258.350101,-4136.915689
591.056325,6883.915261,7105.977043,-6358.592633
591.056646,5329.482782,10658.965565,-6205.373534
591.056966,5329.482782,7994.224174,-5745.716235
591.057287,8660.409521,7179.997637,-5362.668486
591.057607,9474.636058,8956.491898,-4519.963438
591.057928,5773.606348,9622.677246,-3064.381992
591.058248,4071.132681,9622.677246,-3677.258390
591.058569,2590.720797,9400.615463,-6281.983084
591.058889,2960.823768,9400.615463,-4596.572988
591.059209,2516.700203,7105.977043,-1455.581446
591.059530,1924.535449,5107.421000,-1838.629195
591.059850,1850.514855,6217.729913,-1455.581446
591.060171,2072.576638,6883.915261,-2298.286494
591.060491,1406.391290,4811.338623,-7737.564530
591.060812,2442.679609,4367.215058,-7737.564530
591.061132,5921.647536,9178.553681,-4979.620737
591.061453,8586.388927,12731.542202,-3677.258390
591.061773,7328.038826,13397.727550,-5439.278036
591.062093,8586.388927,13101.645173,-7201.297681
591.062414,8586.388927,10807.006753,-5745.716235
591.062734,6069.688724,9104.533087,-3064.381992
591.063055,3849.070898,7476.080014,-3524.039291
591.063375,5773.606348,7698.141797,-5669.106685
591.063695,3034.844362,6587.832884,-6205.373534
591.064016,2886.803174,6217.729913,-4979.620737
591.064336,3775.050304,6809.894666,-3217.601092
591.064657,3404.947333,7254.018232,-3524.039291
591.064977,2812.782580,6587.832884,-5132.839837
591.065298,4663.297435,8290.306550,-6281.983084
591.065618,6735.874072,13767.830521,-4443.353888
591.065939,6365.771101,14285.974681,-3447.429741
591.066259,7476.080014,12213.398043,-5745.716235
591.066579,8068.244768,10288.862594,-6511.811733
591.066900,5107.421000,8068.244768,-4213.525239
591.067220,5403.503377,6587.832884,-3447.429741
591.067541,6069.688724,6513.812290,-5515.887586
591.067861,3849.070898,5773.606348,-5362.668486
591.068182,6291.750507,5625.565159,-4903.011187
591.068502,8882.471304,6217.729913,-5592.497135
591.068823,6587.832884,5403.503377,-4903.011187
591.069143,7328.038826,6883.915261,-3447.429741
591.069463,7846.182985,7031.956449,-4596.572988
591.069784,5995.668130,5403.503377,-6052.154434
591.070104,5181.441594,5403.503377,-3907.087040
591.070425,7994.224174,8438.347739,-4366.744339
591.070745,6735.874072,9252.574275,-5898.935335
591.071066,3330.926739,9696.697840,-7277.907231
591.071386,4811.338623,11251.130318,-7431.126331
591.071707,4441.235652,11399.171507,-4443.353888
591.072027,-666.185348,5255.462188,-1762.019645
591.072347,814.226536,2738.761985,-4443.353888
591.072668,2442.679609,6809.894666,-4749.792088
591.072988,-296.082377,9474.636058,-1838.629195
591.073309,2072.576638,9474.636058,-3600.648841
591.073629,5403.503377,10436.903782,-5669.106685
591.073950,2664.741391,10510.924376,-4903.011187
591.074270,2516.700203,7698.141797,-2757.943793
591.074590,5995.668130,6217.729913,-2374.896044
591.074911,3256.906145,7328.038826,-3140.991542
591.075231,3256.906145,7846.182985,-3294.210641
591.075552,5699.585753,7254.018232,-5286.058936
591.075872,4515.256246,5551.544565,-6894.859482
591.076193,5995.668130,6439.791695,-2987.772442
591.076513,9178.553681,8882.471304,-3370.820191
591.076834,7328.038826,8068.244768,-9346.365076
591.077154,4515.256246,7031.956449,-9116.536426
591.077474,7920.203579,6735.874072,-4366.744339
591.077795,9400.615463,6439.791695,-2298.286494
591.078115,6957.935855,5551.544565,-2451.505594
591.078436,5403.503377,7920.203579,-6052.154434
591.078756,5551.544565,10436.903782,-9576.193725
591.079077,4367.215058,9474.636058,-7277.907231
591.079397,4663.297435,6217.729913,-3983.696590
591.079718,6143.709319,4959.379811,-4366.744339
591.080038,5329.482782,7105.977043,-5056.230287
591.080358,1776.494261,8068.244768,-6741.640382
591.080679,1998.556043,8512.368333,-8427.050478
591.080999,5255.462188,9030.512492,-5286.058936
591.081320,6957.935855,8882.471304,-3447.429741
591.081640,7624.121203,9104.533087,-4749.792088
591.081961,5551.544565,11769.274478,-6052.154434
591.082281,2738.761985,11843.295072,-6281.983084
591.082602,3552.988522,9104.533087,-3677.258390
591.082922,5625.565159,6439.791695,-1378.971896
591.083242,3182.885551,3997.112087,-2911.162892
591.083563,1332.370696,3775.050304,-6511.811733
591.083883,3034.844362,5625.565159,-9346.365076
591.084204,4145.153275,7772.162391,-9576.193725
591.084524,5625.565159,9400.615463,-7277.907231
591.084845,7254.018232,11177.109724,-5362.668486
591.085165,7698.141797,12287.418637,-5669.106685
591.085485,6661.853478,13397.727550,-5898.935335
591.085806,6439.791695,12509.480420,-6052.154434
591.086126,5699.585753,7920.203579,-7124.688131
591.086447,6513.812290,7105.977043,-6128.763984
591.086767,5551.544565,7624.121203,-6281.983084
591.087088,4145.153275,8364.327145,-6588.421283
591.087408,3404.947333,7254.018232,-6052.154434
591.087729,5033.400406,8660.409521,-5209.449386
591.088049,4367.215058,9178.553681,-2604.724693
591.088369,4515.256246,9696.697840,-2757.943793
591.088690,4811.338623,8142.265362,-4749.792088
591.089010,4441.235652,7550.100608,-5975.544884
591.089331,3775.050304,7476.080014,-4443.353888
591.089651,5329.482782,9104.533087,-5745.716235
591.089972,4367.215058,9400.615463,-7737.564530
591.090292,4219.173869,10140.821405,-7660.954980
591.090613,5847.626942,10881.027347,-5898.935335
591.090933,5255.462188,8882.471304,-3753.867940
591.091253,4663.297435,6661.853478,-2681.334243
591.091574,3701.029710,4737.318029,-3140.991542
591.091894,3775.050304,4071.132681,-4749.792088
591.092215,3552.988522,4293.194464,-6511.811733
591.092535,5329.482782,3923.091493,-6971.469032
591.092856,7698.141797,4737.318029,-7431.126331
591.093176,7550.100608,6661.853478,-6741.640382
591.093497,6957.935855,8290.306550,-6358.592633
591.093817,7031.956449,8290.306550,-7507.735880
591.094137,7031.956449,8216.285956,-7124.688131
591.094458,6661.853478,7031.956449,-5822.325785
591.094778,5477.523971,6809.894666,-5056.230287
591.095099,5255.462188,7328.038826,-6435.202183
591.095419,4515.256246,7624.121203,-6358.592633
591.095740,4589.276840,7698.141797,-6588.421283
591.096060,4219.173869,6809.894666,-6665.030833
591.096380,4071.132681,6291.750507,-5286.058936
591.096701,3330.926739,7402.059420,-3064.381992
591.097021,4071.132681,9474.636058,-3370.820191
591.097342,2812.782580,9474.636058,-3830.477490
591.097662,2664.741391,7179.997637,-4903.011187
591.097983,4811.338623,9252.574275,-5132.839837
591.098303,5033.400406,11991.336260,-4366.744339
591.098624,3701.029710,12065.356855,-5209.449386
591.098944,4589.276840,11325.150913,-6052.154434
591.099264,5033.400406,9918.759623,-5669.106685
591.099585,4071.132681,8660.409521,-3677.258390
591.099905,5477.523971,8142.265362,-2911.162892
591.100226,5181.441594,8660.409521,-3983.696590
591.100546,3552.988522,8734.430116,-5439.278036
591.100867,5403.503377,8290.306550,-5056.230287
591.101187,7550.100608,7402.059420,-5515.887586
591.101508,7328.038826,8068.244768,-4903.011187
591.101828,7179.997637,8882.471304,-3983.696590
591.102148,6365.771101,7624.121203,-6741.640382
591.102469,5847.626942,5921.647536,-7737.564530
591.102789,7624.121203,7476.080014,-5898.935335
591.103110,7179.997637,10140.821405,-4673.182538
591.103430,5699.585753,10584.944971,-4366.744339
591.103751,4441.235652,8808.450710,-5132.839837
591.104071,5107.421000,7105.977043,-6358.592633
591.104392,5033.400406,6069.688724,-5822.325785
591.104712,4293.194464,7105.977043,-4979.620737
591.105032,3034.844362,8142.265362,-6281.983084
591.105353,1480.411884,8142.265362,-6971.469032
591.105673,2220.617826,6291.750507,-6358.592633
591.105994,4589.276840,6291.750507,-4673.182538
591.106314,4293.194464,8216.285956,-2451.505594
591.106635,2812.782580,9770.718434,-4366.744339
591.106955,2960.823768,10140.821405,-7967.393179
591.107275,4071.132681,8882.471304,-7660.954980
591.107596,5403.503377,8068.244768,-4136.915689
591.107916,6069.688724,7328.038826,-1991.848295
