#time,accel_x,accel_y,accel_z
206.387514,4959.379811,7920.203579,-229.828649
206.387834,4959.379811,7846.182985,-229.828649
206.388155,5033.400406,8142.265362,-306.438199
206.388476,5033.400406,8068.244768,0.000000
206.388797,4885.359217,7772.162391,-306.438199
206.389117,5033.400406,7920.203579,0.000000
206.389438,4885.359217,8068.244768,-229.828649
206.389759,4811.338623,7846.182985,0.000000
206.390080,4959.379811,7920.203579,-153.219100
206.390400,4959.379811,7994.224174,76.609550
206.390721,5181.441594,7698.141797,-229.828649
206.391042,4885.359217,8068.244768,0.000000
206.391362,5033.400406,8142.265362,0.000000
206.391683,4811.338623,8660.409521,-459.657299
206.392004,4885.359217,8216.285956,0.000000
206.392325,4885.359217,8068.244768,-153.219100
206.392645,5033.400406,8216.285956,-153.219100
206.392966,4959.379811,8142.265362,-153.219100
206.393287,4885.359217,7920.203579,459.657299
206.393608,4811.338623,8216.285956,0.000000
206.393928,4959.379811,8142.265362,0.000000
206.394249,4885.359217,8142.265362,-153.219100
206.394570,4959.379811,8216.285956,-229.828649
206.394890,5033.400406,8290.306550,0.000000
206.395211,5033.400406,8216.285956,-153.219100
206.395532,5181.441594,8216.285956,-459.657299
206.395853,5033.400406,7994.224174,0.000000
206.396173,5033.400406,8364.327145,306.438199
206.396494,5033.400406,8216.285956,76.609550
206.396815,5033.400406,8068.244768,0.000000
206.397136,4885.359217,8216.285956,-536.266849
206.397456,5181.441594,8068.244768,-153.219100
206.397777,5033.400406,7920.203579,0.000000
206.398098,4959.379811,8068.244768,0.000000
206.398418,4959.379811,7994.224174,-229.828649
206.398739,4811.338623,8142.265362,0.000000
206.399060,4885.359217,8142.265362,0.000000
206.399381,5033.400406,8068.244768,0.000000
206.399701,5255.462188,8216.285956,-306.438199
206.400022,4811.338623,7994.224174,-383.047749
206.400343,4959.379811,7772.162391,0.000000
206.400664,4885.359217,8068.244768,-383.047749
206.400984,4663.297435,7772.162391,-766.095498
206.401305,4145.153275,7402.059420,0.000000
206.401626,4367.215058,7920.203579,76.609550
206.401946,4515.256246,9104.533087,-459.657299
206.402267,4737.318029,9474.636058,-995.924147
206.402588,4737.318029,9548.656652,-1149.143247
206.402909,4737.318029,9918.759623,0.000000
206.403229,4441.235652,9622.677246,-76.609550
206.403550,3330.926739,8734.430116,612.876398
206.403871,3108.864956,7254.018232,459.657299
206.404191,2886.803174,7105.977043,383.047749
206.404512,3330.926739,8142.265362,459.657299
206.404833,3552.988522,8290.306550,0.000000
206.405154,3997.112087,7994.224174,-919.314598
206.405474,4219.173869,8216.285956,-383.047749
206.405795,4515.256246,8882.471304,383.047749
206.406116,3997.112087,9400.615463,76.609550
206.406437,3552.988522,9622.677246,-1149.143247
206.406757,3256.906145,9178.553681,-1455.581446
206.407078,3849.070898,10066.800811,-766.095498
206.407399,3552.988522,11029.068536,-459.657299
206.407719,1924.535449,10066.800811,-995.924147
206.408040,2220.617826,9918.759623,-766.095498
206.408361,1850.514855,10288.862594,-306.438199
206.408682,296.082377,10288.862594,-76.609550
206.409002,222.061783,10584.944971,-229.828649
206.409323,962.267725,9474.636058,-153.219100
206.409644,1184.329507,10436.903782,1149.143247
206.409965,666.185348,10510.924376,2528.115143
206.410285,1110.308913,10510.924376,1302.362347
206.410606,1036.288319,10732.986159,-383.047749
206.410927,740.205942,11695.253884,-229.828649
206.411247,296.082377,10362.883188,-229.828649
206.411568,1184.329507,9400.615463,-383.047749
206.411889,2516.700203,9252.574275,0.000000
206.412210,1702.473667,9696.697840,76.609550
206.412530,1184.329507,9992.780217,0.000000
206.412851,2072.576638,10362.883188,-1225.752797
206.413172,2664.741391,10436.903782,-689.485948
206.413493,3997.112087,10436.903782,153.219100
206.413813,4737.318029,9992.780217,766.095498
206.414134,4071.132681,9400.615463,229.828649
206.414455,3552.988522,8882.471304,-306.438199
206.414775,3849.070898,7772.162391,-536.266849
206.415096,3997.112087,6661.853478,-919.314598
206.415417,4367.215058,6513.812290,-306.438199
206.415738,4811.338623,7179.997637,459.657299
206.416058,5477.523971,7476.080014,229.828649
206.416379,5773.606348,7179.997637,-76.609550
206.416700,5921.647536,6957.935855,-459.657299
206.417021,6439.791695,6587.832884,-536.266849
206.417341,6809.894666,7031.956449,-995.924147
206.417662,6883.915261,7105.977043,-1149.143247
206.417983,7105.977043,7772.162391,-995.924147
206.418303,7476.080014,7402.059420,-536.266849
206.418624,6513.812290,7772.162391,-229.828649
206.418945,5847.626942,7920.203579,-842.705048
206.419266,5995.668130,7550.100608,-995.924147
206.419586,5625.565159,7550.100608,-1072.533697
206.419907,5181.441594,7254.018232,-229.828649
206.420228,5181.441594,7402.059420,306.438199
206.420549,4737.318029,7031.956449,536.266849
206.420869,5255.462188,7402.059420,536.266849
206.421190,4811.338623,7994.224174,1072.533697
206.421511,4811.338623,7920.203579,536.266849
206.421831,4737.318029,7920.203579,459.657299
206.422152,4959.379811,8216.285956,459.657299
206.422473,5329.482782,8216.285956,842.705048
206.422794,5107.421000,8142.265362,-459.657299
206.423114,4959.379811,7698.141797,-1149.143247
206.423435,4959.379811,7772.162391,-995.924147
206.423756,5107.421000,8068.244768,-766.095498
206.424077,4885.359217,8586.388927,-306.438199
206.424397,5181.441594,8882.471304,-689.485948
206.424718,5329.482782,9474.636058,-995.924147
206.425039,5181.441594,9548.656652,-766.095498
206.425359,4885.359217,9844.739029,-1149.143247
206.425680,4441.235652,9696.697840,-612.876398
206.426001,3849.070898,9474.636058,0.000000
206.426322,3701.029710,9400.615463,306.438199
206.426642,3108.864956,9030.512492,153.219100
206.426963,2886.803174,8808.450710,76.609550
206.427284,3256.906145,9178.553681,459.657299
206.427605,2738.761985,8438.347739,919.314598
206.427925,2738.761985,8142.265362,766.095498
206.428246,3627.009116,7920.203579,1072.533697
206.428567,4071.132681,7550.100608,842.705048
206.428887,4441.235652,7476.080014,229.828649
206.429208,5107.421000,8068.244768,0.000000
206.429529,5329.482782,7846.182985,-995.924147
206.429850,5847.626942,8142.265362,-1302.362347
206.430170,6513.812290,8290.306550,-1149.143247
206.430491,6513.812290,8882.471304,-1378.971896
206.430812,6069.688724,8586.388927,-612.876398
206.431133,5699.585753,8734.430116,-919.314598
206.431453,5403.503377,7846.182985,-766.095498
206.431774,5403.503377,7476.080014,-383.047749
206.432095,4737.318029,7920.203579,-612.876398
206.432415,4589.276840,7254.018232,0.000000
206.432736,4441.235652,7402.059420,0.000000
206.433057,4589.276840,7550.100608,306.438199
206.433378,4441.235652,7624.121203,536.266849
206.433698,4589.276840,7772.162391,536.266849
206.434019,4663.297435,7772.162391,459.657299
206.434340,4441.235652,7772.162391,306.438199
206.434661,4737.318029,7402.059420,383.047749
206.434981,5255.462188,7179.997637,229.828649
206.435302,5625.565159,7105.977043,-306.438199
206.435623,5477.523971,7698.141797,-689.485948
206.435943,5477.523971,7994.224174,-842.705048
206.436264,5921.647536,8142.265362,-766.095498
206.436585,6143.709319,8290.306550,-612.876398
206.436906,6217.729913,8438.347739,-383.047749
206.437226,5773.606348,8660.409521,-536.266849
206.437547,5403.503377,8734.430116,-612.876398
206.437868,4885.359217,9030.512492,0.000000
206.438189,4589.276840,8734.430116,-229.828649
206.438509,4515.256246,8586.388927,0.000000
206.438830,3849.070898,8290.306550,-76.609550
206.439151,3775.050304,8142.265362,229.828649
206.439471,3478.967927,7698.141797,459.657299
206.439792,3552.988522,7402.059420,689.485948
206.440113,3775.050304,7328.038826,0.000000
206.440434,4219.173869,7402.059420,153.219100
206.440754,4589.276840,7550.100608,0.000000
206.441075,4885.359217,7994.224174,-612.876398
206.441396,5551.544565,7994.224174,-1149.143247
206.441717,5551.544565,8808.450710,-1225.752797
206.442037,6365.771101,8512.368333,-1455.581446
206.442358,5699.585753,9104.533087,-1378.971896
206.442679,5551.544565,9030.512492,-1302.362347
206.442999,5329.482782,8734.430116,-1225.752797
206.443320,5255.462188,8734.430116,-459.657299
206.443641,4959.379811,8882.471304,0.000000
206.443962,4737.318029,8512.368333,76.609550
206.444282,4145.153275,8438.347739,0.000000
206.444603,3923.091493,8068.244768,306.438199
206.444924,3923.091493,7994.224174,383.047749
206.445245,3849.070898,7624.121203,1149.143247
206.445565,3923.091493,7179.997637,1378.971896
206.445886,3997.112087,7476.080014,766.095498
206.446207,4293.194464,7920.203579,612.876398
206.446527,4663.297435,7846.182985,229.828649
206.446848,4737.318029,7994.224174,-76.609550
206.447169,5107.421000,8438.347739,-766.095498
206.447490,5551.544565,8512.368333,-842.705048
206.447810,5551.544565,8882.471304,-689.485948
206.448131,5921.647536,8956.491898,-766.095498
206.448452,5995.668130,8586.388927,-383.047749
206.448773,5847.626942,8586.388927,-306.438199
206.449093,5847.626942,8586.388927,-459.657299
206.449414,5773.606348,8438.347739,-536.266849
206.449735,5403.503377,8882.471304,0.000000
206.450056,4811.338623,8216.285956,229.828649
206.450377,4515.256246,7772.162391,229.828649
206.450698,4589.276840,7328.038826,766.095498
206.451019,4219.173869,6957.935855,1149.143247
206.451340,4219.173869,7105.977043,1532.190996
206.451661,4293.194464,6513.812290,842.705048
206.451982,4737.318029,6439.791695,1072.533697
206.452302,5033.400406,6735.874072,766.095498
206.452623,5477.523971,7105.977043,0.000000
206.452944,5847.626942,7179.997637,0.000000
206.453265,6143.709319,7402.059420,-995.924147
206.453586,6735.874072,7772.162391,-1608.800546
206.453907,6809.894666,7550.100608,-1149.143247
206.454228,6513.812290,8290.306550,-1378.971896
206.454549,6365.771101,8512.368333,-1302.362347
206.454870,5847.626942,8438.347739,-1225.752797
206.455191,5477.523971,8364.327145,-689.485948
206.455512,5181.441594,7994.224174,-306.438199
206.455833,4737.318029,7698.141797,-76.609550
206.456154,4293.194464,7772.162391,0.000000
206.456474,4145.153275,7476.080014,229.828649
206.456795,3627.009116,7402.059420,612.876398
206.457116,3627.009116,7476.080014,766.095498
206.457437,3478.967927,7402.059420,1072.533697
206.457758,3478.967927,7994.224174,536.266849
206.458079,3775.050304,8142.265362,76.609550
206.458400,4589.276840,8216.285956,0.000000
206.458721,4959.379811,8142.265362,-612.876398
206.459042,5329.482782,8290.306550,-995.924147
206.459363,5255.462188,8734.430116,-1072.533697
206.459684,5477.523971,8956.491898,-1225.752797
206.460005,5773.606348,9474.636058,-995.924147
206.460326,5625.565159,9548.656652,-766.095498
206.460646,5699.585753,9548.656652,-689.485948
206.460967,5625.565159,9548.656652,-766.095498
206.461288,5107.421000,9696.697840,0.000000
206.461609,4589.276840,9178.553681,0.000000
206.461930,4219.173869,8882.471304,229.828649
206.462251,4219.173869,8586.388927,76.609550
206.462572,3849.070898,8216.285956,459.657299
206.462893,3552.988522,7624.121203,536.266849
206.463214,3775.050304,7476.080014,842.705048
206.463535,3775.050304,7624.121203,919.314598
206.463856,4367.215058,7476.080014,536.266849
206.464177,4811.338623,7846.182985,306.438199
206.464498,5625.565159,7994.224174,-536.266849
206.464818,5995.668130,8216.285956,-612.876398
206.465139,6661.853478,7920.203579,-1149.143247
206.465460,7105.977043,7698.141797,-1225.752797
206.465781,6957.935855,8142.265362,-995.924147
206.466102,6587.832884,7846.182985,-1072.533697
206.466423,6809.894666,7772.162391,-995.924147
206.466744,6513.812290,7550.100608,-842.705048
206.467065,6439.791695,7105.977043,-229.828649
206.467386,6143.709319,7179.997637,-536.266849
206.467707,5625.565159,7328.038826,153.219100
206.468028,5255.462188,7254.018232,306.438199
206.468349,4885.359217,6957.935855,229.828649
206.468670,5107.421000,6809.894666,766.095498
206.468990,4811.338623,6143.709319,689.485948
206.469311,4515.256246,6735.874072,612.876398
206.469632,4737.318029,6957.935855,459.657299
206.469953,4885.359217,7179.997637,0.000000
206.470274,5329.482782,7402.059420,-383.047749
206.470595,5033.400406,7550.100608,-459.657299
206.470916,5033.400406,7846.182985,-1225.752797
206.471237,5181.441594,8142.265362,-919.314598
206.471558,5181.441594,8586.388927,-383.047749
206.471879,5107.421000,8438.347739,0.000000
206.472200,4885.359217,8956.491898,-306.438199
206.472521,4811.338623,9252.574275,-383.047749
206.472842,4663.297435,9400.615463,-306.438199
206.473162,4367.215058,9326.594869,153.219100
206.473483,4071.132681,9548.656652,459.657299
206.473804,3627.009116,8512.368333,459.657299
206.474125,4219.173869,7994.224174,995.924147
206.474446,3478.967927,7994.224174,1225.752797
206.474767,3256.906145,7846.182985,1149.143247
206.475088,3701.029710,7328.038826,766.095498
206.475409,3849.070898,7402.059420,1072.533697
206.475730,4663.297435,7402.059420,842.705048
206.476051,4959.379811,7624.121203,153.219100
206.476372,5625.565159,7846.182985,-612.876398
206.476693,5625.565159,8068.244768,-1685.410096
206.477014,6291.750507,7624.121203,-1455.581446
206.477334,7105.977043,7994.224174,-1455.581446
206.477655,6809.894666,8290.306550,-1149.143247
206.477976,6587.832884,8882.471304,-1149.143247
206.478297,6291.750507,8734.430116,-919.314598
206.478618,5995.668130,8660.409521,-919.314598
206.478939,5625.565159,8290.306550,-612.876398
206.479260,5403.503377,7920.203579,-306.438199
206.479581,4885.359217,7772.162391,0.000000
206.479902,4441.235652,7698.141797,383.047749
206.480223,4441.235652,7179.997637,306.438199
206.480544,4219.173869,7254.018232,536.266849
206.480865,4219.173869,7698.141797,766.095498
206.481186,4737.318029,7254.018232,1225.752797
206.481506,4367.215058,7920.203579,383.047749
206.481827,4737.318029,7624.121203,0.000000
206.482148,4959.379811,7846.182985,-536.266849
206.482469,5329.482782,7698.141797,-766.095498
206.482790,5403.503377,8142.265362,-766.095498
206.483111,5699.585753,8364.327145,-995.924147
206.483432,5921.647536,8290.306550,-536.266849
206.483753,5995.668130,8734.430116,-919.314598
206.484074,5995.668130,8660.409521,-612.876398
206.484395,5551.544565,8808.450710,-612.876398
206.484716,5625.565159,8882.471304,-689.485948
206.485037,5625.565159,8586.388927,-612.876398
206.485358,5107.421000,8512.368333,-459.657299
206.485678,4885.359217,8216.285956,0.000000
206.485999,4737.318029,8068.244768,-76.609550
206.486320,4145.153275,7698.141797,306.438199
206.486641,3923.091493,7550.100608,919.314598
206.486962,4293.194464,7402.059420,536.266849
206.487283,4589.276840,7179.997637,689.485948
206.487604,4737.318029,7105.977043,536.266849
206.487925,5181.441594,7550.100608,0.000000
206.488246,5181.441594,7920.203579,-459.657299
206.488567,5773.606348,8068.244768,-995.924147
206.488888,6143.709319,8364.327145,-1149.143247
206.489209,6661.853478,8216.285956,-1072.533697
206.489530,6143.709319,8290.306550,-842.705048
206.489850,5921.647536,8364.327145,-766.095498
206.490171,5921.647536,8216.285956,-459.657299
206.490492,5403.503377,8290.306550,0.000000
206.490813,4885.359217,8438.347739,-153.219100
206.491134,4737.318029,7994.224174,0.000000
206.491455,4663.297435,7772.162391,383.047749
206.491776,4219.173869,7550.100608,459.657299
206.492097,4145.153275,7254.018232,842.705048
206.492418,3923.091493,7254.018232,689.485948
206.492739,3478.967927,7328.038826,995.924147
206.493060,4071.132681,7476.080014,689.485948
206.493381,4145.153275,7994.224174,383.047749
206.493702,4367.215058,7994.224174,0.000000
206.494022,4589.276840,7846.182985,-459.657299
206.494343,4737.318029,8068.244768,-612.876398
206.494664,4885.359217,8216.285956,-919.314598
206.494985,4885.359217,8364.327145,-536.266849
206.495306,5107.421000,8882.471304,-536.266849
206.495627,5551.544565,8882.471304,-842.705048
206.495948,5255.462188,8956.491898,-536.266849
206.496269,5107.421000,9400.615463,-612.876398
206.496590,4885.359217,9252.574275,-612.876398
206.496911,4737.318029,9030.512492,-153.219100
206.497232,4367.215058,8586.388927,76.609550
206.497553,4071.132681,8216.285956,306.438199
206.497874,3923.091493,7846.182985,689.485948
206.498194,4145.153275,7920.203579,919.314598
206.498515,3849.070898,7179.997637,1225.752797
206.498836,4145.153275,7328.038826,1072.533697
206.499157,4737.318029,7550.100608,689.485948
206.499478,5181.441594,7105.977043,0.000000
206.499799,5551.544565,7254.018232,-229.828649
206.500120,5921.647536,7402.059420,-612.876398
206.500441,6661.853478,7624.121203,-919.314598
206.500762,6883.915261,7846.182985,-1302.362347
206.501083,7179.997637,8512.368333,-1532.190996
206.501404,6661.853478,8438.347739,-1378.971896
206.501725,6439.791695,8438.347739,-1455.581446
206.502045,5995.668130,8734.430116,-1455.581446
206.502366,5551.544565,8364.327145,-1149.143247
206.502687,5403.503377,8438.347739,-919.314598
206.503008,5107.421000,8068.244768,0.000000
206.503329,4737.318029,8068.244768,0.000000
206.503650,4663.297435,7476.080014,229.828649
206.503971,4145.153275,7328.038826,536.266849
206.504292,4293.194464,7179.997637,1149.143247
206.504613,4145.153275,7402.059420,1072.533697
206.504934,3849.070898,7846.182985,459.657299
206.505255,4293.194464,7920.203579,153.219100
206.505576,4663.297435,7846.182985,0.000000
206.505897,4885.359217,8216.285956,-689.485948
206.506217,4959.379811,8364.327145,-995.924147
206.506538,4663.297435,8512.368333,-1072.533697
206.506859,4959.379811,9104.533087,-995.924147
206.507180,4959.379811,9474.636058,-689.485948
206.507501,5403.503377,9770.718434,-995.924147
206.507822,4737.318029,9474.636058,-842.705048
206.508143,4737.318029,9326.594869,-306.438199
206.508464,4515.256246,9400.615463,-153.219100
206.508785,4367.215058,9030.512492,0.000000
206.509106,4071.132681,8734.430116,229.828649
206.509427,3552.988522,8290.306550,536.266849
206.509748,3404.947333,7994.224174,536.266849
206.510069,3182.885551,7550.100608,1072.533697
206.510389,3478.967927,7254.018232,1149.143247
206.510710,3923.091493,7402.059420,1149.143247
206.511031,4293.194464,7179.997637,459.657299
206.511352,4737.318029,7402.059420,153.219100
206.511673,5255.462188,7402.059420,-229.828649
206.511994,5921.647536,7698.141797,-612.876398
206.512315,6439.791695,8216.285956,-766.095498
206.512636,6661.853478,8512.368333,-1685.410096
206.512957,6365.771101,8734.430116,-1608.800546
206.513278,6143.709319,8660.409521,-1378.971896
206.513599,6143.709319,8734.430116,-1072.533697
206.513920,5625.565159,8586.388927,0.000000
206.514241,5477.523971,8068.244768,0.000000
206.514561,5181.441594,7920.203579,0.000000
206.514882,4515.256246,7846.182985,306.438199
206.515203,4219.173869,7476.080014,995.924147
206.515524,4441.235652,7402.059420,689.485948
206.515845,4367.215058,6883.915261,1149.143247
206.516166,4071.132681,7105.977043,1455.581446
206.516487,4293.194464,7328.038826,1685.410096
206.516808,4737.318029,7624.121203,842.705048
206.517129,4737.318029,7920.203579,76.609550
206.517450,5255.462188,7698.141797,-612.876398
206.517771,5625.565159,7772.162391,-612.876398
206.518092,5625.565159,7846.182985,-612.876398
206.518413,6217.729913,8068.244768,229.828649
206.518733,6587.832884,8438.347739,-306.438199
206.519054,5921.647536,8290.306550,-1532.190996
206.519375,5921.647536,9178.553681,-1532.190996
206.519696,5847.626942,9104.533087,-1685.410096
206.520017,5847.626942,8660.409521,-536.266849
206.520338,5329.482782,8956.491898,76.609550
206.520659,4737.318029,8216.285956,0.000000
206.520980,4071.132681,7920.203579,76.609550
206.521301,3775.050304,7994.224174,0.000000
206.521622,3849.070898,7846.182985,459.657299
206.521943,3701.029710,7698.141797,536.266849
206.522264,3552.988522,7624.121203,459.657299
206.522585,3997.112087,7994.224174,689.485948
206.522905,4145.153275,8216.285956,383.047749
206.523226,4663.297435,7994.224174,-229.828649
206.523547,5107.421000,7994.224174,-1149.143247
206.523868,5625.565159,8660.409521,-1532.190996
206.524189,5699.585753,8808.450710,-1762.019645
206.524510,5995.668130,8956.491898,-1532.190996
206.524831,5921.647536,9326.594869,-842.705048
206.525152,5625.565159,9104.533087,-459.657299
206.525473,5181.441594,8808.450710,-612.876398
206.525794,4589.276840,8290.306550,-1149.143247
206.526115,4663.297435,8512.368333,-689.485948
206.526436,4663.297435,8216.285956,0.000000
206.526757,4663.297435,7772.162391,459.657299
206.527077,4663.297435,7698.141797,689.485948
206.527398,4293.194464,7920.203579,229.828649
206.527719,4219.173869,7624.121203,0.000000
206.528040,3923.091493,7476.080014,383.047749
206.528361,4663.297435,7846.182985,306.438199
206.528682,4737.318029,7994.224174,0.000000
206.529003,5107.421000,7772.162391,0.000000
206.529324,5329.482782,7550.100608,-919.314598
206.529645,5403.503377,7772.162391,-689.485948
206.529966,5403.503377,8068.244768,-306.438199
206.530287,5773.606348,7846.182985,-995.924147
206.530608,6143.709319,8586.388927,-689.485948
206.530929,5995.668130,8660.409521,-536.266849
206.531249,5773.606348,8734.430116,-383.047749
206.531570,5699.585753,8808.450710,229.828649
206.531891,5255.462188,8956.491898,0.000000
206.532212,4589.276840,8216.285956,153.219100
206.532533,4293.194464,7994.224174,0.000000
206.532854,4071.132681,8068.244768,306.438199
206.533175,3923.091493,7846.182985,1072.533697
206.533496,3627.009116,7476.080014,1149.143247
206.533817,3552.988522,7105.977043,1225.752797
206.534138,3775.050304,7105.977043,1225.752797
206.534459,4145.153275,6957.935855,919.314598
206.534780,4515.256246,7179.997637,766.095498
206.535101,5107.421000,7179.997637,-306.438199
206.535421,5329.482782,7254.018232,-229.828649
206.535742,6069.688724,7550.100608,-1072.533697
206.536063,6513.812290,7846.182985,-1072.533697
206.536384,6513.812290,7994.224174,-689.485948
206.536705,6439.791695,8142.265362,-919.314598
206.537026,6143.709319,8512.368333,-919.314598
206.537347,6143.709319,8290.306550,-842.705048
206.537668,6291.750507,8216.285956,-459.657299
206.537989,5625.565159,7994.224174,-459.657299
206.538310,5625.565159,7624.121203,0.000000
206.538631,4959.379811,7254.018232,76.609550
206.538952,4811.338623,7031.956449,383.047749
206.539273,4293.194464,7105.977043,229.828649
206.539593,4441.235652,7179.997637,995.924147
206.539914,4589.276840,7179.997637,766.095498
206.540235,4663.297435,7402.059420,689.485948
206.540556,4663.297435,7624.121203,459.657299
206.540877,4737.318029,7624.121203,-842.705048
206.541198,5107.421000,7920.203579,-766.095498
206.541519,5107.421000,8068.244768,-1149.143247
206.541840,5107.421000,8734.430116,-1225.752797
206.542161,5403.503377,8364.327145,-766.095498
206.542482,5625.565159,9030.512492,-383.047749
206.542803,6069.688724,9104.533087,0.000000
206.543124,4959.379811,8956.491898,-766.095498
206.543445,4811.338623,9326.594869,-995.924147
206.543765,4737.318029,9474.636058,-612.876398
206.544086,4367.215058,9326.594869,-153.219100
206.544407,4737.318029,8586.388927,-153.219100
206.544728,4441.235652,8364.327145,306.438199
206.545049,4071.132681,8512.368333,383.047749
206.545370,3627.009116,8068.244768,536.266849
206.545691,3404.947333,7402.059420,689.485948
206.546012,4663.297435,7772.162391,1072.533697
206.546333,4811.338623,7328.038826,612.876398
206.546654,4885.359217,7476.080014,-612.876398
206.546975,5551.544565,7846.182985,-1149.143247
206.547296,6291.750507,8068.244768,-1685.410096
206.547617,6809.894666,8142.265362,-1455.581446
206.547937,6883.915261,8068.244768,-766.095498
206.548258,7031.956449,8586.388927,-1378.971896
206.548579,6439.791695,8512.368333,-1302.362347
206.548900,5995.668130,8290.306550,-1302.362347
206.549221,6069.688724,8660.409521,-1149.143247
206.549542,5847.626942,8438.347739,-383.047749
206.549863,5181.441594,8142.265362,-383.047749
206.550183,4737.318029,8142.265362,-153.219100
206.550504,4441.235652,8216.285956,536.266849
206.550825,4219.173869,7846.182985,1378.971896
206.551146,3849.070898,6957.935855,1302.362347
206.551467,4219.173869,7105.977043,383.047749
206.551788,4367.215058,7772.162391,536.266849
206.552108,4219.173869,8068.244768,229.828649
206.552429,4441.235652,8068.244768,-383.047749
206.552750,4959.379811,7698.141797,0.000000
206.553071,5255.462188,7698.141797,0.000000
206.553392,5255.462188,7476.080014,-842.705048
206.553713,4885.359217,8068.244768,-995.924147
206.554033,5773.606348,8364.327145,-383.047749
206.554354,5995.668130,8364.327145,-383.047749
206.554675,5847.626942,8290.306550,-459.657299
206.554996,5847.626942,8734.430116,-536.266849
206.555317,5773.606348,8956.491898,-459.657299
206.555638,5329.482782,8808.450710,-459.657299
206.555958,4663.297435,8290.306550,-306.438199
206.556279,4737.318029,8216.285956,0.000000
206.556600,4589.276840,7698.141797,612.876398
206.556921,4071.132681,7105.977043,919.314598
206.557242,3701.029710,7031.956449,1149.143247
206.557562,3775.050304,7105.977043,842.705048
206.557883,3997.112087,7105.977043,919.314598
206.558204,4515.256246,7179.997637,612.876398
206.558525,5033.400406,7254.018232,229.828649
206.558846,5329.482782,7476.080014,0.000000
206.559167,5699.585753,7772.162391,-612.876398
206.559487,6069.688724,7772.162391,-995.924147
206.559808,6143.709319,8290.306550,-1072.533697
206.560129,6365.771101,8512.368333,-689.485948
206.560450,6291.750507,8512.368333,-689.485948
206.560771,6069.688724,8512.368333,-1225.752797
206.561092,5625.565159,8734.430116,-536.266849
206.561412,5255.462188,8142.265362,-153.219100
206.561733,4737.318029,7846.182985,0.000000
206.562054,4811.338623,7550.100608,383.047749
206.562375,4737.318029,7328.038826,995.924147
206.562696,4071.132681,7105.977043,842.705048
206.563017,3775.050304,7031.956449,766.095498
206.563337,4145.153275,7328.038826,612.876398
206.563658,4663.297435,7402.059420,536.266849
206.563979,4589.276840,7476.080014,229.828649
206.564300,4737.318029,8364.327145,-383.047749
206.564621,4811.338623,8364.327145,-766.095498
206.564942,5107.421000,8290.306550,-919.314598
206.565262,5551.544565,8290.306550,-153.219100
206.565583,5329.482782,8512.368333,-766.095498
206.565904,5699.585753,8882.471304,-1302.362347
206.566225,5033.400406,9178.553681,-1225.752797
206.566546,5033.400406,9252.574275,-1072.533697
206.566867,5403.503377,9252.574275,-919.314598
206.567187,5181.441594,9030.512492,-459.657299
206.567508,4367.215058,8734.430116,-612.876398
206.567829,4071.132681,8734.430116,-153.219100
206.568150,4441.235652,8808.450710,229.828649
206.568471,4071.132681,8290.306550,459.657299
206.568791,3775.050304,7920.203579,612.876398
206.569112,3701.029710,7624.121203,536.266849
206.569433,3923.091493,7772.162391,306.438199
206.569754,4367.215058,7550.100608,689.485948
206.570075,4737.318029,7476.080014,536.266849
206.570396,5551.544565,7698.141797,76.609550
206.570716,5847.626942,7846.182985,-1225.752797
206.571037,5847.626942,8364.327145,-1685.410096
206.571358,6365.771101,9030.512492,-1762.019645
206.571679,6439.791695,8882.471304,-1378.971896
206.572000,6217.729913,8882.471304,-1378.971896
206.572321,5551.544565,8882.471304,-689.485948
206.572641,6069.688724,8808.450710,-536.266849
206.572962,5329.482782,8142.265362,-383.047749
206.573283,4663.297435,7994.224174,0.000000
206.573604,4737.318029,7846.182985,459.657299
206.573925,4737.318029,8142.265362,229.828649
206.574246,4515.256246,7550.100608,229.828649
206.574566,3923.091493,7402.059420,842.705048
206.574887,4441.235652,7328.038826,919.314598
206.575208,4441.235652,7402.059420,689.485948
206.575529,4367.215058,7476.080014,229.828649
206.575850,5033.400406,7476.080014,-306.438199
206.576171,5699.585753,7772.162391,-612.876398
206.576491,5255.462188,7328.038826,-459.657299
206.576812,5329.482782,7624.121203,-459.657299
206.577133,5699.585753,8142.265362,-459.657299
206.577454,5847.626942,8142.265362,-1149.143247
206.577775,5625.565159,8290.306550,-995.924147
206.578096,5625.565159,8734.430116,-842.705048
206.578416,5699.585753,8364.327145,-459.657299
206.578737,5477.523971,8882.471304,0.000000
206.579058,5033.400406,8882.471304,-76.609550
206.579379,4441.235652,8734.430116,-306.438199
206.579700,3997.112087,8512.368333,153.219100
206.580020,3627.009116,8216.285956,459.657299
206.580341,3701.029710,7994.224174,536.266849
206.580662,3701.029710,7624.121203,459.657299
206.580983,3849.070898,7254.018232,995.924147
206.581304,3775.050304,7179.997637,1302.362347
206.581625,4219.173869,7105.977043,842.705048
206.581945,4589.276840,7328.038826,612.876398
206.582266,5551.544565,7402.059420,0.000000
206.582587,5699.585753,7772.162391,-842.705048
206.582908,6439.791695,7846.182985,-612.876398
206.583229,6587.832884,7994.224174,-1072.533697
206.583550,6365.771101,8216.285956,-995.924147
206.583870,6069.688724,8586.388927,-995.924147
206.584191,6291.750507,8808.450710,-1072.533697
206.584512,6069.688724,8734.430116,-842.705048
206.584833,5551.544565,8512.368333,-612.876398
206.585154,5181.441594,8438.347739,153.219100
206.585475,4811.338623,7994.224174,842.705048
206.585795,4441.235652,7402.059420,612.876398
206.586116,3701.029710,7550.100608,536.266849
206.586437,3849.070898,7476.080014,306.438199
206.586758,3552.988522,7624.121203,383.047749
206.587079,3775.050304,7920.203579,919.314598
206.587400,3849.070898,8216.285956,612.876398
206.587720,4367.215058,8142.265362,306.438199
206.588041,4589.276840,8068.244768,0.000000
206.588362,4589.276840,7920.203579,-229.828649
206.588683,5181.441594,8068.244768,-383.047749
206.589004,4959.379811,8882.471304,-1149.143247
206.589325,5107.421000,8956.491898,-995.924147
206.589645,5255.462188,9030.512492,-919.314598
206.589966,5255.462188,9400.615463,-229.828649
206.590287,5551.544565,9030.512492,-229.828649
206.590608,5181.441594,8734.430116,-153.219100
206.590929,4737.318029,8734.430116,-153.219100
206.591249,4145.153275,8290.306550,0.000000
206.591570,4367.215058,7846.182985,459.657299
206.591891,4367.215058,7550.100608,536.266849
206.592212,4367.215058,7994.224174,229.828649
206.592533,4071.132681,7550.100608,306.438199
206.592854,4145.153275,7179.997637,76.609550
206.593174,4737.318029,6957.935855,383.047749
206.593495,4885.359217,7031.956449,536.266849
206.593816,5329.482782,7105.977043,-153.219100
206.594137,5625.565159,7698.141797,-919.314598
206.594458,6439.791695,7624.121203,-919.314598
206.594779,6883.915261,8438.347739,-1762.019645
206.595099,6883.915261,8216.285956,-1532.190996
206.595420,6439.791695,8290.306550,-919.314598
206.595741,6217.729913,8808.450710,-1302.362347
206.596062,5995.668130,8364.327145,-1149.143247
206.596383,5921.647536,8438.347739,-612.876398
206.596704,5699.585753,7994.224174,-153.219100
206.597024,5033.400406,8438.347739,0.000000
206.597345,4737.318029,8290.306550,0.000000
206.597666,4737.318029,7920.203579,306.438199
206.597987,4367.215058,7402.059420,612.876398
206.598308,4219.173869,7105.977043,842.705048
206.598629,3997.112087,7920.203579,1149.143247
206.598949,4515.256246,7994.224174,995.924147
206.599270,4219.173869,8586.388927,229.828649
206.599591,4737.318029,8290.306550,0.000000
206.599912,4811.338623,8142.265362,-306.438199
206.600233,4959.379811,8216.285956,-306.438199
206.600554,5181.441594,8586.388927,-536.266849
206.600874,5107.421000,8586.388927,-1072.533697
206.601195,5107.421000,8734.430116,-919.314598
206.601516,5551.544565,9030.512492,-842.705048
206.601837,5329.482782,9252.574275,-612.876398
206.602158,5181.441594,9474.636058,-536.266849
206.602478,5107.421000,9400.615463,-306.438199
206.602799,4737.318029,8956.491898,0.000000
206.603120,4441.235652,8586.388927,-459.657299
206.603441,4441.235652,8290.306550,153.219100
206.603762,3701.029710,8216.285956,842.705048
206.604083,3478.967927,7698.141797,1378.971896
206.604403,3404.947333,7476.080014,842.705048
206.604724,3478.967927,7254.018232,459.657299
206.605045,3701.029710,7476.080014,1072.533697
206.605366,4589.276840,7476.080014,459.657299
206.605687,5033.400406,7624.121203,306.438199
206.606008,5255.462188,7105.977043,0.000000
206.606328,6217.729913,7105.977043,-153.219100
206.606649,6217.729913,7105.977043,-995.924147
206.606970,6439.791695,7624.121203,-1225.752797
206.607291,6143.709319,8142.265362,-689.485948
206.607612,6809.894666,8364.327145,-919.314598
206.607933,6513.812290,8216.285956,-689.485948
206.608253,5773.606348,7994.224174,-536.266849
206.608574,6069.688724,7920.203579,459.657299
206.608895,5107.421000,7994.224174,0.000000
206.609216,4663.297435,7402.059420,0.000000
206.609537,4811.338623,7031.956449,229.828649
206.609858,4737.318029,7105.977043,229.828649
206.610178,4367.215058,6809.894666,1072.533697
206.610499,3923.091493,7476.080014,1149.143247
206.610820,4663.297435,7994.224174,919.314598
206.611141,4737.318029,7846.182985,153.219100
206.611462,4737.318029,7624.121203,-306.438199
206.611783,4811.338623,7772.162391,0.000000
206.612103,5107.421000,8364.327145,-383.047749
206.612424,4737.318029,8216.285956,-383.047749
206.612745,5403.503377,8364.327145,-612.876398
206.613066,5551.544565,8512.368333,-766.095498
206.613387,5403.503377,9178.553681,-919.314598
206.613707,5403.503377,9030.512492,-995.924147
206.614028,5551.544565,9178.553681,-995.924147
206.614349,5181.441594,9326.594869,-229.828649
206.614670,5107.421000,8290.306550,-383.047749
206.614991,4367.215058,8586.388927,0.000000
206.615312,4293.194464,7994.224174,229.828649
206.615632,3923.091493,8290.306550,306.438199
206.615953,3997.112087,7846.182985,229.828649
206.616274,4219.173869,7698.141797,229.828649
206.616595,4737.318029,7624.121203,1072.533697
206.616916,4367.215058,7328.038826,459.657299
206.617237,4959.379811,7550.100608,0.000000
206.617557,5107.421000,7920.203579,-612.876398
206.617878,5551.544565,8290.306550,-1608.800546
206.618199,6439.791695,8364.327145,-1685.410096
206.618520,6365.771101,8512.368333,-1455.581446
206.618841,6365.771101,8882.471304,-919.314598
206.619162,5995.668130,8956.491898,-1072.533697
206.619482,5477.523971,9030.512492,-766.095498
206.619803,5403.503377,8660.409521,-1225.752797
206.620124,5033.400406,8734.430116,-612.876398
206.620445,4737.318029,8586.388927,0.000000
206.620766,4293.194464,8438.347739,459.657299
206.621087,4515.256246,7698.141797,612.876398
206.621407,3997.112087,7846.182985,459.657299
206.621728,3775.050304,7402.059420,689.485948
206.622049,4293.194464,7105.977043,919.314598
206.622370,4219.173869,7698.141797,995.924147
206.622691,4441.235652,8364.327145,306.438199
206.623012,4737.318029,8068.244768,0.000000
206.623332,4959.379811,7920.203579,-306.438199
206.623653,5033.400406,7846.182985,-383.047749
206.623974,5255.462188,7920.203579,0.000000
206.624295,5773.606348,8142.265362,-459.657299
206.624616,5551.544565,8142.265362,-1302.362347
206.624936,5625.565159,8068.244768,-995.924147
206.625257,5773.606348,8734.430116,-383.047749
206.625578,5773.606348,8586.388927,-459.657299
206.625899,5773.606348,8438.347739,-229.828649
206.626220,5181.441594,8216.285956,-612.876398
206.626541,4737.318029,8142.265362,76.609550
206.626861,4663.297435,7920.203579,153.219100
206.627182,4663.297435,8068.244768,612.876398
206.627503,4145.153275,7328.038826,536.266849
206.627824,3997.112087,6809.894666,995.924147
206.628145,4293.194464,6587.832884,919.314598
206.628466,4145.153275,6735.874072,919.314598
206.628786,4737.318029,6809.894666,76.609550
206.629107,5033.400406,6957.935855,306.438199
206.629428,5477.523971,7254.018232,-459.657299
206.629749,6143.709319,7254.018232,-689.485948
206.630070,6439.791695,7624.121203,-995.924147
206.630391,6735.874072,7994.224174,-1072.533697
206.630711,6513.812290,8660.409521,-1302.362347
206.631032,6661.853478,8438.347739,-1225.752797
206.631353,6217.729913,8512.368333,-995.924147
206.631674,6069.688724,8438.347739,-612.876398
206.631995,5699.585753,8512.368333,-306.438199
206.632316,5033.400406,8068.244768,76.609550
206.632636,4811.338623,7994.224174,536.266849
206.632957,4219.173869,7328.038826,536.266849
206.633278,4219.173869,7254.018232,689.485948
206.633599,3923.091493,7476.080014,842.705048
206.633920,3997.112087,7550.100608,995.924147
206.634241,4367.215058,8142.265362,306.438199
206.634561,4367.215058,8364.327145,383.047749
206.634882,4589.276840,8364.327145,-383.047749
206.635203,4737.318029,8364.327145,-383.047749
206.635524,5033.400406,8216.285956,-612.876398
206.635845,5255.462188,8438.347739,-612.876398
206.636165,5181.441594,8808.450710,-1149.143247
206.636486,5625.565159,8586.388927,-1302.362347
206.636807,5329.482782,9178.553681,-995.924147
206.637128,5477.523971,9104.533087,-612.876398
206.637449,5551.544565,9326.594869,-766.095498
206.637770,5033.400406,9474.636058,-459.657299
206.638090,4589.276840,9400.615463,-459.657299
206.638411,4293.194464,8808.450710,0.000000
206.638732,4293.194464,8364.327145,229.828649
206.639053,3923.091493,8364.327145,383.047749
206.639374,3552.988522,8068.244768,459.657299
206.639695,3552.988522,8068.244768,229.828649
206.640015,3997.112087,7846.182985,459.657299
206.640336,4367.215058,7254.018232,919.314598
206.640657,4663.297435,7402.059420,536.266849
206.640978,4959.379811,7476.080014,0.000000
206.641299,5403.503377,7550.100608,-995.924147
206.641620,5995.668130,7772.162391,-1072.533697
206.641940,6217.729913,7772.162391,-1455.581446
206.642261,6587.832884,8290.306550,-1072.533697
206.642582,6513.812290,8364.327145,-1302.362347
206.642903,6513.812290,8512.368333,-1225.752797
206.643224,6439.791695,8290.306550,-842.705048
206.643545,6069.688724,8216.285956,-766.095498
206.643865,5625.565159,7846.182985,-383.047749
206.644186,5255.462188,7624.121203,0.000000
206.644507,5033.400406,7402.059420,0.000000
206.644828,4663.297435,7105.977043,383.047749
206.645149,4663.297435,6883.915261,306.438199
206.645470,4441.235652,7031.956449,612.876398
206.645790,4515.256246,7476.080014,1072.533697
206.646111,4811.338623,7476.080014,612.876398
206.646432,5033.400406,7698.141797,0.000000
206.646753,5181.441594,7550.100608,-229.828649
206.647074,5329.482782,7254.018232,-612.876398
206.647394,5551.544565,7698.141797,-766.095498
206.647715,5773.606348,7920.203579,-766.095498
206.648036,5847.626942,8216.285956,-689.485948
206.648357,5995.668130,8364.327145,-842.705048
206.648678,6143.709319,8586.388927,-842.705048
206.648999,5699.585753,8734.430116,-612.876398
206.649319,5329.482782,8956.491898,-383.047749
206.649640,4959.379811,8956.491898,0.000000
206.649961,4589.276840,8734.430116,76.609550
206.650282,4515.256246,8364.327145,306.438199
206.650603,4219.173869,8290.306550,459.657299
206.650924,3627.009116,8142.265362,842.705048
206.651244,3256.906145,7846.182985,766.095498
206.651565,3404.947333,7920.203579,919.314598
206.651886,3701.029710,7772.162391,995.924147
206.652207,3701.029710,7402.059420,842.705048
206.652528,4367.215058,7550.100608,306.438199
206.652849,4737.318029,7698.141797,-306.438199
206.653170,5329.482782,8142.265362,-689.485948
206.653490,5847.626942,8660.409521,-1378.971896
206.653811,6069.688724,7994.224174,-1149.143247
206.654132,6143.709319,7994.224174,-919.314598
206.654453,5921.647536,8660.409521,-1225.752797
206.654774,5625.565159,8808.450710,-1072.533697
206.655095,5699.585753,8512.368333,-766.095498
206.655416,5551.544565,8512.368333,-766.095498
206.655736,5255.462188,8216.285956,-383.047749
206.656057,4885.359217,7994.224174,0.000000
206.656378,4367.215058,7846.182985,383.047749
206.656699,3775.050304,7328.038826,-229.828649
206.657020,3775.050304,7105.977043,536.266849
206.657341,3997.112087,7328.038826,459.657299
206.657662,4145.153275,7994.224174,766.095498
206.657983,4219.173869,8290.306550,153.219100
206.658303,4441.235652,8660.409521,306.438199
206.658624,4737.318029,7846.182985,-536.266849
206.658945,4811.338623,7920.203579,-383.047749
206.659266,5033.400406,8142.265362,-689.485948
206.659587,5477.523971,8216.285956,-995.924147
206.659908,5625.565159,8882.471304,-995.924147
206.660229,5477.523971,8882.471304,-919.314598
206.660549,5625.565159,8512.368333,-842.705048
206.660870,6143.709319,8438.347739,-459.657299
206.661191,5773.606348,8734.430116,-383.047749
206.661512,5477.523971,8660.409521,153.219100
206.661833,4885.359217,8216.285956,-153.219100
206.662154,5033.400406,7846.182985,0.000000
206.662475,5033.400406,7476.080014,153.219100
206.662795,4293.194464,7698.141797,1149.143247
206.663116,4515.256246,7254.018232,995.924147
206.663437,4589.276840,6957.935855,612.876398
206.663758,4737.318029,6957.935855,766.095498
206.664079,4959.379811,6809.894666,459.657299
206.664400,5403.503377,7105.977043,153.219100
206.664721,5551.544565,8290.306550,-612.876398
206.665041,5995.668130,7698.141797,-1302.362347
206.665362,6439.791695,7920.203579,-1225.752797
206.665683,6513.812290,8142.265362,-1302.362347
206.666004,6291.750507,8734.430116,-689.485948
206.666325,5699.585753,8956.491898,-459.657299
206.666646,5477.523971,9030.512492,-689.485948
206.666967,5329.482782,8290.306550,-536.266849
206.667288,4885.359217,8364.327145,0.000000
206.667608,4367.215058,8290.306550,0.000000
206.667929,4219.173869,8364.327145,0.000000
206.668250,3701.029710,8290.306550,383.047749
206.668571,3627.009116,7624.121203,459.657299
206.668892,3552.988522,7476.080014,383.047749
206.669213,3701.029710,7698.141797,766.095498
206.669534,3923.091493,8586.388927,842.705048
206.669854,3923.091493,8734.430116,229.828649
206.670175,4293.194464,8660.409521,-306.438199
206.670496,4589.276840,8512.368333,-383.047749
206.670817,4811.338623,8512.368333,-383.047749
206.671138,4959.379811,8364.327145,-229.828649
206.671459,4959.379811,8586.388927,-689.485948
206.671780,5107.421000,8586.388927,-842.705048
206.672100,5403.503377,8734.430116,-689.485948
206.672421,5255.462188,9030.512492,-766.095498
206.672742,5255.462188,9178.553681,-842.705048
206.673063,4737.318029,9474.636058,-459.657299
206.673384,4737.318029,8808.450710,-306.438199
206.673705,4811.338623,8586.388927,76.609550
206.674026,4219.173869,8438.347739,459.657299
206.674346,3997.112087,7772.162391,612.876398
206.674667,3997.112087,7698.141797,612.876398
206.674988,3997.112087,7550.100608,536.266849
206.675309,4219.173869,7105.977043,689.485948
206.675630,4663.297435,7105.977043,689.485948
206.675951,5107.421000,7402.059420,612.876398
206.676272,5477.523971,6809.894666,0.000000
206.676592,5847.626942,7254.018232,-459.657299
206.676913,6735.874072,7105.977043,-842.705048
206.677234,6809.894666,7179.997637,-1225.752797
206.677555,7254.018232,7772.162391,-1378.971896
206.677876,6661.853478,7994.224174,-1225.752797
206.678197,6587.832884,8290.306550,-919.314598
206.678518,6143.709319,8290.306550,-995.924147
206.678839,5921.647536,8438.347739,-536.266849
206.679159,5625.565159,7772.162391,-459.657299
206.679480,5329.482782,7328.038826,0.000000
206.679801,4885.359217,7698.141797,0.000000
206.680122,4293.194464,7402.059420,229.828649
206.680443,3997.112087,7328.038826,459.657299
206.680764,4367.215058,7179.997637,76.609550
206.681085,4293.194464,7550.100608,995.924147
206.681405,4071.132681,7920.203579,536.266849
206.681726,4367.215058,8290.306550,0.000000
206.682047,4589.276840,8364.327145,-306.438199
206.682368,4737.318029,8364.327145,-383.047749
206.682689,4811.338623,8734.430116,-383.047749
206.683010,5107.421000,8586.388927,-536.266849
206.683331,5107.421000,8660.409521,-766.095498
206.683651,5107.421000,8882.471304,-612.876398
206.683972,5551.544565,8882.471304,-459.657299
206.684293,5551.544565,9104.533087,-536.266849
206.684614,5255.462188,9400.615463,-536.266849
206.684935,4811.338623,9252.574275,-383.047749
206.685256,4589.276840,9178.553681,-76.609550
206.685577,4145.153275,9178.553681,-76.609550
206.685897,4071.132681,8438.347739,383.047749
206.686218,3627.009116,8142.265362,1072.533697
206.686539,3552.988522,7772.162391,766.095498
206.686860,3627.009116,7550.100608,459.657299
206.687181,3923.091493,7698.141797,306.438199
206.687502,4145.153275,7772.162391,766.095498
206.687823,4515.256246,7772.162391,153.219100
206.688144,4885.359217,7698.141797,-612.876398
206.688464,5403.503377,7994.224174,-1455.581446
206.688785,5995.668130,8068.244768,-1455.581446
206.689106,6217.729913,7698.141797,-995.924147
206.689427,6143.709319,8734.430116,-1378.971896
206.689748,6217.729913,8586.388927,-1149.143247
206.690069,5995.668130,8734.430116,-1149.143247
206.690390,6143.709319,8734.430116,-306.438199
206.690710,6069.688724,8216.285956,-383.047749
206.691031,5181.441594,7994.224174,0.000000
206.691352,4737.318029,7846.182985,229.828649
206.691673,4737.318029,7476.080014,459.657299
206.691994,4441.235652,7402.059420,689.485948
206.692315,4367.215058,7105.977043,383.047749
206.692636,4441.235652,7105.977043,1225.752797
206.692956,4367.215058,7402.059420,766.095498
206.693277,4737.318029,7328.038826,766.095498
206.693598,5181.441594,7846.182985,306.438199
206.693919,5255.462188,7476.080014,-306.438199
206.694240,5477.523971,7624.121203,-383.047749
206.694561,5699.585753,7846.182985,-689.485948
206.694882,6365.771101,7476.080014,-995.924147
206.695202,6143.709319,8142.265362,-383.047749
206.695523,5995.668130,8808.450710,-842.705048
206.695844,5847.626942,8290.306550,-1072.533697
206.696165,5625.565159,8660.409521,-536.266849
206.696486,5773.606348,8660.409521,-612.876398
206.696807,5255.462188,9326.594869,0.000000
206.697128,4885.359217,8438.347739,0.000000
206.697448,4737.318029,8290.306550,306.438199
206.697769,4367.215058,7994.224174,842.705048
206.698090,3997.112087,8068.244768,919.314598
206.698411,4367.215058,7179.997637,689.485948
206.698732,3849.070898,7031.956449,919.314598
206.699053,4071.132681,7105.977043,995.924147
206.699374,4441.235652,7328.038826,842.705048
206.699695,4737.318029,7328.038826,153.219100
206.700015,5329.482782,7698.141797,-919.314598
206.700336,5699.585753,7994.224174,-766.095498
206.700657,6143.709319,8142.265362,-1149.143247
206.700978,5995.668130,8512.368333,-1225.752797
206.701299,6069.688724,8660.409521,-842.705048
206.701620,6439.791695,8808.450710,-1302.362347
206.701941,5625.565159,9030.512492,-689.485948
206.702261,5403.503377,9104.533087,-842.705048
206.702582,5403.503377,8586.388927,-306.438199
206.702903,4663.297435,8142.265362,-153.219100
206.703224,4737.318029,8290.306550,459.657299
206.703545,4145.153275,7772.162391,459.657299
206.703866,3923.091493,7402.059420,612.876398
206.704187,3627.009116,7624.121203,766.095498
206.704507,3849.070898,7772.162391,689.485948
206.704828,4219.173869,8438.347739,536.266849
206.705149,4367.215058,8216.285956,306.438199
206.705470,4589.276840,7994.224174,-306.438199
206.705791,4959.379811,8068.244768,-306.438199
206.706112,5329.482782,8142.265362,-153.219100
206.706433,5625.565159,8142.265362,-612.876398
206.706753,5625.565159,8438.347739,-689.485948
206.707074,5773.606348,8364.327145,-842.705048
206.707395,6069.688724,8438.347739,-766.095498
206.707716,6069.688724,8512.368333,-842.705048
206.708037,6365.771101,8216.285956,-612.876398
206.708358,5847.626942,8808.450710,-306.438199
206.708679,5255.462188,8882.471304,-612.876398
206.709000,4885.359217,8438.347739,0.000000
206.709320,4737.318029,7994.224174,153.219100
206.709641,4441.235652,8216.285956,842.705048
206.709962,4071.132681,7550.100608,995.924147
206.710283,4145.153275,7402.059420,536.266849
206.710604,3997.112087,7031.956449,612.876398
206.710925,4589.276840,6809.894666,1225.752797
206.711246,4737.318029,7254.018232,919.314598
206.711566,4737.318029,7105.977043,0.000000
206.711887,5403.503377,7179.997637,-459.657299
206.712208,6143.709319,7624.121203,-1072.533697
206.712529,6439.791695,7772.162391,-1225.752797
206.712850,6883.915261,7994.224174,-919.314598
206.713171,6439.791695,8438.347739,-1302.362347
206.713492,6069.688724,8512.368333,-1302.362347
206.713812,6069.688724,8660.409521,-1149.143247
206.714133,5847.626942,8364.327145,-766.095498
206.714454,5551.544565,7846.182985,-459.657299
206.714775,4959.379811,8142.265362,0.000000
206.715096,4663.297435,7772.162391,0.000000
206.715417,4071.132681,7476.080014,306.438199
206.715738,4071.132681,7105.977043,229.828649
206.716058,4293.194464,7105.977043,689.485948
206.716379,4367.215058,7624.121203,536.266849
206.716700,4293.194464,8290.306550,612.876398
206.717021,4737.318029,8512.368333,229.828649
206.717342,4885.359217,8290.306550,0.000000
206.717663,4959.379811,8216.285956,-383.047749
206.717984,4959.379811,8142.265362,-766.095498
206.718304,4885.359217,8142.265362,-919.314598
206.718625,5255.462188,8734.430116,-1072.533697
206.718946,5329.482782,8956.491898,-766.095498
206.719267,5403.503377,9474.636058,-842.705048
206.719588,5255.462188,9326.594869,-459.657299
206.719909,4811.338623,9474.636058,-306.438199
206.720230,4737.318029,9474.636058,-383.047749
206.720551,4737.318029,9178.553681,0.000000
206.720871,4293.194464,9252.574275,229.828649
206.721192,4071.132681,8734.430116,612.876398
206.721513,3923.091493,8290.306550,766.095498
206.721834,3552.988522,7846.182985,689.485948
206.722155,3627.009116,7476.080014,536.266849
206.722476,4071.132681,7254.018232,842.705048
206.722797,4441.235652,6735.874072,612.876398
206.723117,4959.379811,6957.935855,612.876398
206.723438,5699.585753,7105.977043,0.000000
206.723759,6217.729913,7105.977043,-766.095498
206.724080,6735.874072,7550.100608,-1685.410096
206.724401,6809.894666,7254.018232,-1072.533697
206.724722,6883.915261,7846.182985,-1532.190996
206.725043,7031.956449,7994.224174,-1455.581446
206.725363,6661.853478,8364.327145,-1072.533697
206.725684,6291.750507,7698.141797,-842.705048
206.726005,5995.668130,7994.224174,-766.095498
206.726326,5477.523971,7772.162391,-612.876398
206.726647,4737.318029,7402.059420,-229.828649
206.726968,4663.297435,7328.038826,229.828649
206.727289,4071.132681,7179.997637,766.095498
206.727609,4071.132681,6883.915261,689.485948
206.727930,3775.050304,6957.935855,919.314598
206.728251,4071.132681,7476.080014,689.485948
206.728572,3997.112087,7920.203579,383.047749
206.728893,4515.256246,8142.265362,-229.828649
206.729214,4737.318029,7772.162391,76.609550
206.729535,4959.379811,8068.244768,-536.266849
206.729856,4885.359217,8364.327145,-306.438199
206.730176,5403.503377,8512.368333,-612.876398
206.730497,5255.462188,8364.327145,-842.705048
206.730818,5699.585753,8586.388927,-995.924147
206.731139,5773.606348,8956.491898,-689.485948
206.731460,5921.647536,8956.491898,-306.438199
206.731781,6069.688724,9178.553681,-459.657299
206.732102,5921.647536,9400.615463,-766.095498
206.732422,5033.400406,8956.491898,-383.047749
206.732743,4737.318029,8364.327145,0.000000
206.733064,4441.235652,7994.224174,383.047749
206.733385,4293.194464,8142.265362,536.266849
206.733706,4071.132681,7624.121203,536.266849
206.734027,3923.091493,7476.080014,306.438199
206.734348,4145.153275,7402.059420,459.657299
206.734668,4293.194464,7624.121203,459.657299
206.734989,4589.276840,7772.162391,0.000000
206.735310,4811.338623,8068.244768,0.000000
206.735631,5255.462188,7994.224174,-842.705048
206.735952,5625.565159,8364.327145,-1149.143247
206.736273,5699.585753,9030.512492,-1072.533697
206.736594,5773.606348,9104.533087,-1225.752797
206.736914,5921.647536,9178.553681,-919.314598
206.737235,5551.544565,8660.409521,-842.705048
206.737556,5181.441594,8512.368333,-766.095498
206.737877,4885.359217,8364.327145,-229.828649
206.738198,4589.276840,8142.265362,0.000000
206.738519,4219.173869,8068.244768,306.438199
206.738840,3849.070898,7846.182985,306.438199
206.739160,3849.070898,7402.059420,459.657299
206.739481,4071.132681,7105.977043,842.705048
206.739802,4071.132681,7476.080014,842.705048
206.740123,4737.318029,7550.100608,153.219100
206.740444,4959.379811,7624.121203,76.609550
206.740765,5329.482782,7698.141797,-306.438199
206.741086,5403.503377,7698.141797,-459.657299
206.741407,5403.503377,7772.162391,-842.705048
206.741727,5403.503377,8068.244768,-919.314598
206.742048,5699.585753,8290.306550,-1455.581446
206.742369,6069.688724,8290.306550,-995.924147
206.742690,5921.647536,8438.347739,-919.314598
206.743011,5847.626942,8586.388927,-766.095498
206.743332,5625.565159,9104.533087,-612.876398
206.743653,4885.359217,9104.533087,-383.047749
206.743973,4663.297435,8734.430116,0.000000
206.744294,4441.235652,8586.388927,536.266849
206.744615,4293.194464,8364.327145,459.657299
206.744936,3849.070898,9030.512492,459.657299
206.745257,3552.988522,7772.162391,612.876398
206.745578,3478.967927,7254.018232,1149.143247
206.745899,3701.029710,7328.038826,919.314598
206.746219,4515.256246,7105.977043,1149.143247
206.746540,4589.276840,6957.935855,842.705048
206.746861,4959.379811,7328.038826,153.219100
206.747182,5403.503377,7846.182985,-612.876398
206.747503,6143.709319,7772.162391,-766.095498
206.747824,6587.832884,7624.121203,-919.314598
206.748145,6883.915261,7772.162391,-1378.971896
206.748465,6365.771101,8364.327145,-1455.581446
206.748786,6365.771101,8438.347739,-1455.581446
206.749107,6365.771101,8290.306550,-919.314598
206.749428,5921.647536,8290.306550,-1072.533697
206.749749,5625.565159,8512.368333,76.609550
206.750070,5033.400406,7772.162391,0.000000
206.750391,4293.194464,7772.162391,0.000000
206.750712,4071.132681,7476.080014,153.219100
206.751033,3997.112087,7105.977043,383.047749
206.751354,3997.112087,7476.080014,612.876398
206.751675,3923.091493,7994.224174,612.876398
206.751996,4145.153275,7846.182985,612.876398
206.752316,4071.132681,7994.224174,229.828649
206.752637,4589.276840,8364.327145,0.000000
206.752958,4145.153275,8512.368333,-689.485948
206.753279,4811.338623,8364.327145,-383.047749
206.753600,5033.400406,8438.347739,-536.266849
206.753921,5403.503377,8660.409521,-766.095498
206.754242,5255.462188,8660.409521,-842.705048
206.754563,5625.565159,9030.512492,-842.705048
206.754884,5625.565159,9030.512492,-459.657299
206.755205,5477.523971,9400.615463,-383.047749
206.755526,5107.421000,9326.594869,-306.438199
206.755847,4959.379811,9104.533087,0.000000
206.756168,4811.338623,8882.471304,0.000000
206.756489,4515.256246,8438.347739,459.657299
206.756810,4145.153275,8216.285956,842.705048
206.757131,3997.112087,7550.100608,689.485948
206.757452,4145.153275,7402.059420,612.876398
206.757773,4441.235652,7402.059420,536.266849
206.758094,4515.256246,7254.018232,612.876398
206.758415,4959.379811,7254.018232,306.438199
206.758736,5329.482782,7402.059420,-383.047749
206.759057,5773.606348,7698.141797,-1149.143247
206.759378,6217.729913,7920.203579,-919.314598
206.759699,6365.771101,8364.327145,-1378.971896
206.760020,6291.750507,8734.430116,-1149.143247
206.760341,6143.709319,8808.450710,-1072.533697
206.760662,5847.626942,8660.409521,-995.924147
206.760983,5847.626942,8364.327145,-766.095498
206.761304,5551.544565,8364.327145,-383.047749
206.761625,4885.359217,7994.224174,-153.219100
206.761946,4589.276840,7624.121203,459.657299
206.762267,4367.215058,7328.038826,689.485948
206.762588,4515.256246,7105.977043,229.828649
206.762909,3923.091493,6809.894666,1149.143247
206.763230,4145.153275,7254.018232,919.314598
206.763551,3997.112087,7772.162391,612.876398
206.763872,4071.132681,7994.224174,459.657299
206.764193,4515.256246,7994.224174,0.000000
206.764514,5033.400406,8068.244768,-229.828649
206.764835,4885.359217,7920.203579,-612.876398
206.765156,5033.400406,8216.285956,-689.485948
206.765477,4737.318029,8512.368333,-919.314598
206.765798,5329.482782,8586.388927,-919.314598
206.766119,5477.523971,8586.388927,-689.485948
206.766440,5551.544565,8808.450710,-842.705048
206.766761,5329.482782,8808.450710,-383.047749
206.767082,5107.421000,9104.533087,-383.047749
206.767403,4663.297435,8956.491898,-153.219100
206.767724,4219.173869,8882.471304,0.000000
206.768045,4367.215058,8438.347739,383.047749
206.768366,4145.153275,8290.306550,689.485948
206.768687,3849.070898,8216.285956,689.485948
206.769008,3923.091493,7476.080014,612.876398
206.769329,3775.050304,7550.100608,689.485948
206.769650,4367.215058,7328.038826,919.314598
206.769971,4589.276840,7328.038826,383.047749
206.770292,4959.379811,7698.141797,-383.047749
206.770613,5329.482782,7846.182985,-153.219100
206.770934,5995.668130,7920.203579,-766.095498
206.771255,6513.812290,7698.141797,-1072.533697
206.771576,6365.771101,8216.285956,-1455.581446
206.771897,6439.791695,8364.327145,-1532.190996
206.772218,6217.729913,8660.409521,-842.705048
206.772539,5995.668130,8512.368333,-689.485948
206.772860,5995.668130,8290.306550,-612.876398
206.773181,5403.503377,8216.285956,-383.047749
206.773502,5403.503377,7698.141797,153.219100
206.773823,4515.256246,7624.121203,306.438199
206.774144,4515.256246,7328.038826,153.219100
206.774465,4145.153275,7105.977043,383.047749
206.774786,4515.256246,7476.080014,459.657299
206.775107,4737.318029,7254.018232,842.705048
206.775428,4589.276840,7698.141797,153.219100
206.775749,4737.318029,7698.141797,153.219100
206.776070,5033.400406,7624.121203,-306.438199
206.776391,5551.544565,7698.141797,-383.047749
206.776712,5847.626942,7698.141797,-842.705048
206.777033,5773.606348,7994.224174,-842.705048
206.777354,5847.626942,8142.265362,-612.876398
206.777675,5847.626942,8216.285956,-612.876398
206.777996,5773.606348,8142.265362,-766.095498
206.778317,5995.668130,8586.388927,-306.438199
206.778638,5847.626942,8660.409521,-383.047749
206.778959,5847.626942,8882.471304,-229.828649
206.779280,5255.462188,8660.409521,-306.438199
206.779601,4737.318029,8512.368333,0.000000
206.779922,4737.318029,7772.162391,383.047749
206.780243,3849.070898,7846.182985,612.876398
206.780564,3627.009116,7550.100608,689.485948
206.780885,3552.988522,7402.059420,612.876398
206.781206,3775.050304,7476.080014,766.095498
206.781527,4145.153275,7402.059420,536.266849
206.781848,4663.297435,7254.018232,459.657299
206.782169,4663.297435,7550.100608,0.000000
206.782490,5107.421000,7624.121203,-1149.143247
206.782811,5625.565159,7920.203579,-1225.752797
206.783132,6439.791695,8142.265362,-1532.190996
206.783453,6439.791695,8142.265362,-1302.362347
206.783774,5995.668130,8734.430116,-1532.190996
206.784095,5921.647536,8882.471304,-1532.190996
206.784416,5625.565159,8956.491898,-689.485948
206.784737,5625.565159,8512.368333,-689.485948
206.785058,5107.421000,8142.265362,0.000000
206.785379,4737.318029,8216.285956,0.000000
206.785700,4515.256246,7698.141797,0.000000
206.786021,4071.132681,7328.038826,383.047749
206.786342,4145.153275,7328.038826,612.876398
206.786663,4219.173869,7402.059420,459.657299
206.786984,4219.173869,7920.203579,306.438199
206.787305,4663.297435,8068.244768,919.314598
206.787626,4663.297435,7920.203579,689.485948
206.787947,4959.379811,8216.285956,0.000000
206.788268,5181.441594,8068.244768,-229.828649
206.788589,5107.421000,8290.306550,-919.314598
206.788910,5255.462188,8290.306550,-689.485948
206.789231,5625.565159,8438.347739,-995.924147
206.789552,5773.606348,8586.388927,-766.095498
206.789873,5773.606348,8512.368333,-536.266849
206.790194,5551.544565,8438.347739,-229.828649
206.790515,5255.462188,8882.471304,-383.047749
206.790836,5107.421000,8808.450710,-76.609550
206.791157,5107.421000,8364.327145,0.000000
206.791478,4811.338623,8586.388927,0.000000
206.791799,4219.173869,8438.347739,536.266849
206.792120,4589.276840,7698.141797,1455.581446
206.792441,3775.050304,7328.038826,689.485948
206.792762,4145.153275,6809.894666,536.266849
206.793083,4441.235652,6957.935855,766.095498
206.793404,4663.297435,7179.997637,689.485948
206.793725,4811.338623,7328.038826,0.000000
206.794046,5255.462188,7476.080014,-612.876398
206.794367,5403.503377,7624.121203,-612.876398
206.794688,6513.812290,7698.141797,-995.924147
206.795009,6365.771101,7772.162391,-1225.752797
206.795330,6217.729913,8142.265362,-1302.362347
206.795651,5773.606348,8290.306550,-1072.533697
206.795972,5699.585753,8586.388927,-612.876398
206.796293,5551.544565,8438.347739,-459.657299
206.796614,4885.359217,8512.368333,-383.047749
206.796935,4811.338623,7994.224174,-153.219100
206.797256,4219.173869,7994.224174,229.828649
206.797577,3997.112087,7846.182985,153.219100
206.797898,3849.070898,7476.080014,0.000000
206.798219,3849.070898,7476.080014,612.876398
206.798540,3997.112087,7328.038826,995.924147
206.798861,3997.112087,7920.203579,766.095498
206.799182,4071.132681,7994.224174,0.000000
206.799503,4663.297435,7698.141797,0.000000
206.799824,4811.338623,8142.265362,-306.438199
206.800145,5329.482782,8068.244768,-229.828649
206.800466,5625.565159,8068.244768,-536.266849
206.800787,5551.544565,8364.327145,-689.485948
206.801108,5625.565159,8586.388927,-1455.581446
206.801429,5625.565159,8512.368333,-689.485948
206.801750,5921.647536,8808.450710,-536.266849
206.802071,5699.585753,9104.533087,-536.266849
206.802392,5551.544565,8956.491898,-612.876398
206.802713,5255.462188,9326.594869,153.219100
206.803034,4737.318029,8660.409521,-383.047749
206.803355,4367.215058,8216.285956,0.000000
206.803676,4145.153275,7698.141797,383.047749
206.803997,3997.112087,7772.162391,1072.533697
206.804318,3478.967927,7920.203579,536.266849
206.804639,3701.029710,7254.018232,766.095498
206.804960,4071.132681,7328.038826,766.095498
206.805281,4663.297435,7328.038826,689.485948
206.805602,4959.379811,7328.038826,153.219100
206.805923,5625.565159,7772.162391,-459.657299
206.806244,5995.668130,7624.121203,-995.924147
206.806565,6291.750507,7994.224174,-1149.143247
206.806886,6513.812290,8290.306550,-1225.752797
206.807207,6587.832884,8512.368333,-1225.752797
206.807528,6217.729913,8734.430116,-1455.581446
206.807849,6069.688724,8438.347739,-995.924147
206.808170,5773.606348,8142.265362,-459.657299
206.808491,5625.565159,8068.244768,-459.657299
206.808812,5477.523971,7550.100608,0.000000
206.809133,4589.276840,7402.059420,306.438199
206.809454,4663.297435,7328.038826,459.657299
206.809775,4441.235652,6957.935855,536.266849
206.810096,4293.194464,7031.956449,536.266849
206.810417,4145.153275,7328.038826,842.705048
206.810738,4293.194464,7624.121203,689.485948
206.811059,4737.318029,7624.121203,229.828649
206.811380,4959.379811,8068.244768,-229.828649
206.811701,5107.421000,8142.265362,-306.438199
206.812022,5181.441594,8142.265362,-612.876398
206.812343,5107.421000,8734.430116,-1072.533697
206.812664,5255.462188,8364.327145,-766.095498
206.812985,5551.544565,8512.368333,-689.485948
206.813306,5329.482782,8956.491898,-612.876398
206.813627,5181.441594,9030.512492,-689.485948
206.813948,5255.462188,9104.533087,-842.705048
206.814269,4737.318029,9252.574275,-76.609550
206.814590,4219.173869,9030.512492,0.000000
206.814911,4071.132681,8734.430116,153.219100
206.815232,3923.091493,8734.430116,612.876398
206.815553,3552.988522,8438.347739,919.314598
206.815874,3552.988522,7772.162391,842.705048
206.816195,3701.029710,7624.121203,842.705048
206.816516,3701.029710,7179.997637,1072.533697
206.816837,4293.194464,7105.977043,919.314598
206.817158,4737.318029,7179.997637,153.219100
206.817479,5107.421000,7402.059420,-383.047749
206.817800,5699.585753,7402.059420,-689.485948
206.818121,6291.750507,7624.121203,-689.485948
206.818442,6661.853478,7624.121203,-1149.143247
206.818763,6291.750507,8290.306550,-1378.971896
206.819084,6291.750507,8142.265362,-1378.971896
206.819405,5995.668130,8512.368333,-1455.581446
206.819726,5921.647536,8660.409521,-995.924147
206.820047,5625.565159,8956.491898,-306.438199
206.820368,5181.441594,8142.265362,-229.828649
206.820689,4663.297435,7920.203579,0.000000
206.821010,4219.173869,7772.162391,536.266849
206.821331,4071.132681,7624.121203,306.438199
206.821652,3849.070898,7254.018232,689.485948
206.821973,3849.070898,7550.100608,766.095498
206.822294,3997.112087,7550.100608,995.924147
206.822615,3997.112087,8142.265362,766.095498
206.822936,4589.276840,8068.244768,0.000000
206.823257,4811.338623,8142.265362,-306.438199
206.823578,5477.523971,7698.141797,-306.438199
206.823899,5551.544565,7994.224174,-689.485948
206.824220,5477.523971,8068.244768,-536.266849
206.824541,5625.565159,8290.306550,-766.095498
206.824862,5699.585753,8142.265362,-995.924147
206.825183,6143.709319,8734.430116,-536.266849
206.825504,6217.729913,8808.450710,-612.876398
206.825825,5995.668130,9326.594869,-842.705048
206.826146,5625.565159,9178.553681,-689.485948
206.826467,5329.482782,8956.491898,-306.438199
206.826788,4663.297435,8512.368333,0.000000
206.827109,4515.256246,7698.141797,306.438199
206.827430,4071.132681,8068.244768,383.047749
206.827751,3923.091493,7698.141797,383.047749
206.828072,3701.029710,7179.997637,459.657299
206.828393,3997.112087,7402.059420,1149.143247
206.828714,4145.153275,7105.977043,689.485948
206.829035,4589.276840,7476.080014,306.438199
206.829356,4811.338623,7624.121203,-383.047749
206.829677,5107.421000,7994.224174,-919.314598
206.829998,6217.729913,8142.265362,-766.095498
206.830319,6365.771101,8290.306550,-689.485948
206.830640,6291.750507,8512.368333,-1149.143247
206.830961,5847.626942,8882.471304,-995.924147
206.831282,5847.626942,8586.388927,-842.705048
206.831603,5625.565159,8660.409521,-995.924147
206.831924,5255.462188,8438.347739,-153.219100
206.832245,4811.338623,8142.265362,0.000000
206.832566,4663.297435,7624.121203,0.000000
206.832887,4811.338623,7698.141797,459.657299
206.833208,4293.194464,7105.977043,459.657299
206.833529,4367.215058,6957.935855,383.047749
206.833850,4293.194464,7550.100608,689.485948
206.834171,4367.215058,7920.203579,612.876398
206.834492,4293.194464,8142.265362,229.828649
206.834813,4515.256246,8290.306550,-306.438199
206.835134,5107.421000,8142.265362,-153.219100
206.835455,4959.379811,8142.265362,-766.095498
206.835776,5181.441594,8290.306550,-612.876398
206.836097,5329.482782,8438.347739,-689.485948
206.836418,5033.400406,8808.450710,-689.485948
206.836739,5477.523971,9030.512492,-459.657299
206.837060,5403.503377,8882.471304,-766.095498
206.837381,5181.441594,9326.594869,-383.047749
206.837702,5033.400406,9252.574275,-306.438199
206.838023,5033.400406,8734.430116,0.000000
206.838344,4589.276840,8512.368333,76.609550
206.838665,4589.276840,8364.327145,459.657299
206.838986,4293.194464,8216.285956,766.095498
206.839307,3849.070898,8364.327145,919.314598
206.839628,4071.132681,7105.977043,919.314598
206.839949,3997.112087,7254.018232,842.705048
206.840270,4219.173869,7105.977043,1072.533697
206.840591,4737.318029,7328.038826,766.095498
206.840912,5255.462188,7550.100608,0.000000
206.841233,5551.544565,7550.100608,-919.314598
206.841554,6217.729913,7476.080014,-919.314598
206.841875,6587.832884,7772.162391,-1225.752797
206.842196,6513.812290,8142.265362,-1225.752797
206.842517,6587.832884,8734.430116,-1378.971896
206.842838,6735.874072,8438.347739,-1149.143247
206.843159,6217.729913,8290.306550,-995.924147
206.843480,6217.729913,8068.244768,-383.047749
206.843801,5625.565159,7920.203579,-306.438199
206.844122,5033.400406,7772.162391,0.000000
206.844443,4959.379811,7624.121203,153.219100
206.844764,4663.297435,7105.977043,306.438199
206.845085,4145.153275,7031.956449,459.657299
206.845406,4293.194464,7105.977043,153.219100
206.845727,3849.070898,7772.162391,306.438199
206.846048,4367.215058,8216.285956,842.705048
206.846369,4293.194464,8142.265362,0.000000
206.846690,4589.276840,7994.224174,-229.828649
206.847011,4737.318029,8216.285956,-459.657299
206.847332,4885.359217,8290.306550,-383.047749
206.847653,4737.318029,7920.203579,-383.047749
206.847974,5033.400406,8512.368333,-612.876398
206.848295,5329.482782,8438.347739,-612.876398
206.848616,5551.544565,8734.430116,-536.266849
206.848937,4959.379811,9030.512492,-76.609550
206.849258,5477.523971,8882.471304,-766.095498
206.849579,5107.421000,8956.491898,-229.828649
206.849900,4959.379811,8586.388927,-383.047749
206.850221,4663.297435,8512.368333,0.000000
206.850543,4515.256246,8512.368333,459.657299
206.850864,4145.153275,8216.285956,383.047749
206.851185,3923.091493,7920.203579,383.047749
206.851506,3997.112087,7402.059420,229.828649
206.851828,4367.215058,7254.018232,536.266849
206.852149,4367.215058,7476.080014,536.266849
206.852470,4589.276840,7254.018232,153.219100
206.852791,5107.421000,7402.059420,-76.609550
206.853112,5625.565159,7550.100608,-766.095498
206.853433,6069.688724,7772.162391,-766.095498
206.853754,6587.832884,7550.100608,-1072.533697
206.854075,6957.935855,8216.285956,-766.095498
206.854396,6513.812290,8438.347739,-842.705048
206.854717,6291.750507,8290.306550,-919.314598
206.855038,6365.771101,7994.224174,-766.095498
206.855359,6143.709319,8068.244768,-459.657299
206.855680,5699.585753,7698.141797,-459.657299
206.856001,5625.565159,7698.141797,0.000000
206.856322,5033.400406,7550.100608,76.609550
206.856644,4959.379811,7105.977043,459.657299
206.856965,4737.318029,7031.956449,612.876398
206.857286,5033.400406,7105.977043,689.485948
206.857607,4441.235652,7624.121203,459.657299
206.857928,4441.235652,7772.162391,76.609550
206.858249,4589.276840,8068.244768,0.000000
206.858570,4885.359217,7920.203579,-536.266849
206.858891,4959.379811,8290.306550,153.219100
206.859212,4811.338623,8734.430116,-612.876398
206.859533,4811.338623,8290.306550,-612.876398
206.859854,4811.338623,8734.430116,-766.095498
206.860175,5033.400406,9030.512492,-536.266849
206.860496,4959.379811,9104.533087,-612.876398
206.860817,4663.297435,9326.594869,-536.266849
206.861138,4515.256246,9400.615463,-306.438199
206.861459,4293.194464,9252.574275,0.000000
206.861781,3552.988522,9178.553681,-153.219100
206.862102,3627.009116,9400.615463,0.000000
206.862423,3256.906145,9104.533087,766.095498
206.862744,3552.988522,8882.471304,459.657299
206.863065,3108.864956,8290.306550,842.705048
206.863386,3256.906145,7994.224174,612.876398
206.863707,3256.906145,8364.327145,919.314598
206.864028,3701.029710,7698.141797,766.095498
206.864349,4071.132681,7772.162391,229.828649
206.864670,4737.318029,7772.162391,-383.047749
206.864991,5255.462188,7846.182985,-383.047749
206.865312,6217.729913,7846.182985,-842.705048
206.865633,6217.729913,7846.182985,-995.924147
206.865954,6661.853478,8216.285956,-1608.800546
206.866275,6291.750507,8068.244768,-1225.752797
206.866597,6217.729913,8364.327145,-842.705048
206.866918,6365.771101,8216.285956,-995.924147
206.867239,5921.647536,8068.244768,-459.657299
206.867560,5403.503377,7994.224174,-229.828649
206.867881,5181.441594,7698.141797,0.000000
206.868202,4811.338623,7328.038826,-229.828649
206.868523,4885.359217,6883.915261,459.657299
206.868844,4515.256246,7105.977043,689.485948
206.869165,4441.235652,7105.977043,689.485948
206.869486,4589.276840,7179.997637,689.485948
206.869807,4737.318029,7402.059420,383.047749
206.870128,4959.379811,7476.080014,0.000000
206.870449,5329.482782,7476.080014,0.000000
206.870770,5625.565159,7772.162391,0.000000
206.871091,5699.585753,7624.121203,0.000000
206.871413,5773.606348,7624.121203,-383.047749
206.871734,5699.585753,8364.327145,-995.924147
206.872055,6217.729913,8290.306550,-689.485948
206.872376,6217.729913,8734.430116,-1072.533697
206.872697,5995.668130,8734.430116,-612.876398
206.873018,5921.647536,9104.533087,-306.438199
206.873339,5551.544565,9178.553681,-306.438199
206.873660,5033.400406,8734.430116,-306.438199
206.873981,4663.297435,8364.327145,153.219100
206.874302,4219.173869,8290.306550,459.657299
206.874623,3849.070898,7994.224174,995.924147
206.874944,4145.153275,7179.997637,1378.971896
206.875265,3849.070898,7179.997637,689.485948
206.875586,3849.070898,7254.018232,842.705048
206.875907,4145.153275,7105.977043,689.485948
206.876228,4811.338623,7254.018232,153.219100
206.876550,5329.482782,7698.141797,-459.657299
206.876871,5625.565159,7698.141797,-842.705048
206.877192,6143.709319,7846.182985,-1302.362347
206.877513,6513.812290,8068.244768,-1455.581446
206.877834,6365.771101,9104.533087,-1302.362347
206.878155,5403.503377,9178.553681,-1532.190996
206.878476,5921.647536,8956.491898,-1455.581446
206.878797,5625.565159,8882.471304,-689.485948
206.879118,5403.503377,8586.388927,-766.095498
206.879439,4515.256246,8068.244768,-306.438199
206.879760,4515.256246,8068.244768,0.000000
206.880081,4071.132681,7624.121203,459.657299
206.880402,3775.050304,7328.038826,612.876398
206.880723,3552.988522,7254.018232,383.047749
206.881044,3478.967927,7550.100608,1149.143247
206.881366,3775.050304,7920.203579,459.657299
206.881687,4441.235652,8290.306550,229.828649
206.882008,4219.173869,8586.388927,-306.438199
206.882329,4737.318029,8216.285956,-536.266849
206.882650,4885.359217,8364.327145,-612.876398
206.882971,5255.462188,8438.347739,-689.485948
206.883292,5255.462188,8512.368333,-766.095498
206.883613,5107.421000,8956.491898,-612.876398
206.883934,5329.482782,9178.553681,-919.314598
206.884255,5921.647536,9252.574275,-612.876398
206.884576,5551.544565,9030.512492,-536.266849
206.884897,5107.421000,8956.491898,-76.609550
206.885218,4737.318029,8586.388927,0.000000
206.885539,4589.276840,8734.430116,0.000000
206.885860,4737.318029,8364.327145,459.657299
206.886181,4441.235652,8142.265362,612.876398
206.886503,4293.194464,7772.162391,919.314598
206.886824,4219.173869,7476.080014,536.266849
206.887145,4293.194464,7105.977043,766.095498
206.887466,4959.379811,7179.997637,612.876398
206.887787,5551.544565,7179.997637,0.000000
206.888108,5329.482782,7550.100608,-383.047749
206.888429,5699.585753,7772.162391,-842.705048
206.888750,6291.750507,7772.162391,-1149.143247
206.889071,6365.771101,7772.162391,-1149.143247
206.889392,6587.832884,8068.244768,-1225.752797
206.889713,6143.709319,8512.368333,-995.924147
206.890034,5995.668130,8364.327145,-1225.752797
206.890355,5699.585753,8512.368333,-766.095498
206.890676,5403.503377,7772.162391,-153.219100
206.890997,5107.421000,8586.388927,0.000000
206.891319,4737.318029,7994.224174,383.047749
206.891640,4293.194464,7624.121203,383.047749
206.891961,3997.112087,7254.018232,229.828649
206.892282,4071.132681,7105.977043,536.266849
206.892603,3775.050304,7105.977043,766.095498
206.892924,4071.132681,7624.121203,766.095498
206.893245,4293.194464,8142.265362,229.828649
206.893566,4515.256246,7920.203579,0.000000
206.893887,4737.318029,8290.306550,76.609550
206.894208,5329.482782,8290.306550,-306.438199
206.894529,5181.441594,8290.306550,-459.657299
206.894850,5625.565159,8438.347739,-1072.533697
206.895171,5773.606348,7920.203579,-995.924147
206.895492,5847.626942,8364.327145,-536.266849
206.895813,5551.544565,8512.368333,-612.876398
206.896135,5773.606348,8660.409521,-536.266849
206.896456,5773.606348,8808.450710,-536.266849
206.896777,5551.544565,8956.491898,-306.438199
206.897098,4737.318029,8956.491898,-229.828649
206.897419,4737.318029,8290.306550,536.266849
206.897740,4219.173869,8290.306550,689.485948
206.898061,4145.153275,7698.141797,383.047749
206.898382,3997.112087,7772.162391,536.266849
206.898703,3997.112087,7550.100608,842.705048
206.899024,4441.235652,7624.121203,1149.143247
206.899345,4589.276840,7105.977043,689.485948
206.899666,4737.318029,7550.100608,459.657299
206.899987,5107.421000,7624.121203,-306.438199
206.900308,5477.523971,7920.203579,-919.314598
206.900629,6143.709319,8142.265362,-536.266849
206.900950,6439.791695,8364.327145,-1225.752797
206.901272,6513.812290,8216.285956,-919.314598
206.901593,6365.771101,8586.388927,-995.924147
206.901914,5921.647536,8660.409521,-995.924147
206.902235,5995.668130,8364.327145,-612.876398
206.902556,5699.585753,7920.203579,0.000000
206.902877,4959.379811,7698.141797,-76.609550
206.903198,4737.318029,7772.162391,153.219100
206.903519,4441.235652,7328.038826,306.438199
206.903840,4367.215058,7624.121203,459.657299
206.904161,4219.173869,7254.018232,459.657299
206.904482,3627.009116,7254.018232,383.047749
206.904803,4145.153275,7994.224174,612.876398
206.905124,4145.153275,8068.244768,229.828649
206.905445,4515.256246,8290.306550,-383.047749
206.905766,4737.318029,8290.306550,-229.828649
206.906088,4811.338623,8290.306550,-459.657299
206.906409,5181.441594,8290.306550,-766.095498
206.906730,5033.400406,8734.430116,-459.657299
206.907051,5181.441594,8734.430116,-383.047749
206.907372,5107.421000,8660.409521,-842.705048
206.907693,5329.482782,8734.430116,-612.876398
206.908014,5329.482782,9030.512492,-612.876398
206.908335,5477.523971,8956.491898,-306.438199
206.908656,5033.400406,8660.409521,-153.219100
206.908977,4737.318029,8586.388927,0.000000
206.909298,4663.297435,8290.306550,383.047749
206.909619,4441.235652,8142.265362,306.438199
206.909940,3849.070898,8142.265362,612.876398
206.910261,3997.112087,7772.162391,383.047749
206.910582,4367.215058,7105.977043,536.266849
206.910903,4589.276840,7254.018232,766.095498
206.911225,4737.318029,7402.059420,229.828649
206.911546,5181.441594,7254.018232,76.609550
206.911867,5477.523971,7624.121203,-536.266849
206.912188,5847.626942,7772.162391,-766.095498
206.912509,6143.709319,7698.141797,-1225.752797
206.912830,6069.688724,8216.285956,-1225.752797
206.913151,6069.688724,8364.327145,-995.924147
206.913472,5699.585753,8438.347739,-766.095498
206.913793,5699.585753,8142.265362,-689.485948
206.914114,5329.482782,8364.327145,-459.657299
206.914435,5107.421000,7920.203579,-153.219100
206.914756,4811.338623,7846.182985,919.314598
206.915077,4589.276840,7772.162391,536.266849
206.915398,4367.215058,7624.121203,612.876398
206.915719,3997.112087,7550.100608,306.438199
206.916041,4293.194464,7402.059420,306.438199
206.916362,4293.194464,7772.162391,689.485948
206.916683,4219.173869,7920.203579,459.657299
206.917004,4145.153275,7920.203579,229.828649
206.917325,4589.276840,7994.224174,-306.438199
206.917646,4737.318029,8290.306550,-689.485948
206.917967,4885.359217,8512.368333,-153.219100
206.918288,5033.400406,8660.409521,-612.876398
206.918609,5033.400406,8586.388927,-919.314598
206.918930,4959.379811,8660.409521,-766.095498
206.919251,5181.441594,8882.471304,-383.047749
206.919572,5107.421000,9104.533087,-153.219100
206.919893,5181.441594,9326.594869,-306.438199
206.920214,4589.276840,9400.615463,0.000000
206.920535,4589.276840,8956.491898,0.000000
206.920857,4293.194464,8660.409521,229.828649
206.921178,4441.235652,8216.285956,153.219100
206.921499,3923.091493,8290.306550,689.485948
206.921820,4071.132681,7624.121203,689.485948
206.922141,4071.132681,7476.080014,383.047749
206.922462,4219.173869,7105.977043,919.314598
206.922783,4663.297435,7105.977043,766.095498
206.923104,4885.359217,7105.977043,383.047749
206.923425,5699.585753,7328.038826,-229.828649
206.923746,5773.606348,7402.059420,-536.266849
206.924067,6365.771101,7328.038826,-842.705048
206.924388,6809.894666,7402.059420,-842.705048
206.924709,6957.935855,7624.121203,-1378.971896
206.925030,6587.832884,7994.224174,-1302.362347
206.925351,6513.812290,7846.182985,-1302.362347
206.925672,6217.729913,8142.265362,-995.924147
206.925994,5995.668130,7994.224174,-306.438199
206.926315,5847.626942,7698.141797,-689.485948
206.926636,5403.503377,7772.162391,-459.657299
206.926957,4811.338623,7476.080014,-153.219100
206.927278,4811.338623,7624.121203,0.000000
206.927599,4219.173869,7105.977043,536.266849
206.927920,4219.173869,7179.997637,612.876398
206.928241,4071.132681,7476.080014,459.657299
206.928562,4441.235652,8068.244768,536.266849
206.928883,4441.235652,8216.285956,0.000000
206.929204,4663.297435,8068.244768,0.000000
206.929525,4959.379811,8290.306550,0.000000
206.929846,5107.421000,8216.285956,-383.047749
206.930167,5107.421000,8290.306550,-536.266849
206.930488,4811.338623,8808.450710,-689.485948
206.930810,5329.482782,8734.430116,-766.095498
206.931131,5403.503377,9104.533087,-612.876398
206.931452,5477.523971,9178.553681,-536.266849
206.931773,5551.544565,8956.491898,383.047749
206.932094,4811.338623,9326.594869,-459.657299
206.932415,4663.297435,8882.471304,0.000000
206.932736,4441.235652,8734.430116,0.000000
206.933057,4145.153275,8734.430116,153.219100
206.933378,3997.112087,8216.285956,536.266849
206.933699,3849.070898,7846.182985,0.000000
206.934020,4219.173869,7402.059420,689.485948
206.934341,4145.153275,7550.100608,536.266849
206.934662,4589.276840,7476.080014,459.657299
206.934983,4885.359217,7328.038826,153.219100
206.935304,4885.359217,7624.121203,-689.485948
206.935625,5699.585753,7698.141797,-689.485948
206.935947,5921.647536,8512.368333,-1072.533697
206.936268,6069.688724,8290.306550,-1455.581446
206.936589,6217.729913,8216.285956,-1149.143247
206.936910,6069.688724,8290.306550,-1149.143247
206.937231,5773.606348,8142.265362,-766.095498
206.937552,5403.503377,8216.285956,-536.266849
206.937873,4959.379811,8216.285956,-229.828649
206.938194,5033.400406,8142.265362,0.000000
206.938515,4589.276840,7994.224174,153.219100
206.938836,4589.276840,7846.182985,0.000000
206.939157,4219.173869,7698.141797,383.047749
206.939478,3923.091493,7179.997637,689.485948
206.939799,4367.215058,7105.977043,536.266849
206.940120,4293.194464,7698.141797,459.657299
206.940441,4293.194464,7698.141797,0.000000
206.940763,4589.276840,7994.224174,-229.828649
206.941084,4959.379811,8216.285956,-766.095498
206.941405,5403.503377,8290.306550,-459.657299
206.941726,5625.565159,7772.162391,-153.219100
206.942047,5995.668130,8142.265362,-536.266849
206.942368,5551.544565,8142.265362,-766.095498
206.942689,5995.668130,8290.306550,-766.095498
206.943010,5625.565159,8512.368333,-459.657299
206.943331,5847.626942,8808.450710,-842.705048
206.943652,5551.544565,8512.368333,-229.828649
206.943973,5107.421000,8882.471304,0.000000
206.944294,4663.297435,8364.327145,0.000000
206.944615,4589.276840,8142.265362,383.047749
206.944936,4441.235652,8290.306550,383.047749
206.945257,4071.132681,7920.203579,383.047749
206.945578,4367.215058,7920.203579,383.047749
206.945900,4293.194464,7476.080014,919.314598
206.946221,4293.194464,7254.018232,995.924147
206.946542,4663.297435,7254.018232,536.266849
206.946863,4885.359217,7402.059420,0.000000
206.947184,5403.503377,7550.100608,-689.485948
206.947505,6217.729913,7550.100608,-689.485948
206.947826,6735.874072,7476.080014,-842.705048
206.948147,6735.874072,7846.182985,-1225.752797
206.948468,6513.812290,8364.327145,-1455.581446
206.948789,5995.668130,8364.327145,-1225.752797
206.949110,6143.709319,8364.327145,-1072.533697
206.949431,5847.626942,8142.265362,-536.266849
206.949752,5477.523971,8068.244768,-459.657299
206.950073,4885.359217,7772.162391,-229.828649
206.950394,4293.194464,7698.141797,0.000000
206.950716,4293.194464,7328.038826,76.609550
206.951037,3997.112087,7254.018232,229.828649
206.951358,4071.132681,7179.997637,689.485948
206.951679,4145.153275,7550.100608,842.705048
206.952000,4219.173869,7772.162391,383.047749
206.952321,3997.112087,8142.265362,536.266849
206.952642,4441.235652,8142.265362,-229.828649
206.952963,4663.297435,8142.265362,-536.266849
206.953284,4959.379811,8216.285956,-383.047749
206.953605,4959.379811,8734.430116,-536.266849
206.953926,5181.441594,8660.409521,-766.095498
206.954247,5255.462188,9030.512492,-612.876398
206.954568,5181.441594,9030.512492,-459.657299
206.954889,5107.421000,8882.471304,-766.095498
206.955210,5181.441594,9474.636058,-689.485948
206.955531,5033.400406,8734.430116,0.000000
206.955852,4885.359217,8586.388927,0.000000
206.956173,4589.276840,8438.347739,153.219100
206.956494,4737.318029,8364.327145,689.485948
206.956815,4071.132681,7920.203579,459.657299
206.957136,4219.173869,7328.038826,766.095498
206.957457,4367.215058,7105.977043,459.657299
206.957778,4589.276840,7105.977043,842.705048
206.958099,4885.359217,7105.977043,229.828649
206.958420,5329.482782,7254.018232,153.219100
206.958741,5773.606348,7624.121203,-612.876398
206.959062,6513.812290,7624.121203,-919.314598
206.959383,6513.812290,7846.182985,-1302.362347
206.959704,6439.791695,7994.224174,-1225.752797
206.960025,6513.812290,8216.285956,-1225.752797
206.960346,6513.812290,8290.306550,-919.314598
206.960667,5995.668130,8438.347739,-919.314598
206.960988,5699.585753,8438.347739,0.000000
206.961309,5477.523971,8512.368333,-459.657299
206.961630,4959.379811,7772.162391,153.219100
206.961951,4885.359217,7698.141797,0.000000
206.962272,4293.194464,7550.100608,459.657299
206.962593,4145.153275,7550.100608,536.266849
206.962914,3849.070898,7179.997637,689.485948
206.963235,3997.112087,7476.080014,766.095498
206.963556,4145.153275,7920.203579,536.266849
206.963877,4367.215058,7920.203579,153.219100
206.964198,4367.215058,8142.265362,76.609550
206.964519,4959.379811,7698.141797,-306.438199
206.964840,4885.359217,7772.162391,-76.609550
206.965161,5181.441594,8142.265362,-536.266849
206.965482,5255.462188,7920.203579,-919.314598
206.965803,5551.544565,8142.265362,-919.314598
206.966124,5551.544565,8290.306550,-689.485948
206.966445,5773.606348,8364.327145,-383.047749
206.966766,5773.606348,8808.450710,-842.705048
206.967087,5773.606348,8512.368333,-536.266849
206.967408,5403.503377,8808.450710,-689.485948
206.967729,4663.297435,8882.471304,76.609550
206.968050,4811.338623,8364.327145,-306.438199
206.968371,4293.194464,8364.327145,383.047749
206.968692,3849.070898,8068.244768,689.485948
206.969013,3627.009116,8142.265362,229.828649
206.969334,3552.988522,7624.121203,766.095498
206.969655,4071.132681,7550.100608,766.095498
206.969976,4219.173869,7402.059420,766.095498
206.970297,4663.297435,7550.100608,229.828649
206.970618,4737.318029,7994.224174,-612.876398
206.970939,5403.503377,8142.265362,-766.095498
206.971260,5847.626942,7994.224174,-1225.752797
206.971581,5995.668130,8438.347739,-995.924147
206.971902,5921.647536,8586.388927,-995.924147
206.972223,6217.729913,8882.471304,76.609550
206.972544,5625.565159,8808.450710,-766.095498
206.972865,5329.482782,8660.409521,-612.876398
206.973186,5181.441594,8660.409521,-153.219100
206.973507,4737.318029,8364.327145,153.219100
206.973828,4293.194464,7772.162391,153.219100
206.974149,4219.173869,8068.244768,536.266849
206.974470,4071.132681,7994.224174,536.266849
206.974791,4219.173869,7402.059420,842.705048
206.975112,4071.132681,7476.080014,459.657299
206.975433,3997.112087,7920.203579,536.266849
206.975754,4515.256246,8142.265362,0.000000
206.976075,4811.338623,8216.285956,0.000000
206.976396,5107.421000,8068.244768,-766.095498
206.976717,5033.400406,8364.327145,-383.047749
206.977038,5181.441594,8068.244768,-689.485948
206.977359,5625.565159,8290.306550,-536.266849
206.977680,5403.503377,8068.244768,-383.047749
206.978001,5625.565159,8438.347739,-842.705048
206.978322,5551.544565,8734.430116,-536.266849
206.978643,5847.626942,8586.388927,-766.095498
206.978964,5403.503377,8734.430116,-229.828649
206.979285,4959.379811,8438.347739,-229.828649
206.979606,4737.318029,8068.244768,-153.219100
206.979927,4811.338623,7994.224174,153.219100
206.980248,4589.276840,7920.203579,842.705048
206.980569,4219.173869,7624.121203,153.219100
206.980890,3997.112087,7328.038826,459.657299
206.981211,4293.194464,7031.956449,766.095498
206.981532,4515.256246,6957.935855,842.705048
206.981853,4515.256246,7105.977043,383.047749
206.982174,5181.441594,7254.018232,-306.438199
206.982495,5625.565159,7402.059420,-689.485948
206.982816,5995.668130,7550.100608,-1225.752797
206.983137,6365.771101,8142.265362,-1378.971896
206.983458,6513.812290,7846.182985,-919.314598
206.983779,6217.729913,8364.327145,-1532.190996
206.984100,6143.709319,8438.347739,-1225.752797
206.984421,6069.688724,8216.285956,-459.657299
206.984742,5551.544565,8660.409521,-689.485948
206.985063,5181.441594,8068.244768,-306.438199
206.985384,4959.379811,7920.203579,-229.828649
206.985705,4367.215058,7846.182985,76.609550
206.986026,4293.194464,7624.121203,153.219100
206.986347,4293.194464,7476.080014,383.047749
206.986668,4515.256246,7698.141797,459.657299
206.986989,3997.112087,7624.121203,766.095498
206.987310,4071.132681,8216.285956,1302.362347
206.987631,4367.215058,8216.285956,229.828649
206.987952,4811.338623,8290.306550,-229.828649
206.988273,4959.379811,8142.265362,0.000000
206.988594,5033.400406,8512.368333,-536.266849
206.988915,4959.379811,8512.368333,-919.314598
206.989236,5255.462188,8512.368333,-612.876398
206.989557,5329.482782,8512.368333,-612.876398
206.989878,5403.503377,8660.409521,-842.705048
206.990199,5625.565159,8956.491898,-612.876398
206.990520,5625.565159,9252.574275,-612.876398
206.990841,4811.338623,9104.533087,-306.438199
206.991162,4737.318029,9030.512492,0.000000
206.991483,4219.173869,8882.471304,153.219100
206.991804,4071.132681,8586.388927,76.609550
206.992125,3923.091493,7920.203579,459.657299
206.992446,3701.029710,7772.162391,766.095498
206.992767,3552.988522,7624.121203,459.657299
206.993088,3701.029710,7328.038826,842.705048
206.993409,4219.173869,7254.018232,536.266849
206.993730,4737.318029,7105.977043,536.266849
206.994051,4959.379811,7550.100608,0.000000
206.994372,5625.565159,7698.141797,-459.657299
206.994693,6291.750507,7624.121203,-995.924147
206.995014,6661.853478,7772.162391,-1302.362347
206.995335,6735.874072,7994.224174,-1225.752797
206.995656,6439.791695,7920.203579,-995.924147
206.995977,6291.750507,8290.306550,-1225.752797
206.996298,6143.709319,8142.265362,-689.485948
206.996619,5699.585753,8068.244768,-842.705048
206.996940,5551.544565,7698.141797,-689.485948
206.997261,5033.400406,7402.059420,76.609550
206.997582,4737.318029,7328.038826,0.000000
206.997903,4293.194464,7402.059420,459.657299
206.998224,3552.988522,7402.059420,612.876398
206.998545,4071.132681,7476.080014,842.705048
206.998866,4145.153275,7698.141797,766.095498
206.999187,4367.215058,7772.162391,536.266849
206.999508,4219.173869,8290.306550,229.828649
206.999829,4737.318029,8364.327145,-153.219100
207.000150,4959.379811,8068.244768,-383.047749
207.000471,5255.462188,7994.224174,-842.705048
207.000793,5255.462188,8364.327145,-459.657299
207.001114,5329.482782,8512.368333,-612.876398
207.001435,5329.482782,8956.491898,-229.828649
207.001756,5625.565159,9104.533087,-766.095498
207.002077,5699.585753,8882.471304,-612.876398
207.002398,5477.523971,8882.471304,-153.219100
207.002719,5107.421000,8956.491898,-229.828649
207.003040,4811.338623,9178.553681,0.000000
207.003361,4737.318029,8660.409521,383.047749
207.003682,4589.276840,8290.306550,229.828649
207.004003,4367.215058,7920.203579,536.266849
207.004324,4219.173869,7476.080014,459.657299
207.004645,4145.153275,7624.121203,229.828649
207.004966,4293.194464,7254.018232,536.266849
207.005287,4589.276840,7328.038826,383.047749
207.005608,4885.359217,7402.059420,-153.219100
207.005929,5255.462188,7698.141797,-612.876398
207.006250,5625.565159,7994.224174,-612.876398
207.006571,5921.647536,8290.306550,-1072.533697
207.006892,6143.709319,8586.388927,-1302.362347
207.007213,5995.668130,8660.409521,-1225.752797
207.007534,5699.585753,8734.430116,-919.314598
207.007855,5255.462188,8586.388927,-306.438199
207.008176,5255.462188,8438.347739,-229.828649
207.008497,5033.400406,8512.368333,-76.609550
207.008818,4663.297435,7994.224174,229.828649
207.009139,4515.256246,7772.162391,459.657299
207.009460,4589.276840,7476.080014,766.095498
207.009781,4071.132681,7402.059420,842.705048
207.010102,4219.173869,7179.997637,1225.752797
207.010423,4367.215058,7105.977043,766.095498
207.010744,4589.276840,7328.038826,995.924147
207.011065,4589.276840,7698.141797,459.657299
207.011386,4959.379811,7772.162391,0.000000
207.011707,5181.441594,7772.162391,-612.876398
207.012028,5625.565159,7846.182985,-919.314598
207.012349,5773.606348,7772.162391,-689.485948
207.012670,5773.606348,8290.306550,-842.705048
207.012991,5699.585753,8290.306550,-536.266849
207.013312,5699.585753,8512.368333,-919.314598
207.013633,5551.544565,8660.409521,-612.876398
207.013954,5477.523971,8734.430116,-383.047749
207.014275,5403.503377,8660.409521,-229.828649
207.014596,4811.338623,8512.368333,0.000000
207.014917,4885.359217,7846.182985,0.000000
207.015238,4811.338623,7920.203579,459.657299
207.015559,4367.215058,8068.244768,459.657299
207.015880,4293.194464,7550.100608,459.657299
207.016201,3701.029710,7254.018232,612.876398
207.016522,4293.194464,7105.977043,689.485948
207.016843,4663.297435,7105.977043,1072.533697
207.017164,5107.421000,7031.956449,383.047749
207.017485,5329.482782,7624.121203,0.000000
207.017806,5699.585753,7846.182985,-766.095498
207.018127,6291.750507,7994.224174,-995.924147
207.018448,6735.874072,7920.203579,-1072.533697
207.018769,6883.915261,8068.244768,-689.485948
207.019090,6143.709319,8660.409521,-1149.143247
207.019411,6217.729913,8660.409521,-1225.752797
207.019732,5773.606348,8586.388927,-766.095498
207.020053,5329.482782,8290.306550,-383.047749
207.020374,4959.379811,8216.285956,0.000000
207.020695,4885.359217,8068.244768,-383.047749
207.021016,4293.194464,8290.306550,76.609550
207.021337,4219.173869,7994.224174,306.438199
207.021658,4219.173869,7698.141797,919.314598
207.021979,3627.009116,7994.224174,306.438199
207.022300,4219.173869,7624.121203,383.047749
207.022621,3775.050304,8216.285956,459.657299
207.022942,4145.153275,8216.285956,0.000000
207.023263,4441.235652,8290.306550,-459.657299
207.023584,4959.379811,8142.265362,-612.876398
207.023905,4959.379811,8512.368333,-842.705048
207.024226,5107.421000,8438.347739,-612.876398
207.024547,5255.462188,8364.327145,-919.314598
207.024868,5551.544565,8956.491898,-842.705048
207.025189,5551.544565,8586.388927,-383.047749
207.025510,5403.503377,8660.409521,-76.609550
207.025831,5773.606348,8660.409521,-76.609550
207.026152,5403.503377,8660.409521,-536.266849
207.026473,4959.379811,8808.450710,229.828649
207.026794,4663.297435,8290.306550,0.000000
207.027115,4441.235652,7994.224174,383.047749
207.027436,4145.153275,7920.203579,153.219100
207.027757,3849.070898,7550.100608,459.657299
207.028078,3997.112087,7328.038826,306.438199
207.028399,4367.215058,7328.038826,383.047749
207.028720,4367.215058,7550.100608,612.876398
207.029041,4737.318029,7402.059420,153.219100
207.029362,5107.421000,7772.162391,-612.876398
207.029683,5921.647536,7772.162391,-842.705048
207.030004,6439.791695,7846.182985,-919.314598
207.030325,6587.832884,7920.203579,-1302.362347
207.030646,6513.812290,8142.265362,-1225.752797
207.030967,6587.832884,8216.285956,-459.657299
207.031288,6587.832884,8142.265362,-689.485948
207.031609,5921.647536,7920.203579,-689.485948
207.031930,5551.544565,7772.162391,0.000000
207.032251,5255.462188,7994.224174,-153.219100
207.032572,4885.359217,7994.224174,229.828649
207.032893,4737.318029,7846.182985,459.657299
207.033214,4737.318029,7550.100608,612.876398
207.033535,4589.276840,7476.080014,919.314598
207.033856,4071.132681,7698.141797,689.485948
207.034177,4293.194464,7994.224174,689.485948
207.034498,4515.256246,7550.100608,612.876398
207.034819,4515.256246,8216.285956,0.000000
207.035140,4515.256246,8068.244768,0.000000
207.035461,4959.379811,8216.285956,-306.438199
207.035782,5033.400406,8364.327145,-536.266849
207.036103,4885.359217,8290.306550,-1072.533697
207.036424,5255.462188,8364.327145,-842.705048
207.036745,5181.441594,8808.450710,-459.657299
207.037066,5329.482782,8512.368333,-459.657299
207.037387,5181.441594,8734.430116,-306.438199
207.037708,5107.421000,9104.533087,-536.266849
207.038029,4737.318029,9030.512492,-153.219100
207.038350,4293.194464,8364.327145,-76.609550
207.038671,4663.297435,7846.182985,0.000000
207.038992,4145.153275,8142.265362,383.047749
207.039313,3923.091493,8142.265362,459.657299
207.039634,3552.988522,7772.162391,612.876398
207.039955,3701.029710,7698.141797,229.828649
207.040276,4071.132681,7402.059420,689.485948
207.040597,4219.173869,7402.059420,612.876398
207.040918,4959.379811,7624.121203,0.000000
207.041239,5033.400406,7772.162391,-766.095498
207.041560,5625.565159,7846.182985,-766.095498
207.041881,6513.812290,7846.182985,-995.924147
207.042202,6513.812290,7920.203579,-842.705048
207.042523,6513.812290,8216.285956,-1072.533697
207.042844,6069.688724,8586.388927,-766.095498
207.043165,5699.585753,8438.347739,-766.095498
207.043486,5699.585753,8364.327145,-842.705048
207.043807,5551.544565,8290.306550,-612.876398
207.044128,5181.441594,7994.224174,-229.828649
207.044449,4737.318029,8068.244768,-383.047749
207.044770,4515.256246,8142.265362,229.828649
207.045091,4589.276840,7476.080014,612.876398
207.045412,4589.276840,7476.080014,842.705048
207.045733,4441.235652,7624.121203,919.314598
207.046054,4441.235652,7846.182985,612.876398
207.046375,4441.235652,7772.162391,919.314598
207.046696,4737.318029,7846.182985,0.000000
207.047017,5107.421000,7994.224174,-306.438199
207.047338,5403.503377,7920.203579,-383.047749
207.047659,5551.544565,7846.182985,-919.314598
207.047980,6143.709319,7920.203579,-306.438199
207.048301,5921.647536,8290.306550,-536.266849
207.048622,5995.668130,8142.265362,-612.876398
207.048943,5847.626942,8586.388927,-689.485948
207.049264,5699.585753,8734.430116,-459.657299
207.049585,5625.565159,8882.471304,-229.828649
207.049906,4885.359217,8808.450710,-383.047749
207.050227,4811.338623,8216.285956,0.000000
207.050548,4663.297435,8068.244768,-229.828649
207.050869,4367.215058,7698.141797,0.000000
207.051190,3701.029710,7772.162391,383.047749
207.051511,3997.112087,7254.018232,153.219100
207.051832,4071.132681,7105.977043,842.705048
207.052153,4071.132681,7179.997637,612.876398
207.052474,4441.235652,7328.038826,153.219100
207.052795,4811.338623,7179.997637,-459.657299
207.053116,5181.441594,7624.121203,-536.266849
207.053437,5625.565159,7994.224174,-766.095498
207.053758,6291.750507,7920.203579,-995.924147
207.054079,6069.688724,8586.388927,-919.314598
207.054400,5773.606348,8290.306550,-1225.752797
207.054721,5847.626942,8364.327145,-689.485948
207.055042,5551.544565,8512.368333,-459.657299
207.055363,5477.523971,8216.285956,-383.047749
207.055684,4515.256246,8364.327145,229.828649
207.056005,4737.318029,8142.265362,76.609550
207.056326,4441.235652,7624.121203,306.438199
207.056647,4367.215058,7624.121203,689.485948
207.056968,3923.091493,7624.121203,1149.143247
207.057289,4145.153275,7624.121203,995.924147
207.057610,4145.153275,7550.100608,612.876398
207.057931,4441.235652,7698.141797,689.485948
207.058252,4515.256246,8216.285956,0.000000
207.058573,4737.318029,8142.265362,-153.219100
207.058894,4885.359217,8216.285956,-229.828649
207.059215,5329.482782,8438.347739,-766.095498
207.059537,5329.482782,8290.306550,-689.485948
207.059858,5551.544565,8660.409521,-766.095498
207.060179,5477.523971,8808.450710,-459.657299
207.060500,5477.523971,8882.471304,-306.438199
207.060821,5699.585753,9030.512492,-612.876398
207.061142,5329.482782,8808.450710,-612.876398
207.061463,5181.441594,9030.512492,-689.485948
207.061784,4737.318029,8586.388927,-306.438199
207.062105,4293.194464,8364.327145,0.000000
207.062426,4663.297435,8216.285956,383.047749
207.062747,4293.194464,7698.141797,842.705048
207.063068,4145.153275,7476.080014,459.657299
207.063389,3775.050304,7328.038826,995.924147
207.063710,4589.276840,7105.977043,1149.143247
207.064031,4885.359217,7179.997637,612.876398
207.064352,5181.441594,6957.935855,76.609550
207.064673,5625.565159,7328.038826,-536.266849
207.064994,6291.750507,8068.244768,-1072.533697
207.065315,6735.874072,7772.162391,-1225.752797
207.065636,6883.915261,7994.224174,-1225.752797
207.065957,6661.853478,8290.306550,-1378.971896
207.066278,6365.771101,8290.306550,-1225.752797
207.066599,5995.668130,8438.347739,-919.314598
207.066920,5847.626942,8142.265362,-689.485948
207.067241,5403.503377,8364.327145,-383.047749
207.067562,4737.318029,8290.306550,-153.219100
207.067883,4367.215058,7994.224174,-383.047749
207.068204,3775.050304,7846.182985,459.657299
207.068525,3849.070898,7772.162391,536.266849
207.068846,3701.029710,7698.141797,919.314598
207.069167,3701.029710,7550.100608,842.705048
207.069488,3701.029710,7772.162391,766.095498
207.069809,3923.091493,8290.306550,919.314598
207.070130,4515.256246,8290.306550,0.000000
207.070451,4515.256246,7994.224174,-229.828649
207.070772,5033.400406,8216.285956,-612.876398
207.071093,5329.482782,7994.224174,-306.438199
207.071414,5403.503377,8438.347739,-995.924147
207.071735,5847.626942,8660.409521,-689.485948
207.072056,5847.626942,8734.430116,-383.047749
207.072377,5551.544565,8734.430116,-459.657299
207.072698,5773.606348,8660.409521,-689.485948
207.073019,5551.544565,8882.471304,-459.657299
207.073340,5255.462188,8586.388927,0.000000
207.073661,5181.441594,8438.347739,-383.047749
207.073982,4737.318029,8512.368333,0.000000
207.074303,4367.215058,8068.244768,0.000000
207.074624,3775.050304,8068.244768,459.657299
207.074945,3701.029710,7772.162391,689.485948
207.075267,3923.091493,7624.121203,842.705048
207.075588,4219.173869,7476.080014,919.314598
207.075909,4219.173869,7328.038826,459.657299
207.076230,4589.276840,7402.059420,-153.219100
207.076551,4885.359217,7846.182985,-536.266849
207.076872,5773.606348,7920.203579,-689.485948
207.077193,5551.544565,8438.347739,-689.485948
207.077514,6143.709319,8290.306550,-612.876398
207.077835,6143.709319,8364.327145,-1225.752797
207.078156,5995.668130,8438.347739,-459.657299
207.078477,5921.647536,8216.285956,-76.609550
207.078798,5551.544565,7920.203579,-383.047749
207.079119,5477.523971,7920.203579,0.000000
207.079440,5255.462188,7624.121203,0.000000
207.079761,4885.359217,7846.182985,153.219100
207.080082,4737.318029,7550.100608,306.438199
207.080403,4663.297435,7698.141797,153.219100
207.080724,4441.235652,7105.977043,229.828649
207.081045,4589.276840,7179.997637,229.828649
207.081366,4589.276840,7624.121203,229.828649
207.081687,4441.235652,8142.265362,0.000000
207.082008,4589.276840,8068.244768,-229.828649
207.082329,5033.400406,8216.285956,-536.266849
207.082650,5181.441594,8290.306550,-995.924147
207.082971,5181.441594,8216.285956,-842.705048
207.083292,5477.523971,8216.285956,-459.657299
207.083613,5255.462188,8586.388927,-689.485948
207.083934,5329.482782,8734.430116,-766.095498
207.084255,5551.544565,8734.430116,-459.657299
207.084576,5477.523971,8734.430116,-459.657299
207.084897,5107.421000,8956.491898,-153.219100
207.085218,4737.318029,8808.450710,-153.219100
207.085539,4441.235652,8512.368333,0.000000
207.085860,4293.194464,8216.285956,383.047749
207.086181,4145.153275,8068.244768,536.266849
207.086502,3997.112087,7698.141797,766.095498
207.086823,4145.153275,7254.018232,612.876398
207.087144,4145.153275,7402.059420,459.657299
207.087465,4293.194464,7624.121203,306.438199
207.087786,4737.318029,7550.100608,153.219100
207.088107,5773.606348,7624.121203,-689.485948
207.088428,5847.626942,7624.121203,-766.095498
207.088749,6365.771101,7772.162391,-995.924147
207.089070,6735.874072,7994.224174,-919.314598
207.089391,6143.709319,8512.368333,-995.924147
207.089712,6587.832884,8290.306550,-842.705048
207.090033,5995.668130,8438.347739,-1532.190996
207.090354,5477.523971,8364.327145,-766.095498
207.090675,5033.400406,8364.327145,-536.266849
207.090997,4959.379811,8290.306550,-383.047749
207.091318,4663.297435,8364.327145,-153.219100
207.091639,4219.173869,7994.224174,0.000000
207.091960,3997.112087,8290.306550,153.219100
207.092281,4071.132681,7920.203579,612.876398
207.092602,3627.009116,8142.265362,612.876398
207.092923,3923.091493,7772.162391,842.705048
207.093244,3997.112087,7920.203579,536.266849
207.093565,3997.112087,8068.244768,76.609550
207.093886,4589.276840,7994.224174,0.000000
207.094207,5033.400406,8068.244768,0.000000
207.094528,5033.400406,8512.368333,-459.657299
207.094849,5181.441594,8364.327145,-459.657299
207.095170,5625.565159,8438.347739,-459.657299
207.095491,5625.565159,8734.430116,-229.828649
207.095812,5625.565159,8734.430116,-459.657299
207.096133,5995.668130,8216.285956,-536.266849
207.096454,5773.606348,8882.471304,-153.219100
207.096775,5477.523971,8586.388927,0.000000
207.097096,5033.400406,8290.306550,0.000000
207.097417,4737.318029,8364.327145,-76.609550
207.097738,4367.215058,8216.285956,76.609550
207.098059,4219.173869,7624.121203,383.047749
207.098380,3775.050304,7105.977043,229.828649
207.098701,4367.215058,6809.894666,842.705048
207.099022,4293.194464,7105.977043,1072.533697
207.099343,4589.276840,7105.977043,459.657299
207.099664,4589.276840,7105.977043,-306.438199
207.099985,5403.503377,7328.038826,-383.047749
207.100306,5995.668130,7402.059420,-766.095498
207.100627,6217.729913,7328.038826,-689.485948
207.100948,6661.853478,7772.162391,-1302.362347
207.101269,6587.832884,7846.182985,-1149.143247
207.101590,6365.771101,8216.285956,-1378.971896
207.101911,6217.729913,7920.203579,-842.705048
207.102232,5921.647536,8438.347739,-536.266849
207.102553,5403.503377,8438.347739,-612.876398
207.102874,5107.421000,8142.265362,-612.876398
207.103195,4885.359217,7698.141797,-153.219100
207.103516,4663.297435,7328.038826,76.609550
207.103837,4367.215058,7476.080014,229.828649
207.104158,4367.215058,7179.997637,612.876398
207.104479,4145.153275,7624.121203,919.314598
207.104800,4145.153275,8216.285956,766.095498
207.105121,4293.194464,8142.265362,0.000000
207.105442,4811.338623,8068.244768,0.000000
207.105763,4737.318029,8290.306550,-766.095498
207.106084,4737.318029,8290.306550,-612.876398
207.106405,4811.338623,8290.306550,-689.485948
207.106727,5181.441594,8438.347739,-612.876398
207.107048,5477.523971,8956.491898,-766.095498
207.107369,5403.503377,9030.512492,-766.095498
207.107690,5329.482782,9400.615463,-612.876398
207.108011,5329.482782,9178.553681,-689.485948
207.108332,4959.379811,9622.677246,-612.876398
207.108653,4441.235652,9548.656652,0.000000
207.108974,3997.112087,9030.512492,0.000000
207.109295,4071.132681,8808.450710,383.047749
207.109616,3849.070898,8512.368333,306.438199
207.109937,3923.091493,8290.306550,153.219100
207.110258,3404.947333,7920.203579,612.876398
207.110579,3552.988522,7550.100608,1072.533697
207.110900,3997.112087,7254.018232,1225.752797
207.111221,4515.256246,7476.080014,689.485948
207.111542,4737.318029,7624.121203,76.609550
207.111863,5033.400406,7550.100608,-536.266849
207.112184,5995.668130,7846.182985,-689.485948
207.112505,6735.874072,7698.141797,-995.924147
207.112826,6513.812290,8216.285956,-842.705048
207.113147,6439.791695,8216.285956,-995.924147
207.113468,6439.791695,8290.306550,-1225.752797
207.113789,5921.647536,7920.203579,-919.314598
207.114110,5625.565159,7920.203579,-919.314598
207.114431,5403.503377,7772.162391,0.000000
207.114752,5181.441594,7476.080014,-383.047749
207.115073,4515.256246,7328.038826,-306.438199
207.115394,4663.297435,7105.977043,306.438199
207.115715,4367.215058,7254.018232,536.266849
207.116036,4293.194464,7105.977043,919.314598
207.116357,4145.153275,7476.080014,995.924147
207.116678,4441.235652,7402.059420,612.876398
207.116999,4589.276840,7402.059420,229.828649
207.117320,4589.276840,7328.038826,76.609550
207.117641,5255.462188,7772.162391,-229.828649
207.117962,5551.544565,7550.100608,-383.047749
207.118283,5699.585753,7920.203579,-612.876398
207.118604,5773.606348,8142.265362,-766.095498
207.118925,6069.688724,8512.368333,-306.438199
207.119246,5625.565159,8512.368333,-383.047749
207.119567,5921.647536,8808.450710,-459.657299
207.119888,6069.688724,8882.471304,-766.095498
207.120209,5625.565159,8734.430116,-459.657299
207.120530,4737.318029,8808.450710,0.000000
207.120851,4737.318029,8660.409521,0.000000
207.121172,4219.173869,8438.347739,0.000000
207.121493,3997.112087,8438.347739,383.047749
207.121814,3849.070898,7920.203579,0.000000
207.122136,3923.091493,7402.059420,306.438199
207.122457,3849.070898,7476.080014,766.095498
207.122778,3997.112087,7624.121203,842.705048
207.123099,4737.318029,7476.080014,229.828649
207.123420,4959.379811,7846.182985,-459.657299
207.123741,5403.503377,8290.306550,-153.219100
207.124062,6143.709319,8142.265362,-842.705048
207.124383,6439.791695,8660.409521,-1149.143247
207.124704,6069.688724,8512.368333,-1302.362347
207.125025,5625.565159,8808.450710,-995.924147
207.125346,6365.771101,8660.409521,-612.876398
207.125667,5699.585753,8586.388927,-766.095498
207.125988,5329.482782,8364.327145,-229.828649
207.126309,4885.359217,8290.306550,-153.219100
207.126630,4663.297435,8142.265362,-76.609550
207.126951,4663.297435,7772.162391,153.219100
207.127272,4293.194464,7624.121203,536.266849
207.127593,3923.091493,7179.997637,536.266849
207.127914,3923.091493,7328.038826,689.485948
207.128235,4071.132681,7328.038826,919.314598
207.128556,4441.235652,7698.141797,842.705048
207.128877,4589.276840,7772.162391,-229.828649
207.129198,4737.318029,7772.162391,-842.705048
207.129519,5181.441594,7920.203579,-766.095498
207.129840,5181.441594,8068.244768,-919.314598
207.130161,5773.606348,8216.285956,-1072.533697
207.130482,5847.626942,8142.265362,-689.485948
207.130803,5847.626942,8512.368333,-766.095498
207.131124,6069.688724,8808.450710,-689.485948
207.131445,5847.626942,9252.574275,-995.924147
207.131766,5699.585753,9104.533087,-536.266849
207.132087,4885.359217,8512.368333,0.000000
207.132408,4737.318029,8290.306550,229.828649
207.132729,4367.215058,8290.306550,229.828649
207.133050,4145.153275,8438.347739,76.609550
207.133371,4145.153275,8290.306550,842.705048
207.133692,3701.029710,7328.038826,766.095498
207.134013,3775.050304,7476.080014,919.314598
207.134334,3997.112087,7328.038826,1149.143247
207.134655,4515.256246,7402.059420,1072.533697
207.134976,4885.359217,7624.121203,-153.219100
207.135297,5033.400406,7624.121203,-229.828649
207.135618,5847.626942,7772.162391,-689.485948
207.135939,6291.750507,7698.141797,-842.705048
207.136260,6439.791695,8068.244768,-842.705048
207.136581,6291.750507,8586.388927,-995.924147
207.136902,6143.709319,8660.409521,-1225.752797
207.137223,5773.606348,8364.327145,-995.924147
207.137544,5625.565159,8512.368333,-919.314598
207.137866,5477.523971,8216.285956,-689.485948
207.138187,4885.359217,8290.306550,-459.657299
207.138508,4589.276840,8142.265362,-229.828649
207.138829,4293.194464,7846.182985,0.000000
207.139150,4293.194464,7772.162391,306.438199
207.139471,4145.153275,7402.059420,536.266849
207.139792,3701.029710,7550.100608,995.924147
207.140113,4219.173869,7402.059420,919.314598
207.140434,4293.194464,7624.121203,383.047749
207.140755,4515.256246,7624.121203,-229.828649
207.141076,4737.318029,7994.224174,-536.266849
207.141397,5255.462188,8364.327145,-536.266849
207.141718,5329.482782,8586.388927,-842.705048
207.142039,5477.523971,8216.285956,-842.705048
207.142360,5551.544565,8586.388927,-689.485948
207.142681,5477.523971,8956.491898,-306.438199
207.143002,5403.503377,9030.512492,-536.266849
207.143323,5625.565159,8882.471304,-459.657299
207.143644,5403.503377,9030.512492,-383.047749
207.143965,4885.359217,9104.533087,-306.438199
207.144286,4367.215058,9178.553681,0.000000
207.144607,4145.153275,8290.306550,612.876398
207.144928,4145.153275,8512.368333,0.000000
207.145249,3849.070898,8068.244768,766.095498
207.145570,3775.050304,7550.100608,612.876398
207.145891,4145.153275,7328.038826,689.485948
207.146212,4071.132681,7254.018232,995.924147
207.146533,4367.215058,7550.100608,459.657299
207.146854,5107.421000,7476.080014,0.000000
207.147175,5773.606348,7624.121203,-536.266849
207.147496,6513.812290,8142.265362,-459.657299
207.147817,6883.915261,7920.203579,-995.924147
207.148138,6513.812290,7846.182985,-995.924147
207.148459,6513.812290,7920.203579,-1302.362347
207.148780,6439.791695,8068.244768,-1149.143247
207.149101,6365.771101,8512.368333,-995.924147
207.149422,5995.668130,7624.121203,-995.924147
207.149743,5773.606348,7772.162391,-612.876398
207.150064,5329.482782,7624.121203,-612.876398
207.150385,4737.318029,7328.038826,-153.219100
207.150706,4959.379811,7402.059420,153.219100
207.151027,4219.173869,7254.018232,306.438199
207.151348,4071.132681,7698.141797,229.828649
207.151669,4071.132681,7624.121203,766.095498
207.151990,3997.112087,8142.265362,459.657299
207.152311,4145.153275,8068.244768,536.266849
207.152632,4367.215058,8216.285956,-229.828649
207.152953,4737.318029,8290.306550,-229.828649
207.153274,4589.276840,8512.368333,-612.876398
207.153596,4737.318029,8808.450710,-995.924147
207.153917,5255.462188,8364.327145,-459.657299
207.154238,5255.462188,8882.471304,-306.438199
207.154559,5033.400406,9030.512492,-229.828649
207.154880,5107.421000,8956.491898,-306.438199
207.155201,4959.379811,9104.533087,-536.266849
207.155522,4811.338623,9178.553681,-383.047749
207.155843,4441.235652,9252.574275,0.000000
207.156164,4367.215058,8586.388927,0.000000
207.156485,4441.235652,8512.368333,229.828649
207.156806,4145.153275,8438.347739,229.828649
207.157126,3849.070898,7994.224174,842.705048
207.157447,3849.070898,7328.038826,612.876398
207.157768,4293.194464,7105.977043,995.924147
207.158089,4885.359217,7105.977043,842.705048
207.158410,4737.318029,7624.121203,536.266849
207.158731,5403.503377,7402.059420,-459.657299
207.159052,5847.626942,7402.059420,-766.095498
207.159373,6365.771101,7550.100608,-995.924147
207.159694,6883.915261,7846.182985,-1072.533697
207.160015,6809.894666,7772.162391,-1225.752797
207.160336,6291.750507,8290.306550,-1225.752797
207.160657,5773.606348,8142.265362,-995.924147
207.160978,5403.503377,7846.182985,-1072.533697
207.161299,5551.544565,7920.203579,-383.047749
207.161620,5403.503377,8438.347739,-612.876398
207.161941,4811.338623,7624.121203,-306.438199
207.162262,4293.194464,7402.059420,0.000000
207.162583,4071.132681,7846.182985,383.047749
207.162904,3923.091493,7624.121203,536.266849
207.163225,3849.070898,7698.141797,995.924147
207.163546,3997.112087,7772.162391,995.924147
207.163867,4441.235652,7994.224174,536.266849
207.164188,4515.256246,7624.121203,459.657299
207.164509,4589.276840,7994.224174,0.000000
207.164830,5107.421000,8068.244768,-383.047749
207.165151,5181.441594,8142.265362,-383.047749
207.165472,5329.482782,8364.327145,-612.876398
207.165793,5921.647536,8512.368333,-612.876398
207.166114,6143.709319,8364.327145,-383.047749
207.166435,5699.585753,8808.450710,76.609550
207.166756,5403.503377,8660.409521,-536.266849
207.167077,5477.523971,8808.450710,-76.609550
207.167398,5329.482782,9252.574275,-612.876398
207.167719,5255.462188,8956.491898,-153.219100
207.168040,4885.359217,8734.430116,-76.609550
207.168361,4293.194464,8586.388927,153.219100
207.168682,4219.173869,8512.368333,383.047749
207.169003,3701.029710,7772.162391,229.828649
207.169324,3849.070898,7402.059420,306.438199
207.169645,3849.070898,7328.038826,1455.581446
207.169966,4219.173869,7624.121203,689.485948
207.170287,4737.318029,7846.182985,0.000000
207.170608,5107.421000,7846.182985,-76.609550
207.170929,5921.647536,7772.162391,-612.876398
207.171250,6439.791695,7920.203579,-766.095498
207.171571,6217.729913,8142.265362,-766.095498
207.171892,5773.606348,7994.224174,-995.924147
207.172212,5995.668130,7994.224174,-1302.362347
207.172533,6291.750507,8438.347739,-689.485948
207.172854,5921.647536,7994.224174,-383.047749
207.173175,5625.565159,8290.306550,-459.657299
207.173496,5033.400406,7994.224174,-689.485948
207.173817,4811.338623,7550.100608,-306.438199
207.174138,4441.235652,7254.018232,0.000000
207.174459,4441.235652,7031.956449,306.438199
207.174780,4145.153275,7254.018232,383.047749
207.175101,4145.153275,7624.121203,536.266849
207.175422,4071.132681,8142.265362,842.705048
207.175743,4219.173869,7920.203579,306.438199
207.176064,4589.276840,7772.162391,-383.047749
207.176385,5033.400406,8142.265362,-459.657299
207.176706,4515.256246,8068.244768,-459.657299
207.177027,4959.379811,8290.306550,-536.266849
207.177348,4959.379811,8438.347739,-919.314598
207.177669,5181.441594,8660.409521,-612.876398
207.177990,5255.462188,8734.430116,-689.485948
207.178311,5329.482782,9252.574275,-459.657299
207.178632,5255.462188,9326.594869,-459.657299
207.178953,5329.482782,9400.615463,0.000000
207.179274,4811.338623,9178.553681,-229.828649
207.179595,4663.297435,8586.388927,0.000000
207.179916,4663.297435,8290.306550,153.219100
207.180237,4589.276840,8438.347739,459.657299
207.180558,3997.112087,7920.203579,612.876398
207.180879,3997.112087,7698.141797,459.657299
207.181200,4293.194464,7328.038826,1072.533697
207.181521,4811.338623,7179.997637,1149.143247
207.181842,4811.338623,7179.997637,536.266849
207.182163,5477.523971,7328.038826,-306.438199
207.182484,5625.565159,7624.121203,-842.705048
207.182805,6587.832884,7772.162391,-995.924147
207.183126,7254.018232,7920.203579,-459.657299
207.183447,6809.894666,8216.285956,-995.924147
207.183768,6365.771101,8364.327145,-1225.752797
207.184089,6143.709319,8290.306550,-1378.971896
207.184410,5625.565159,8586.388927,-919.314598
207.184731,5403.503377,7994.224174,-612.876398
207.185052,5181.441594,7994.224174,-536.266849
207.185373,4737.318029,7920.203579,-383.047749
207.185694,4071.132681,8068.244768,-153.219100
207.186015,3997.112087,7772.162391,766.095498
207.186336,3923.091493,7476.080014,842.705048
207.186657,3701.029710,7476.080014,919.314598
207.186978,3478.967927,7254.018232,766.095498
207.187298,3849.070898,7550.100608,612.876398
207.187619,3997.112087,7476.080014,383.047749
207.187940,4737.318029,7476.080014,-229.828649
207.188261,5033.400406,7624.121203,-919.314598
207.188582,5329.482782,7994.224174,-689.485948
207.188903,5329.482782,8216.285956,-919.314598
207.189224,5995.668130,8512.368333,-919.314598
207.189545,6365.771101,8512.368333,-689.485948
207.189866,5995.668130,8512.368333,-995.924147
207.190187,5995.668130,8660.409521,-842.705048
207.190508,6069.688724,8882.471304,-612.876398
207.190829,6143.709319,8956.491898,0.000000
207.191150,5181.441594,8882.471304,-842.705048
207.191471,4663.297435,8586.388927,-306.438199
207.191792,4515.256246,8364.327145,76.609550
207.192113,4071.132681,8438.347739,536.266849
207.192434,3923.091493,7846.182985,612.876398
207.192755,3775.050304,7476.080014,842.705048
207.193076,3849.070898,7328.038826,1149.143247
207.193397,3997.112087,7550.100608,842.705048
207.193718,4219.173869,7698.141797,459.657299
207.194039,4737.318029,8068.244768,0.000000
207.194360,5477.523971,7994.224174,-383.047749
207.194681,5847.626942,8216.285956,-689.485948
207.195002,6143.709319,8364.327145,-919.314598
207.195323,6439.791695,8142.265362,-995.924147
207.195644,6291.750507,8734.430116,-842.705048
207.195965,5773.606348,8364.327145,-229.828649
207.196286,5921.647536,8438.347739,-383.047749
207.196607,5403.503377,8290.306550,-229.828649
207.196928,5033.400406,8142.265362,0.000000
207.197249,4811.338623,7550.100608,76.609550
207.197570,4441.235652,7624.121203,383.047749
207.197891,4293.194464,7402.059420,459.657299
207.198212,4145.153275,7624.121203,306.438199
207.198533,3997.112087,7328.038826,459.657299
207.198854,4589.276840,7328.038826,459.657299
207.199175,4145.153275,7846.182985,229.828649
207.199496,4663.297435,7994.224174,-459.657299
207.199817,4737.318029,7772.162391,-459.657299
207.200138,5033.400406,7846.182985,0.000000
207.200459,4885.359217,8068.244768,-689.485948
207.200780,5255.462188,7920.203579,-919.314598
207.201101,5329.482782,8512.368333,-919.314598
207.201422,5625.565159,8364.327145,-689.485948
207.201743,5773.606348,8660.409521,-153.219100
207.202063,5625.565159,8512.368333,-536.266849
207.202384,5773.606348,8734.430116,-612.876398
207.202705,5107.421000,8882.471304,-229.828649
207.203026,4737.318029,8512.368333,0.000000
207.203347,5033.400406,8068.244768,0.000000
207.203668,4515.256246,8290.306550,536.266849
207.203989,3923.091493,7920.203579,919.314598
207.204310,3627.009116,7772.162391,536.266849
207.204631,4145.153275,7550.100608,536.266849
207.204952,4293.194464,7476.080014,536.266849
207.205273,4441.235652,7550.100608,536.266849
207.205594,4737.318029,7624.121203,76.609550
207.205915,5181.441594,8068.244768,-383.047749
207.206236,5847.626942,7994.224174,-919.314598
207.206557,6365.771101,7994.224174,-766.095498
207.206878,6513.812290,8068.244768,-766.095498
207.207199,6143.709319,8512.368333,-919.314598
207.207520,5921.647536,8586.388927,-842.705048
207.207841,5699.585753,8512.368333,-995.924147
207.208162,5551.544565,8290.306550,-689.485948
207.208483,5551.544565,7920.203579,-536.266849
207.208804,5107.421000,7920.203579,-536.266849
207.209125,4811.338623,7994.224174,-306.438199
207.209446,4589.276840,8290.306550,153.219100
207.209767,4589.276840,7846.182985,612.876398
207.210088,4293.194464,7624.121203,536.266849
207.210409,4071.132681,7328.038826,766.095498
207.210730,4219.173869,7402.059420,612.876398
207.211051,4441.235652,7624.121203,76.609550
207.211372,4441.235652,7920.203579,-76.609550
207.211693,4737.318029,7772.162391,-689.485948
207.212014,5033.400406,8142.265362,-612.876398
207.212335,4959.379811,8290.306550,-689.485948
207.212656,4811.338623,8438.347739,-766.095498
207.212977,5625.565159,8734.430116,-536.266849
207.213298,5329.482782,8808.450710,-306.438199
207.213619,5255.462188,8586.388927,-612.876398
207.213940,5329.482782,8882.471304,-306.438199
207.214261,5551.544565,9030.512492,0.000000
207.214582,4885.359217,9030.512492,-229.828649
207.214903,4367.215058,8586.388927,-153.219100
207.215224,4293.194464,8438.347739,0.000000
207.215545,4145.153275,8586.388927,153.219100
207.215866,3627.009116,7994.224174,536.266849
207.216187,3775.050304,7402.059420,612.876398
