#time,accel_x,accel_y,accel_z
179.033291,5107.421000,8068.244768,0.000000
179.033611,5255.462188,8068.244768,-306.438199
179.033932,5255.462188,8068.244768,153.219100
179.034253,5329.482782,8142.265362,0.000000
179.034573,4737.318029,8216.285956,-229.828649
179.034894,4885.359217,8290.306550,0.000000
179.035214,4737.318029,8216.285956,0.000000
179.035535,5181.441594,8142.265362,0.000000
179.035856,5033.400406,7994.224174,-76.609550
179.036176,4959.379811,7994.224174,0.000000
179.036497,5107.421000,7994.224174,0.000000
179.036818,5033.400406,8216.285956,0.000000
179.037138,5181.441594,8364.327145,0.000000
179.037459,5033.400406,7920.203579,-229.828649
179.037780,5181.441594,7624.121203,0.000000
179.038100,4959.379811,7994.224174,0.000000
179.038421,5033.400406,7994.224174,0.000000
179.038742,4959.379811,8216.285956,76.609550
179.039062,4959.379811,7994.224174,-229.828649
179.039383,4959.379811,7994.224174,-153.219100
179.039703,4959.379811,7920.203579,0.000000
179.040024,5255.462188,7476.080014,0.000000
179.040345,5033.400406,8142.265362,76.609550
179.040665,4959.379811,8142.265362,-306.438199
179.040986,4737.318029,8068.244768,0.000000
179.041307,5107.421000,7920.203579,0.000000
179.041627,4959.379811,7994.224174,0.000000
179.041948,5181.441594,8068.244768,-383.047749
179.042269,4959.379811,8142.265362,-383.047749
179.042589,4737.318029,7772.162391,-306.438199
179.042910,4293.194464,7476.080014,-306.438199
179.043230,4145.153275,7105.977043,-229.828649
179.043551,4589.276840,8660.409521,-459.657299
179.043872,4737.318029,9474.636058,-766.095498
179.044192,4589.276840,9770.718434,-1225.752797
179.044513,4663.297435,9918.759623,-1072.533697
179.044834,4515.256246,9400.615463,-689.485948
179.045154,3552.988522,8586.388927,459.657299
179.045475,3034.844362,8586.388927,995.924147
179.045796,2960.823768,8956.491898,842.705048
179.046116,2886.803174,9030.512492,153.219100
179.046437,3034.844362,8142.265362,153.219100
179.046758,3034.844362,8734.430116,-459.657299
179.047078,3330.926739,9252.574275,-306.438199
179.047399,3034.844362,9548.656652,383.047749
179.047719,2738.761985,9030.512492,459.657299
179.048040,2368.659014,8956.491898,0.000000
179.048361,2516.700203,9696.697840,-306.438199
179.048681,1850.514855,10584.944971,-995.924147
179.049002,2072.576638,11843.295072,-1225.752797
179.049323,1554.432478,12213.398043,-995.924147
179.049643,888.247130,11695.253884,-536.266849
179.049964,370.102971,11177.109724,-1072.533697
179.050285,-740.205942,11547.212695,-1608.800546
179.050605,-1480.411884,11991.336260,-612.876398
179.050926,-1628.453072,12583.501014,383.047749
179.051246,-1628.453072,11917.315666,1225.752797
179.051567,-1258.350101,12139.377449,1072.533697
179.051888,-1406.391290,12213.398043,1762.019645
179.052208,-1998.556043,12657.521608,1532.190996
179.052529,-2368.659014,11695.253884,612.876398
179.052850,-1998.556043,10807.006753,-306.438199
179.053170,-1184.329507,9992.780217,76.609550
179.053491,-1036.288319,10362.883188,459.657299
179.053812,-740.205942,10214.842000,842.705048
179.054132,74.020594,10955.047942,0.000000
179.054453,814.226536,11399.171507,-1455.581446
179.054774,1628.453072,11251.130318,-1838.629195
179.055094,2146.597232,10658.965565,-1072.533697
179.055415,2886.803174,10807.006753,0.000000
179.055735,2960.823768,10510.924376,76.609550
179.056056,2220.617826,9696.697840,-1532.190996
179.056377,1850.514855,8956.491898,-2911.162892
179.056697,1702.473667,9178.553681,-1378.971896
179.057018,2072.576638,10066.800811,-766.095498
179.057339,1776.494261,10066.800811,-536.266849
179.057659,1702.473667,10584.944971,-612.876398
179.057980,962.267725,11695.253884,-306.438199
179.058301,74.020594,11029.068536,612.876398
179.058621,-444.123565,10214.842000,995.924147
179.058942,-444.123565,9992.780217,612.876398
179.059262,-148.041188,10214.842000,459.657299
179.059583,-296.082377,10584.944971,766.095498
179.059904,-370.102971,10510.924376,919.314598
179.060224,222.061783,11251.130318,1072.533697
179.060545,888.247130,11473.192101,919.314598
179.060866,962.267725,11251.130318,76.609550
179.061186,444.123565,10584.944971,-459.657299
179.061507,1184.329507,10510.924376,-842.705048
179.061828,1480.411884,10214.842000,-306.438199
179.062148,1776.494261,9622.677246,0.000000
179.062469,1406.391290,8882.471304,0.000000
179.062790,2146.597232,8586.388927,0.000000
179.063110,2368.659014,9474.636058,-153.219100
179.063431,2368.659014,10362.883188,-383.047749
179.063751,2368.659014,11103.089130,-383.047749
179.064072,3034.844362,10955.047942,-689.485948
179.064393,3182.885551,10436.903782,-842.705048
179.064713,2368.659014,9696.697840,-536.266849
179.065034,2368.659014,9844.739029,-919.314598
179.065355,1554.432478,10584.944971,-995.924147
179.065675,1332.370696,11103.089130,0.000000
179.065996,1036.288319,11547.212695,229.828649
179.066317,1184.329507,10584.944971,-766.095498
179.066637,74.020594,10510.924376,-1608.800546
179.066958,-962.267725,9548.656652,-766.095498
179.067278,-814.226536,9400.615463,0.000000
179.067599,-1184.329507,8882.471304,383.047749
179.067920,-370.102971,9918.759623,766.095498
179.068240,1110.308913,12065.356855,1072.533697
179.068561,444.123565,13693.809927,1072.533697
179.068882,518.144159,13841.851115,612.876398
179.069202,1480.411884,13619.789333,-229.828649
179.069523,1332.370696,11251.130318,-153.219100
179.069844,1184.329507,9400.615463,0.000000
179.070164,814.226536,9104.533087,0.000000
179.070485,-518.144159,9400.615463,-1302.362347
179.070805,-1998.556043,9548.656652,-1991.848295
179.071126,-1184.329507,9844.739029,-1685.410096
179.071447,-592.164754,11177.109724,-1072.533697
179.071767,-222.061783,12509.480420,-76.609550
179.072088,148.041188,13249.686362,76.609550
179.072409,592.164754,13767.830521,-919.314598
179.072729,0.000000,14063.912898,0.000000
179.073050,74.020594,13249.686362,306.438199
179.073371,1036.288319,11177.109724,153.219100
179.073691,888.247130,9400.615463,-536.266849
179.074012,1110.308913,9104.533087,-153.219100
179.074333,518.144159,8956.491898,536.266849
179.074653,0.000000,9474.636058,229.828649
179.074974,0.000000,10214.842000,919.314598
179.075294,74.020594,9844.739029,766.095498
179.075615,222.061783,8734.430116,76.609550
179.075936,1702.473667,9104.533087,229.828649
179.076256,1480.411884,11177.109724,-306.438199
179.076577,740.205942,13249.686362,-919.314598
179.076898,814.226536,13471.748144,-1532.190996
179.077218,1036.288319,12657.521608,-1762.019645
179.077539,1332.370696,11843.295072,-842.705048
179.077860,444.123565,11325.150913,-229.828649
179.078180,0.000000,11029.068536,-383.047749
179.078501,0.000000,11029.068536,612.876398
179.078821,222.061783,10807.006753,1685.410096
179.079142,222.061783,9548.656652,1302.362347
179.079463,-592.164754,7920.203579,995.924147
179.079783,-1258.350101,7920.203579,1072.533697
179.080104,-1184.329507,8512.368333,612.876398
179.080425,296.082377,9178.553681,-459.657299
179.080745,1406.391290,11473.192101,-919.314598
179.081066,1776.494261,13027.624579,-1225.752797
179.081387,1998.556043,13323.706956,-995.924147
179.081707,1184.329507,11547.212695,-536.266849
179.082028,888.247130,8512.368333,-919.314598
179.082349,2516.700203,6957.935855,306.438199
179.082669,3478.967927,9030.512492,1915.238745
179.082990,1406.391290,11177.109724,383.047749
179.083310,1332.370696,12213.398043,-2681.334243
179.083631,2960.823768,12287.418637,-3677.258390
179.083952,1924.535449,10436.903782,-2604.724693
179.084272,74.020594,7179.997637,-1225.752797
179.084593,592.164754,6513.812290,-689.485948
179.084914,814.226536,10362.883188,0.000000
179.085234,0.000000,14211.954086,1838.629195
179.085555,-666.185348,15100.201217,536.266849
179.085876,-444.123565,14952.160028,-842.705048
179.086196,-296.082377,15322.262999,229.828649
179.086517,-2146.597232,13249.686362,1532.190996
179.086837,-1110.308913,10214.842000,1225.752797
179.087158,0.000000,8808.450710,383.047749
179.087479,-1110.308913,9104.533087,536.266849
179.087799,-1258.350101,8734.430116,383.047749
179.088120,-888.247130,9622.677246,689.485948
179.088441,-296.082377,10436.903782,536.266849
179.088761,2516.700203,10658.965565,2374.896044
179.089082,4367.215058,11103.089130,1072.533697
179.089403,3627.009116,10881.027347,-1532.190996
179.089723,3552.988522,11843.295072,-2145.067394
179.090044,3552.988522,12139.377449,-2451.505594
179.090365,1628.453072,9474.636058,-2451.505594
179.090685,2368.659014,6661.853478,-1149.143247
179.091006,3478.967927,7920.203579,-612.876398
179.091326,1036.288319,11547.212695,0.000000
179.091647,370.102971,13767.830521,-612.876398
179.091968,740.205942,13841.851115,-1991.848295
179.092288,0.000000,10732.986159,-1532.190996
179.092609,-1702.473667,8882.471304,612.876398
179.092930,-1702.473667,8660.409521,2068.457845
179.093250,-2368.659014,10807.006753,1302.362347
179.093571,-2368.659014,12805.562797,229.828649
179.093892,-2220.617826,13249.686362,-842.705048
179.094212,-2516.700203,12139.377449,-1302.362347
179.094533,-1998.556043,11695.253884,1378.971896
179.094853,-1110.308913,11843.295072,3600.648841
179.095174,148.041188,12139.377449,2911.162892
179.095495,-296.082377,11251.130318,612.876398
179.095815,-444.123565,9844.739029,-1302.362347
179.096136,296.082377,8808.450710,-229.828649
179.096457,1850.514855,8290.306550,1762.019645
179.096777,1998.556043,7698.141797,1915.238745
179.097098,3552.988522,7624.121203,0.000000
179.097418,4145.153275,8882.471304,-1762.019645
179.097739,3701.029710,10362.883188,-2068.457845
179.098060,4219.173869,11177.109724,-1378.971896
179.098380,5107.421000,11547.212695,-1532.190996
179.098701,4589.276840,10140.821405,-1608.800546
179.099022,2886.803174,8068.244768,-2145.067394
179.099342,1850.514855,7105.977043,-2298.286494
179.099663,2072.576638,9622.677246,-1149.143247
179.099983,814.226536,12583.501014,-383.047749
179.100304,370.102971,13249.686362,-1838.629195
179.100625,370.102971,10807.006753,-2451.505594
179.100945,74.020594,9918.759623,0.000000
179.101266,-370.102971,10955.047942,3370.820191
179.101587,-2664.741391,12657.521608,3600.648841
179.101907,-3627.009116,12361.439231,1149.143247
179.102228,-3108.864956,12657.521608,0.000000
179.102549,-2072.576638,12435.459826,306.438199
179.102869,-962.267725,11917.315666,536.266849
179.103190,-1110.308913,11843.295072,1455.581446
179.103510,-1480.411884,12731.542202,1838.629195
179.103831,0.000000,13323.706956,1378.971896
179.104152,1406.391290,11621.233289,919.314598
179.104472,222.061783,8956.491898,306.438199
179.104793,1628.453072,8586.388927,1532.190996
179.105114,3182.885551,9326.594869,2681.334243
179.105434,2886.803174,7550.100608,995.924147
179.105755,5107.421000,5921.647536,-1838.629195
179.106075,8290.306550,6291.750507,-2681.334243
179.106396,6217.729913,8882.471304,-2757.943793
179.106717,4737.318029,9548.656652,-3217.601092
179.107037,6735.874072,9178.553681,-3064.381992
179.107358,7328.038826,8216.285956,-2604.724693
179.107679,7328.038826,8438.347739,-612.876398
179.107999,5329.482782,8808.450710,-536.266849
179.108320,2368.659014,9918.759623,-2911.162892
179.108641,2442.679609,12287.418637,-3447.429741
179.108961,2368.659014,11769.274478,-2068.457845
179.109282,1702.473667,8882.471304,-153.219100
179.109602,1628.453072,7624.121203,2068.457845
179.109923,-296.082377,9844.739029,3447.429741
179.110244,-2738.761985,11325.150913,3217.601092
179.110564,-2664.741391,11177.109724,2681.334243
179.110885,0.000000,9992.780217,2757.943793
179.111206,222.061783,10140.821405,2681.334243
179.111526,296.082377,10732.986159,2911.162892
179.111847,444.123565,10584.944971,1302.362347
179.112167,1924.535449,10658.965565,842.705048
179.112488,2442.679609,9622.677246,1302.362347
179.112809,3478.967927,6661.853478,76.609550
179.113129,4737.318029,5329.482782,0.000000
179.113450,7179.997637,7920.203579,2221.676944
179.113771,7031.956449,9696.697840,2145.067394
179.114091,9696.697840,7624.121203,-1072.533697
179.114412,10955.047942,4589.276840,-3753.867940
179.114732,11843.295072,3552.988522,-3600.648841
179.115053,11473.192101,3256.906145,-1532.190996
179.115374,12065.356855,4293.194464,-1225.752797
179.115694,10214.842000,3330.926739,-2451.505594
179.116015,10955.047942,4737.318029,-2911.162892
179.116336,11103.089130,6735.874072,-2145.067394
179.116656,9030.512492,7920.203579,-2221.676944
179.116977,8882.471304,7550.100608,-1762.019645
179.117298,7550.100608,6143.709319,-2145.067394
179.117618,5995.668130,4885.359217,-1762.019645
179.117939,3775.050304,4737.318029,689.485948
179.118259,3478.967927,6439.791695,1838.629195
179.118580,1702.473667,9252.574275,919.314598
179.118901,2220.617826,11325.150913,766.095498
179.119221,1924.535449,11251.130318,536.266849
179.119542,1628.453072,9918.759623,612.876398
179.119863,1554.432478,9918.759623,2604.724693
179.120183,1628.453072,10732.986159,3370.820191
179.120504,-592.164754,9178.553681,1532.190996
179.120824,592.164754,8068.244768,-612.876398
179.121145,3849.070898,8512.368333,-536.266849
179.121466,5033.400406,9474.636058,0.000000
179.121786,4071.132681,9178.553681,1455.581446
179.122107,4737.318029,8956.491898,689.485948
179.122428,6661.853478,9104.533087,-229.828649
179.122748,5995.668130,7402.059420,-612.876398
179.123069,7402.059420,6291.750507,-1915.238745
179.123389,8586.388927,4737.318029,-2604.724693
179.123710,9104.533087,5921.647536,-3753.867940
179.124031,9252.574275,8068.244768,-3217.601092
179.124351,8660.409521,10288.862594,-2987.772442
179.124672,7846.182985,10584.944971,-3064.381992
179.124993,7402.059420,9696.697840,-1225.752797
179.125313,7105.977043,9252.574275,0.000000
179.125634,4737.318029,8956.491898,-1072.533697
179.125955,5255.462188,8290.306550,-995.924147
179.126275,4441.235652,8512.368333,-459.657299
179.126596,3849.070898,9178.553681,612.876398
179.126916,1554.432478,8956.491898,536.266849
179.127237,1406.391290,7846.182985,-919.314598
179.127558,888.247130,7994.224174,153.219100
179.127878,888.247130,9252.574275,2604.724693
179.128199,370.102971,9030.512492,2834.553343
179.128520,1924.535449,9252.574275,2145.067394
179.128840,1332.370696,9696.697840,1455.581446
179.129161,1554.432478,10807.006753,1762.019645
179.129481,2664.741391,11251.130318,612.876398
179.129802,4737.318029,10214.842000,-1762.019645
179.130123,4071.132681,8734.430116,-2681.334243
179.130443,9548.656652,7698.141797,536.266849
179.130764,7031.956449,6661.853478,3140.991542
179.131085,5551.544565,4885.359217,1838.629195
179.131405,6587.832884,3997.112087,0.000000
179.131726,7994.224174,4885.359217,-1302.362347
179.132047,6587.832884,5403.503377,-2221.676944
179.132367,10436.903782,5033.400406,-1532.190996
179.132688,9622.677246,3182.885551,-2145.067394
179.133008,10066.800811,5033.400406,-1685.410096
179.133329,9844.739029,7920.203579,-766.095498
179.133650,7179.997637,8734.430116,-2834.553343
179.133970,6883.915261,8290.306550,-3600.648841
179.134291,9474.636058,9104.533087,-1072.533697
179.134612,7254.018232,7920.203579,0.000000
179.134932,6439.791695,7328.038826,689.485948
179.135253,5699.585753,7994.224174,1762.019645
179.135573,3404.947333,7994.224174,1225.752797
179.135894,1332.370696,6439.791695,1378.971896
179.136215,2368.659014,5921.647536,1685.410096
179.136535,2146.597232,5847.626942,2145.067394
179.136856,3404.947333,7994.224174,3830.477490
179.137177,3330.926739,9992.780217,3217.601092
179.137497,2220.617826,8660.409521,0.000000
179.137818,3552.988522,7550.100608,383.047749
179.138138,5255.462188,8882.471304,1915.238745
179.138459,3478.967927,9770.718434,153.219100
179.138780,5107.421000,10881.027347,-766.095498
179.139100,7031.956449,10362.883188,-1532.190996
179.139421,7698.141797,8512.368333,-1455.581446
179.139742,6735.874072,6661.853478,-153.219100
179.140062,5921.647536,5255.462188,-842.705048
179.140383,5699.585753,5847.626942,-2068.457845
179.140704,5995.668130,7031.956449,-306.438199
179.141024,6735.874072,6883.915261,153.219100
179.141345,8956.491898,7031.956449,229.828649
179.141665,7476.080014,7476.080014,76.609550
179.141986,6735.874072,8734.430116,-1608.800546
179.142307,5181.441594,8660.409521,-2604.724693
179.142627,4367.215058,7994.224174,-2987.772442
179.142948,4515.256246,7105.977043,-1608.800546
179.143269,5329.482782,7772.162391,919.314598
179.143589,3182.885551,9548.656652,766.095498
179.143910,2516.700203,11103.089130,-1225.752797
179.144230,2294.638420,10066.800811,-1762.019645
179.144551,3034.844362,9770.718434,-766.095498
179.144872,3108.864956,9104.533087,1455.581446
179.145192,2664.741391,9104.533087,2145.067394
179.145513,1406.391290,8142.265362,919.314598
179.145834,2072.576638,7846.182985,1762.019645
179.146154,3552.988522,8586.388927,1149.143247
179.146475,3997.112087,8882.471304,-306.438199
179.146796,3775.050304,8956.491898,-1455.581446
179.147116,5625.565159,9770.718434,-1149.143247
179.147437,5107.421000,9252.574275,919.314598
179.147757,7328.038826,9474.636058,2068.457845
179.148078,7254.018232,6883.915261,-229.828649
179.148399,5551.544565,5403.503377,-1532.190996
179.148719,6143.709319,7402.059420,-306.438199
179.149040,6735.874072,7402.059420,0.000000
179.149361,5625.565159,4293.194464,-2451.505594
179.149681,10510.924376,4145.153275,-842.705048
179.150002,10066.800811,6809.894666,612.876398
179.150322,7105.977043,7698.141797,-919.314598
179.150643,7476.080014,7328.038826,-2374.896044
179.150964,8808.450710,7254.018232,-2604.724693
179.151284,7624.121203,6735.874072,-459.657299
179.151605,8290.306550,6735.874072,1838.629195
179.151926,6587.832884,6069.688724,-766.095498
179.152246,5625.565159,7698.141797,-2681.334243
179.152567,5255.462188,8586.388927,-842.705048
179.152887,3256.906145,8068.244768,-612.876398
179.153208,3108.864956,5921.647536,536.266849
179.153529,3997.112087,7402.059420,2681.334243
179.153849,2812.782580,9548.656652,3217.601092
179.154170,1406.391290,9696.697840,2145.067394
179.154491,2368.659014,9104.533087,842.705048
179.154811,2368.659014,8512.368333,-306.438199
179.155132,2516.700203,8142.265362,-306.438199
179.155453,2886.803174,9548.656652,536.266849
179.155773,3627.009116,9918.759623,-153.219100
179.156094,3923.091493,10066.800811,76.609550
179.156414,5403.503377,11029.068536,1149.143247
179.156735,4219.173869,8956.491898,0.000000
179.157056,3849.070898,5403.503377,-229.828649
179.157376,4737.318029,5107.421000,1378.971896
179.157697,5107.421000,7105.977043,766.095498
179.158018,4959.379811,8216.285956,-536.266849
179.158338,5773.606348,6439.791695,-2451.505594
179.158659,8512.368333,5403.503377,-1991.848295
179.158979,8808.450710,7550.100608,0.000000
179.159300,6809.894666,9252.574275,0.000000
179.159621,6439.791695,8142.265362,-1991.848295
179.159941,6809.894666,8216.285956,-2068.457845
179.160262,7179.997637,9104.533087,153.219100
179.160583,5625.565159,8364.327145,229.828649
179.160903,5107.421000,6587.832884,-2451.505594
179.161224,4737.318029,7402.059420,-2528.115143
179.161544,4219.173869,8586.388927,-459.657299
179.161865,3552.988522,7328.038826,536.266849
179.162186,3701.029710,5625.565159,1072.533697
179.162506,4663.297435,7031.956449,1532.190996
179.162827,3330.926739,8808.450710,2451.505594
179.163148,2960.823768,9030.512492,1302.362347
179.163468,4959.379811,8512.368333,0.000000
179.163789,6365.771101,8882.471304,-153.219100
179.164110,5921.647536,9030.512492,766.095498
179.164430,4811.338623,9104.533087,-76.609550
179.164751,3849.070898,8512.368333,-1302.362347
179.165071,4737.318029,9178.553681,0.000000
179.165392,5625.565159,8586.388927,689.485948
179.165713,5699.585753,7254.018232,-842.705048
179.166033,5625.565159,6439.791695,-459.657299
179.166354,5551.544565,7328.038826,0.000000
179.166675,6217.729913,7772.162391,1072.533697
179.166995,5625.565159,7105.977043,842.705048
179.167316,6513.812290,6291.750507,-229.828649
179.167636,7402.059420,7031.956449,-766.095498
179.167957,7402.059420,9178.553681,-919.314598
179.168278,3997.112087,8438.347739,-3294.210641
179.168598,4219.173869,7328.038826,-4673.182538
179.168919,6735.874072,8734.430116,-1378.971896
179.169240,5699.585753,10066.800811,1685.410096
179.169560,3627.009116,9326.594869,536.266849
179.169881,4515.256246,10066.800811,-1762.019645
179.170202,2516.700203,9844.739029,-1455.581446
179.170522,1850.514855,9548.656652,919.314598
179.170843,3478.967927,7698.141797,2068.457845
179.171163,3775.050304,6439.791695,1072.533697
179.171484,2368.659014,7476.080014,1149.143247
179.171805,1776.494261,9918.759623,2145.067394
179.172125,888.247130,10140.821405,383.047749
179.172446,1628.453072,9178.553681,-306.438199
179.172767,5033.400406,9104.533087,1072.533697
179.173087,5403.503377,9178.553681,995.924147
179.173408,3108.864956,8216.285956,689.485948
179.173728,2960.823768,7846.182985,-612.876398
179.174049,3404.947333,8512.368333,-1762.019645
179.174370,3256.906145,8290.306550,-306.438199
179.174690,5773.606348,6587.832884,153.219100
179.175011,7772.162391,5699.585753,-1149.143247
179.175332,6661.853478,7105.977043,-1608.800546
179.175652,7105.977043,9696.697840,-459.657299
179.175973,5403.503377,8586.388927,-612.876398
179.176293,6143.709319,6069.688724,-1149.143247
179.176614,8734.430116,6365.771101,766.095498
179.176935,7105.977043,7328.038826,689.485948
179.177255,3404.947333,7328.038826,-1991.848295
179.177576,5847.626942,8882.471304,-2298.286494
179.177897,5625.565159,8882.471304,-1225.752797
179.178217,6143.709319,7402.059420,1378.971896
179.178538,6069.688724,6291.750507,1378.971896
179.178859,3997.112087,7254.018232,-842.705048
179.179179,2072.576638,8734.430116,76.609550
179.179500,4293.194464,9474.636058,2451.505594
179.179820,5181.441594,8586.388927,383.047749
179.180141,5847.626942,7772.162391,-383.047749
179.180462,5477.523971,8586.388927,-995.924147
179.180782,3775.050304,9104.533087,-1455.581446
179.181103,2664.741391,8734.430116,-689.485948
179.181424,5329.482782,8586.388927,1455.581446
179.181744,5551.544565,7846.182985,1149.143247
179.182065,5699.585753,8808.450710,1378.971896
179.182385,4293.194464,10436.903782,1378.971896
179.182706,3849.070898,10288.862594,-612.876398
179.183027,4293.194464,8586.388927,-1838.629195
179.183347,6217.729913,6143.709319,-612.876398
179.183668,5847.626942,5107.421000,0.000000
179.183989,6365.771101,6291.750507,1225.752797
179.184309,4811.338623,7772.162391,1762.019645
179.184630,4811.338623,9474.636058,689.485948
179.184950,4589.276840,8882.471304,-306.438199
179.185271,6069.688724,8216.285956,-1532.190996
179.185592,7550.100608,7402.059420,-1378.971896
179.185912,6809.894666,8734.430116,-1455.581446
179.186233,4811.338623,8882.471304,-2451.505594
179.186554,4441.235652,6957.935855,-2604.724693
179.186874,4515.256246,7105.977043,-919.314598
179.187195,3330.926739,8216.285956,995.924147
179.187516,4145.153275,10066.800811,1225.752797
179.187836,5699.585753,10362.883188,153.219100
179.188157,3108.864956,7624.121203,-306.438199
179.188477,2960.823768,6143.709319,612.876398
179.188798,4367.215058,7105.977043,1149.143247
179.189119,3775.050304,8068.244768,383.047749
179.189439,2220.617826,7846.182985,-995.924147
179.189760,5995.668130,8216.285956,-1225.752797
179.190081,4737.318029,9474.636058,-229.828649
179.190401,3552.988522,10288.862594,689.485948
179.190722,3997.112087,11547.212695,689.485948
179.191042,4441.235652,10955.047942,229.828649
179.191363,3627.009116,9400.615463,1149.143247
179.191684,4959.379811,7105.977043,-459.657299
179.192004,2738.761985,3627.009116,-2451.505594
179.192325,4071.132681,6069.688724,-1149.143247
179.192645,5477.523971,9770.718434,2068.457845
179.192966,5329.482782,10214.842000,612.876398
179.193286,6809.894666,7772.162391,-1225.752797
179.193607,7105.977043,7402.059420,-1762.019645
179.193927,4663.297435,8808.450710,0.000000
179.194248,4737.318029,8734.430116,1455.581446
179.194568,5995.668130,8216.285956,-153.219100
179.194888,6957.935855,7402.059420,-1532.190996
179.195209,7550.100608,8660.409521,-689.485948
179.195529,5255.462188,8808.450710,-1072.533697
179.195850,3330.926739,9104.533087,-1991.848295
179.196170,4071.132681,9252.574275,0.000000
179.196491,5403.503377,9326.594869,536.266849
179.196811,5625.565159,6439.791695,306.438199
179.197132,5255.462188,6661.853478,1072.533697
179.197452,4367.215058,9104.533087,919.314598
179.197772,2738.761985,9770.718434,383.047749
179.198093,4219.173869,9400.615463,-306.438199
179.198413,4885.359217,8068.244768,-153.219100
179.198734,5329.482782,7920.203579,1608.800546
179.199054,5255.462188,9104.533087,2451.505594
179.199375,2886.803174,9474.636058,153.219100
179.199695,1850.514855,7031.956449,-2145.067394
179.200016,4663.297435,6291.750507,-1532.190996
179.200336,5921.647536,5995.668130,689.485948
179.200656,5181.441594,6291.750507,1685.410096
179.200977,5699.585753,6365.771101,842.705048
179.201297,7402.059420,7920.203579,-612.876398
179.201618,6957.935855,8734.430116,-536.266849
179.201938,7402.059420,7698.141797,-689.485948
179.202259,7920.203579,6069.688724,-1762.019645
179.202579,9474.636058,6439.791695,-919.314598
179.202900,7624.121203,7402.059420,-383.047749
179.203220,5477.523971,7031.956449,-2145.067394
179.203541,4737.318029,6291.750507,-3983.696590
179.203861,6735.874072,8290.306550,-1762.019645
179.204181,4589.276840,8956.491898,1378.971896
179.204502,4737.318029,7772.162391,1685.410096
179.204822,3997.112087,7179.997637,919.314598
179.205143,2146.597232,7846.182985,-383.047749
179.205463,2072.576638,8216.285956,0.000000
179.205784,3627.009116,8956.491898,842.705048
179.206104,4293.194464,9030.512492,536.266849
179.206425,4663.297435,9696.697840,919.314598
179.206745,3330.926739,9622.677246,689.485948
179.207065,2220.617826,8956.491898,-1225.752797
179.207386,2812.782580,9474.636058,689.485948
179.207706,4071.132681,8808.450710,1608.800546
179.208027,5181.441594,8142.265362,76.609550
179.208347,5181.441594,8290.306550,-995.924147
179.208668,4219.173869,9548.656652,-2451.505594
179.208988,4367.215058,8882.471304,-306.438199
179.209309,5477.523971,7772.162391,2604.724693
179.209629,6365.771101,7698.141797,1149.143247
179.209950,6143.709319,6513.812290,-766.095498
179.210270,5773.606348,7550.100608,-1225.752797
179.210590,6587.832884,9696.697840,-383.047749
179.210911,4959.379811,9992.780217,76.609550
179.211231,6809.894666,7624.121203,-842.705048
179.211552,8808.450710,6217.729913,-1455.581446
179.211872,7402.059420,6883.915261,-612.876398
179.212193,4885.359217,8586.388927,0.000000
179.212513,4293.194464,7920.203579,-1762.019645
179.212834,4219.173869,6365.771101,-2451.505594
179.213154,5699.585753,7328.038826,229.828649
179.213474,5699.585753,7402.059420,1915.238745
179.213795,4145.153275,6809.894666,-306.438199
179.214115,3849.070898,8364.327145,-766.095498
179.214436,5033.400406,10214.842000,306.438199
179.214756,4071.132681,8512.368333,766.095498
179.215077,4737.318029,6883.915261,-153.219100
179.215397,6291.750507,6809.894666,-306.438199
179.215718,4885.359217,8808.450710,536.266849
179.216038,3256.906145,8734.430116,229.828649
179.216358,4959.379811,7920.203579,-919.314598
179.216679,4959.379811,8438.347739,-1072.533697
179.216999,5477.523971,8290.306550,1072.533697
179.217320,5699.585753,9104.533087,919.314598
179.217640,5551.544565,7698.141797,0.000000
179.217961,4367.215058,5107.421000,-919.314598
179.218281,4811.338623,3775.050304,76.609550
179.218602,6661.853478,6513.812290,229.828649
179.218922,6587.832884,8660.409521,76.609550
179.219243,6439.791695,9178.553681,-153.219100
179.219563,9252.574275,8438.347739,0.000000
179.219883,8364.327145,7624.121203,306.438199
179.220204,6439.791695,5551.544565,76.609550
179.220524,6513.812290,5329.482782,-766.095498
179.220845,6883.915261,6883.915261,-1762.019645
179.221165,6069.688724,8216.285956,-2145.067394
179.221486,5699.585753,6587.832884,-2834.553343
179.221806,5773.606348,6809.894666,-3447.429741
179.222127,5477.523971,10066.800811,0.000000
179.222447,3775.050304,11843.295072,3140.991542
179.222767,3404.947333,9696.697840,1455.581446
179.223088,3701.029710,7179.997637,229.828649
179.223408,3182.885551,7328.038826,306.438199
179.223729,2072.576638,9844.739029,689.485948
179.224049,1258.350101,9548.656652,-306.438199
179.224370,2960.823768,8882.471304,-919.314598
179.224690,4515.256246,10140.821405,229.828649
179.225011,3775.050304,10732.986159,1225.752797
179.225331,2368.659014,10288.862594,1149.143247
179.225652,1702.473667,9104.533087,0.000000
179.225972,3478.967927,8290.306550,689.485948
179.226292,4071.132681,7105.977043,1149.143247
179.226613,4515.256246,5699.585753,-229.828649
179.226933,5403.503377,7624.121203,-612.876398
179.227254,5995.668130,9992.780217,-306.438199
179.227574,5995.668130,10955.047942,-1991.848295
179.227895,7994.224174,8956.491898,-2221.676944
179.228215,7550.100608,5329.482782,-1072.533697
179.228536,8216.285956,5477.523971,1762.019645
179.228856,6809.894666,7624.121203,2757.943793
179.229176,5329.482782,9030.512492,-612.876398
179.229497,5847.626942,8734.430116,-2911.162892
179.229817,6587.832884,7698.141797,-3064.381992
179.230138,5477.523971,7105.977043,-1532.190996
179.230458,5551.544565,5921.647536,1149.143247
179.230779,4811.338623,6661.853478,1225.752797
179.231099,3552.988522,6809.894666,536.266849
179.231420,3182.885551,7254.018232,0.000000
179.231740,4071.132681,7920.203579,-383.047749
179.232061,3404.947333,8142.265362,-459.657299
179.232381,5329.482782,10066.800811,919.314598
179.232701,6661.853478,9992.780217,1838.629195
179.233022,4959.379811,7254.018232,306.438199
179.233342,5033.400406,5477.523971,229.828649
179.233663,6217.729913,7179.997637,612.876398
179.233983,4737.318029,8438.347739,0.000000
179.234304,5107.421000,8290.306550,153.219100
179.234624,7698.141797,6217.729913,-153.219100
179.234945,7920.203579,5699.585753,0.000000
179.235265,7550.100608,6809.894666,536.266849
179.235585,6217.729913,7402.059420,-306.438199
179.235906,5033.400406,5995.668130,-2757.943793
179.236226,6587.832884,6365.771101,-995.924147
179.236547,7105.977043,6957.935855,-612.876398
179.236867,5403.503377,6513.812290,-1608.800546
179.237188,5995.668130,9178.553681,-536.266849
179.237508,5773.606348,12805.562797,995.924147
179.237829,3849.070898,11251.130318,-1072.533697
179.238149,4589.276840,7402.059420,-2068.457845
179.238469,4293.194464,6513.812290,-1608.800546
179.238790,3108.864956,8290.306550,2298.286494
179.239110,1628.453072,9844.739029,2145.067394
179.239431,2812.782580,8956.491898,-536.266849
179.239751,3923.091493,7846.182985,-2451.505594
179.240072,4293.194464,8882.471304,-689.485948
179.240392,4589.276840,10288.862594,1455.581446
179.240713,3701.029710,10140.821405,995.924147
179.241033,3256.906145,8660.409521,919.314598
179.241354,4885.359217,7179.997637,1685.410096
179.241674,5625.565159,8364.327145,842.705048
179.241994,4589.276840,10362.883188,-689.485948
179.242315,4589.276840,11695.253884,-2145.067394
179.242635,5477.523971,11103.089130,-1762.019645
179.242956,5699.585753,9400.615463,-229.828649
179.243276,5847.626942,7031.956449,1532.190996
179.243597,4737.318029,5181.441594,1455.581446
179.243917,4071.132681,6587.832884,153.219100
179.244238,2664.741391,7254.018232,-1378.971896
179.244558,4515.256246,7105.977043,-2834.553343
179.244878,5995.668130,6957.935855,-2451.505594
179.245199,8290.306550,7920.203579,0.000000
179.245519,6439.791695,9104.533087,1225.752797
179.245840,4219.173869,8882.471304,-995.924147
179.246160,3627.009116,7254.018232,-1838.629195
179.246481,5699.585753,6809.894666,-689.485948
179.246801,5773.606348,7846.182985,-459.657299
179.247122,5699.585753,9992.780217,-153.219100
179.247442,7402.059420,11103.089130,-1608.800546
179.247763,6291.750507,9104.533087,-1762.019645
179.248083,4367.215058,6291.750507,-229.828649
179.248403,5847.626942,6069.688724,1455.581446
179.248724,4071.132681,6217.729913,1532.190996
179.249044,3256.906145,6069.688724,1302.362347
179.249365,4811.338623,6439.791695,1149.143247
179.249685,4663.297435,7402.059420,-306.438199
179.250006,3256.906145,7994.224174,-1302.362347
179.250326,4589.276840,8142.265362,-229.828649
179.250647,5625.565159,8512.368333,612.876398
179.250967,5773.606348,7846.182985,689.485948
179.251287,5181.441594,7031.956449,-306.438199
179.251608,4515.256246,7105.977043,-1378.971896
179.251928,5403.503377,9474.636058,-459.657299
179.252249,6365.771101,10140.821405,842.705048
179.252569,6587.832884,8142.265362,-689.485948
179.252890,8364.327145,7105.977043,-1991.848295
179.253210,5773.606348,5847.626942,-2451.505594
179.253531,3404.947333,5625.565159,-2221.676944
179.253851,3404.947333,5403.503377,-689.485948
179.254171,5847.626942,6439.791695,76.609550
179.254492,5773.606348,8216.285956,0.000000
179.254812,6143.709319,10436.903782,-383.047749
179.255133,3923.091493,11769.274478,-842.705048
179.255453,3923.091493,12805.562797,76.609550
179.255774,4071.132681,12657.521608,1302.362347
179.256094,3627.009116,9104.533087,-306.438199
179.256415,2664.741391,5995.668130,-919.314598
179.256735,3256.906145,7624.121203,1685.410096
179.257056,740.205942,10510.924376,1991.848295
179.257376,222.061783,11103.089130,229.828649
179.257696,2294.638420,9252.574275,-766.095498
179.258017,3256.906145,8734.430116,-383.047749
179.258337,2590.720797,8364.327145,2221.676944
179.258658,2590.720797,7328.038826,2911.162892
179.258978,2664.741391,7254.018232,536.266849
179.259299,3108.864956,7994.224174,0.000000
179.259619,4515.256246,9252.574275,-459.657299
179.259940,6661.853478,10288.862594,-1991.848295
179.260260,7254.018232,10288.862594,-2451.505594
179.260580,8142.265362,10066.800811,-995.924147
179.260901,6513.812290,7994.224174,-689.485948
179.261221,6513.812290,6143.709319,-766.095498
179.261542,7254.018232,4737.318029,-229.828649
179.261862,6217.729913,5107.421000,-919.314598
179.262183,6143.709319,7105.977043,-919.314598
179.262503,6291.750507,8364.327145,-1072.533697
179.262824,5329.482782,6365.771101,-1991.848295
179.263144,6217.729913,5107.421000,-612.876398
179.263465,6217.729913,7254.018232,153.219100
179.263785,4737.318029,8438.347739,76.609550
179.264105,2738.761985,7105.977043,0.000000
179.264426,4885.359217,7624.121203,-919.314598
179.264746,5181.441594,8882.471304,229.828649
179.265067,3997.112087,10510.924376,919.314598
179.265387,4737.318029,10066.800811,689.485948
179.265708,4663.297435,8660.409521,-689.485948
179.266028,4441.235652,6809.894666,0.000000
179.266349,4293.194464,6809.894666,0.000000
179.266669,2886.803174,4959.379811,-1991.848295
179.266989,4441.235652,6143.709319,-766.095498
179.267310,5181.441594,7772.162391,1915.238745
179.267630,6217.729913,8438.347739,1378.971896
179.267951,7105.977043,7920.203579,-766.095498
179.268271,6513.812290,9474.636058,-1455.581446
179.268592,5699.585753,10140.821405,-459.657299
179.268912,5625.565159,9474.636058,153.219100
179.269233,6291.750507,6365.771101,-612.876398
179.269553,7105.977043,6513.812290,-689.485948
179.269874,7624.121203,8734.430116,0.000000
179.270194,5181.441594,10584.944971,-2145.067394
179.270514,4219.173869,9548.656652,-3370.820191
179.270835,5847.626942,8660.409521,-1608.800546
179.271155,5255.462188,6735.874072,919.314598
179.271476,3923.091493,6217.729913,1838.629195
179.271796,3256.906145,8142.265362,1532.190996
179.272117,2294.638420,9326.594869,-229.828649
179.272437,2516.700203,9992.780217,-306.438199
179.272758,3997.112087,10510.924376,-306.438199
179.273078,3627.009116,9918.759623,-383.047749
179.273398,4515.256246,10288.862594,919.314598
179.273719,4589.276840,10584.944971,1685.410096
179.274039,3108.864956,9992.780217,0.000000
179.274360,3404.947333,8290.306550,-459.657299
179.274680,3701.029710,7550.100608,459.657299
179.275001,3182.885551,8586.388927,1302.362347
179.275321,3849.070898,9992.780217,1455.581446
179.275642,3775.050304,8586.388927,459.657299
179.275962,3627.009116,5699.585753,-766.095498
179.276282,5847.626942,5773.606348,766.095498
179.276603,4515.256246,7179.997637,1225.752797
179.276923,3701.029710,6735.874072,-459.657299
179.277244,6661.853478,7624.121203,0.000000
179.277564,7994.224174,7624.121203,459.657299
179.277885,6217.729913,6809.894666,153.219100
179.278205,7105.977043,6217.729913,-536.266849
179.278526,7624.121203,7550.100608,-1991.848295
179.278846,6291.750507,7698.141797,-1532.190996
179.279167,7772.162391,5625.565159,0.000000
179.279487,7772.162391,4737.318029,-1225.752797
179.279807,5329.482782,4959.379811,-1608.800546
179.280128,4589.276840,6587.832884,-153.219100
179.280448,4515.256246,7920.203579,383.047749
179.280769,5329.482782,7105.977043,-459.657299
179.281089,5403.503377,7550.100608,-612.876398
179.281410,4663.297435,8734.430116,-766.095498
179.281730,2960.823768,10066.800811,-919.314598
179.282051,1776.494261,10955.047942,919.314598
179.282371,3108.864956,9474.636058,1532.190996
179.282691,4515.256246,8586.388927,153.219100
179.283012,4071.132681,9030.512492,459.657299
179.283332,1332.370696,9474.636058,-612.876398
179.283653,148.041188,8364.327145,-229.828649
179.283973,2442.679609,8068.244768,2221.676944
179.284294,4145.153275,7179.997637,2374.896044
179.284614,4367.215058,5033.400406,1072.533697
179.284935,3552.988522,5773.606348,-842.705048
179.285255,4737.318029,9696.697840,-1762.019645
179.285576,5403.503377,11917.315666,-1685.410096
179.285896,7031.956449,10140.821405,-2068.457845
179.286216,10362.883188,7772.162391,-1532.190996
179.286537,10658.965565,8956.491898,153.219100
179.286857,7031.956449,9622.677246,0.000000
179.287178,5995.668130,8216.285956,-1532.190996
179.287498,6069.688724,6513.812290,-2911.162892
179.287819,7994.224174,6957.935855,-919.314598
179.288139,7846.182985,7105.977043,766.095498
179.288460,6883.915261,6291.750507,-1072.533697
179.288780,4737.318029,5625.565159,-2681.334243
179.289100,3627.009116,6217.729913,-995.924147
179.289421,3256.906145,6513.812290,-383.047749
179.289741,4515.256246,6735.874072,-306.438199
179.290062,4441.235652,8216.285956,-459.657299
179.290382,5625.565159,11695.253884,0.000000
179.290703,3849.070898,12435.459826,-842.705048
179.291023,3034.844362,11769.274478,-1991.848295
179.291344,4219.173869,10436.903782,-1225.752797
179.291664,5181.441594,9400.615463,1455.581446
179.291985,4811.338623,8734.430116,2068.457845
179.292306,5181.441594,8364.327145,1685.410096
179.292626,4071.132681,7105.977043,383.047749
179.292947,3923.091493,6217.729913,306.438199
179.293268,6587.832884,5107.421000,842.705048
179.293588,6513.812290,4589.276840,459.657299
179.293909,6439.791695,4811.338623,-153.219100
179.294229,7402.059420,7105.977043,-689.485948
179.294550,5995.668130,9918.759623,-1455.581446
179.294871,5773.606348,10066.800811,-1685.410096
179.295191,8068.244768,8808.450710,-536.266849
179.295512,8512.368333,8882.471304,0.000000
179.295833,6735.874072,8808.450710,-383.047749
179.296153,4737.318029,8882.471304,-1762.019645
179.296474,3627.009116,6883.915261,-1838.629195
179.296795,4663.297435,7402.059420,76.609550
179.297115,5255.462188,7920.203579,1991.848295
179.297436,3330.926739,6661.853478,306.438199
179.297757,2812.782580,5551.544565,-1072.533697
179.298077,3997.112087,7402.059420,612.876398
179.298398,2960.823768,8660.409521,1532.190996
179.298719,2516.700203,6883.915261,919.314598
179.299039,3701.029710,6883.915261,-995.924147
179.299360,5255.462188,10881.027347,459.657299
179.299681,5477.523971,13989.892304,3064.381992
179.300001,5329.482782,12509.480420,1455.581446
179.300322,4515.256246,8364.327145,-766.095498
179.300643,4959.379811,6291.750507,1149.143247
179.300963,4811.338623,7402.059420,2911.162892
179.301284,3404.947333,6365.771101,1762.019645
179.301604,3256.906145,4145.153275,-842.705048
179.301925,5773.606348,4145.153275,-1225.752797
179.302246,4959.379811,5329.482782,-76.609550
179.302566,5181.441594,7105.977043,766.095498
179.302887,6365.771101,8142.265362,-842.705048
179.303208,6735.874072,9104.533087,-2911.162892
179.303528,5921.647536,8956.491898,-2604.724693
179.303849,7105.977043,7846.182985,-995.924147
179.304170,7031.956449,8512.368333,-536.266849
179.304490,5477.523971,9400.615463,0.000000
179.304811,4663.297435,10658.965565,-919.314598
179.305132,4959.379811,9326.594869,-2221.676944
179.305452,3997.112087,7550.100608,-842.705048
179.305773,6069.688724,7105.977043,689.485948
179.306094,5847.626942,7105.977043,1225.752797
179.306414,4663.297435,7328.038826,536.266849
179.306735,3182.885551,6143.709319,0.000000
179.307056,4663.297435,5699.585753,1455.581446
179.307376,5551.544565,7031.956449,1532.190996
179.307697,4737.318029,8734.430116,612.876398
179.308018,3775.050304,9400.615463,-1455.581446
179.308338,6217.729913,9104.533087,-1685.410096
179.308659,7105.977043,9918.759623,76.609550
179.308980,6883.915261,9326.594869,229.828649
179.309300,6291.750507,8734.430116,-383.047749
179.309621,5773.606348,8808.450710,-1225.752797
179.309941,4441.235652,10214.842000,0.000000
179.310262,5699.585753,8882.471304,1455.581446
179.310583,5847.626942,5255.462188,0.000000
179.310903,7698.141797,4885.359217,-842.705048
179.311224,5625.565159,6587.832884,-383.047749
179.311545,5033.400406,7624.121203,-1762.019645
179.311865,5329.482782,6587.832884,-2451.505594
179.312186,7328.038826,6513.812290,-2451.505594
179.312507,8216.285956,8586.388927,383.047749
179.312827,7105.977043,9992.780217,1225.752797
179.313148,4515.256246,9548.656652,-1532.190996
179.313469,4811.338623,10732.986159,-1685.410096
179.313789,4737.318029,10362.883188,-612.876398
179.314110,5107.421000,9400.615463,-689.485948
179.314431,4071.132681,6809.894666,-842.705048
179.314751,2812.782580,7105.977043,-1991.848295
179.315072,3108.864956,9104.533087,689.485948
179.315393,3775.050304,8808.450710,2681.334243
179.315713,3627.009116,7772.162391,1915.238745
179.316034,3034.844362,6661.853478,1149.143247
179.316355,3108.864956,6735.874072,1532.190996
179.316675,2738.761985,8216.285956,536.266849
179.316996,3997.112087,8142.265362,612.876398
179.317316,6513.812290,8586.388927,842.705048
179.317637,7624.121203,9252.574275,-383.047749
179.317958,6143.709319,9770.718434,-1532.190996
179.318278,5255.462188,10881.027347,-612.876398
179.318599,4959.379811,9622.677246,306.438199
179.318920,5699.585753,7994.224174,1608.800546
179.319240,5921.647536,7031.956449,1302.362347
179.319561,4441.235652,5625.565159,-306.438199
179.319882,3552.988522,5699.585753,-1608.800546
179.320202,3627.009116,6883.915261,-1302.362347
179.320523,3997.112087,7920.203579,-689.485948
179.320844,4071.132681,7476.080014,76.609550
179.321164,5181.441594,6365.771101,0.000000
179.321485,5551.544565,7698.141797,76.609550
179.321806,4959.379811,10510.924376,1149.143247
179.322126,4441.235652,10436.903782,612.876398
179.322447,4219.173869,9622.677246,-1838.629195
179.322768,5477.523971,8734.430116,-1608.800546
179.323088,6069.688724,7994.224174,-229.828649
179.323409,5625.565159,7105.977043,0.000000
179.323730,3849.070898,6439.791695,-306.438199
179.324050,4515.256246,7920.203579,229.828649
179.324371,5625.565159,8660.409521,766.095498
179.324692,5477.523971,7254.018232,995.924147
179.325012,4441.235652,5551.544565,1532.190996
179.325333,5551.544565,6809.894666,1838.629195
179.325653,4737.318029,7920.203579,1225.752797
179.325974,3775.050304,6957.935855,0.000000
179.326295,6291.750507,6587.832884,-1378.971896
179.326615,8290.306550,7994.224174,-612.876398
179.326936,6069.688724,9400.615463,-1225.752797
179.327257,5181.441594,9104.533087,-1225.752797
179.327577,5477.523971,9104.533087,-766.095498
179.327898,5699.585753,8660.409521,-229.828649
179.328219,6957.935855,7846.182985,459.657299
179.328539,6217.729913,6439.791695,-1378.971896
179.328860,4071.132681,5921.647536,-3064.381992
179.329181,3849.070898,7105.977043,-1149.143247
179.329501,4219.173869,7476.080014,0.000000
179.329822,6143.709319,7846.182985,-766.095498
179.330143,5847.626942,8290.306550,-536.266849
179.330463,4959.379811,9252.574275,-612.876398
179.330784,4737.318029,10881.027347,-153.219100
179.331105,3997.112087,9622.677246,919.314598
179.331425,3997.112087,8216.285956,612.876398
179.331746,5255.462188,7624.121203,1072.533697
179.332067,4737.318029,9844.739029,919.314598
179.332387,3849.070898,9992.780217,0.000000
179.332708,3404.947333,8734.430116,-1378.971896
179.333028,3997.112087,7624.121203,-1762.019645
179.333349,4293.194464,7105.977043,-995.924147
179.333670,3849.070898,6809.894666,459.657299
179.333990,4441.235652,7698.141797,689.485948
179.334311,4663.297435,9400.615463,842.705048
179.334632,3404.947333,10807.006753,383.047749
179.334952,3923.091493,10584.944971,-995.924147
179.335273,4293.194464,9696.697840,-995.924147
179.335594,5773.606348,9844.739029,153.219100
179.335914,5403.503377,9030.512492,306.438199
179.336235,5921.647536,6661.853478,-383.047749
179.336556,4145.153275,4811.338623,-1455.581446
179.336876,4811.338623,6365.771101,0.000000
179.337197,6513.812290,9548.656652,1455.581446
179.337518,7031.956449,9844.739029,766.095498
179.337838,6661.853478,7550.100608,-153.219100
179.338159,9030.512492,5847.626942,76.609550
179.338480,6069.688724,5625.565159,229.828649
179.338800,3330.926739,5403.503377,-766.095498
179.339121,3849.070898,6143.709319,-1762.019645
179.339442,6365.771101,7920.203579,-612.876398
179.339762,5921.647536,8956.491898,306.438199
179.340083,6513.812290,10510.924376,995.924147
179.340403,3997.112087,9844.739029,-229.828649
179.340724,2590.720797,9104.533087,153.219100
179.341045,3627.009116,7994.224174,2451.505594
179.341365,3997.112087,5403.503377,1455.581446
179.341686,3849.070898,5255.462188,229.828649
179.342007,3627.009116,6291.750507,-306.438199
179.342327,2442.679609,8216.285956,-2068.457845
179.342648,4367.215058,8882.471304,-1072.533697
179.342969,5551.544565,8142.265362,306.438199
179.343289,5847.626942,6883.915261,919.314598
179.343610,5403.503377,7254.018232,995.924147
179.343931,4589.276840,9030.512492,1072.533697
179.344251,2664.741391,9178.553681,306.438199
179.344572,5699.585753,8808.450710,-153.219100
179.344893,7846.182985,8512.368333,-459.657299
179.345213,6809.894666,7624.121203,-995.924147
179.345534,5403.503377,6735.874072,-689.485948
179.345855,5551.544565,7402.059420,-536.266849
179.346175,3923.091493,8290.306550,-1532.190996
179.346496,3478.967927,7698.141797,-766.095498
179.346817,5403.503377,5699.585753,-919.314598
179.347137,7402.059420,7328.038826,229.828649
179.347458,3404.947333,9696.697840,1149.143247
179.347779,2516.700203,10066.800811,-1149.143247
179.348099,3034.844362,9770.718434,-2451.505594
179.348420,4959.379811,10140.821405,153.219100
179.348740,5403.503377,10881.027347,1762.019645
179.349061,5107.421000,9474.636058,76.609550
179.349382,3923.091493,8290.306550,-2068.457845
179.349702,3627.009116,9992.780217,229.828649
179.350023,4589.276840,10066.800811,2298.286494
179.350344,5329.482782,8734.430116,1455.581446
179.350664,4737.318029,7105.977043,536.266849
179.350985,3775.050304,7179.997637,-76.609550
179.351306,3330.926739,7994.224174,459.657299
179.351626,3552.988522,7846.182985,0.000000
179.351947,4071.132681,7772.162391,-1838.629195
179.352268,5995.668130,7698.141797,-1149.143247
179.352588,5477.523971,7994.224174,-383.047749
179.352909,5625.565159,9770.718434,536.266849
179.353230,4885.359217,9770.718434,919.314598
179.353550,5995.668130,9622.677246,-995.924147
179.353871,6143.709319,8364.327145,-1608.800546
179.354192,5255.462188,7476.080014,-1685.410096
179.354512,6513.812290,6587.832884,-919.314598
179.354833,5995.668130,6661.853478,-842.705048
179.355154,5181.441594,7550.100608,-1608.800546
179.355474,5699.585753,7402.059420,-1762.019645
179.355795,5773.606348,6365.771101,-919.314598
179.356115,6439.791695,6365.771101,1302.362347
179.356436,5699.585753,7179.997637,2451.505594
179.356757,4811.338623,7994.224174,919.314598
179.357077,4441.235652,7179.997637,-1072.533697
179.357398,7105.977043,7698.141797,-689.485948
179.357719,6661.853478,8586.388927,-842.705048
179.358039,6513.812290,8660.409521,-76.609550
179.358360,5255.462188,8808.450710,76.609550
179.358681,4589.276840,9474.636058,1378.971896
179.359001,2886.803174,8364.327145,1991.848295
179.359322,3182.885551,7254.018232,995.924147
179.359643,2516.700203,6513.812290,0.000000
179.359963,3849.070898,7624.121203,153.219100
179.360284,3108.864956,8512.368333,153.219100
179.360605,3701.029710,8882.471304,-1378.971896
179.360925,3478.967927,8364.327145,-766.095498
179.361246,3997.112087,9548.656652,306.438199
179.361567,3182.885551,8586.388927,1838.629195
179.361887,4959.379811,8586.388927,1072.533697
179.362208,5181.441594,7846.182985,-1225.752797
179.362529,4367.215058,8216.285956,-2068.457845
179.362849,5847.626942,9474.636058,-76.609550
179.363170,7105.977043,11029.068536,1072.533697
179.363491,5477.523971,9104.533087,-459.657299
179.363811,7105.977043,8216.285956,-1378.971896
179.364132,6513.812290,6365.771101,-995.924147
179.364452,4737.318029,5995.668130,-995.924147
179.364773,4441.235652,6883.915261,1302.362347
179.365094,4811.338623,7698.141797,1225.752797
179.365414,4737.318029,8290.306550,229.828649
179.365735,4145.153275,7846.182985,0.000000
179.366056,3404.947333,8364.327145,-919.314598
179.366376,3330.926739,7772.162391,-153.219100
179.366697,3849.070898,8734.430116,1225.752797
179.367018,3552.988522,10288.862594,842.705048
179.367338,2590.720797,9548.656652,-995.924147
179.367659,3404.947333,9474.636058,-612.876398
179.367980,3701.029710,10510.924376,383.047749
179.368300,2664.741391,9844.739029,-153.219100
179.368621,3701.029710,7402.059420,-1532.190996
179.368942,4885.359217,6143.709319,-1532.190996
179.369262,4959.379811,5403.503377,-689.485948
179.369583,5773.606348,6365.771101,536.266849
179.369904,5403.503377,6365.771101,0.000000
179.370224,6143.709319,7179.997637,-2374.896044
179.370545,7402.059420,7105.977043,-2145.067394
179.370866,8142.265362,7698.141797,-1302.362347
179.371186,9696.697840,7105.977043,-383.047749
179.371507,8808.450710,7328.038826,995.924147
179.371827,8586.388927,8512.368333,689.485948
179.372148,8290.306550,8882.471304,-459.657299
179.372469,7550.100608,7105.977043,-1225.752797
179.372789,6365.771101,5921.647536,-1072.533697
179.373110,5477.523971,5699.585753,229.828649
179.373431,5255.462188,6957.935855,0.000000
179.373751,4145.153275,7476.080014,-1378.971896
179.374072,3478.967927,7698.141797,-2528.115143
179.374393,3478.967927,8956.491898,-1378.971896
179.374713,2368.659014,9474.636058,536.266849
179.375034,1036.288319,8808.450710,1991.848295
179.375355,3034.844362,10362.883188,1991.848295
179.375675,3775.050304,10881.027347,459.657299
179.375996,2442.679609,10584.944971,-1532.190996
179.376317,3108.864956,10066.800811,-2145.067394
179.376637,4737.318029,10140.821405,-995.924147
179.376958,4367.215058,9992.780217,1608.800546
179.377279,5255.462188,9326.594869,1072.533697
179.377599,5181.441594,7550.100608,-153.219100
179.377920,4367.215058,7624.121203,-306.438199
179.378241,3849.070898,8290.306550,536.266849
179.378561,5033.400406,8142.265362,1225.752797
179.378882,5329.482782,7994.224174,-229.828649
179.379203,5255.462188,7772.162391,-612.876398
179.379523,4811.338623,6513.812290,0.000000
179.379844,6143.709319,7031.956449,-76.609550
179.380164,5773.606348,8142.265362,153.219100
179.380485,4219.173869,7550.100608,-1302.362347
179.380806,6883.915261,7772.162391,-842.705048
179.381126,6735.874072,8142.265362,-383.047749
179.381447,5699.585753,8808.450710,229.828649
179.381768,5921.647536,8290.306550,612.876398
179.382088,5477.523971,8216.285956,-1455.581446
179.382409,3997.112087,7846.182985,-2528.115143
179.382730,4071.132681,5255.462188,-1302.362347
179.383050,4885.359217,4441.235652,459.657299
179.383371,5329.482782,5995.668130,1302.362347
179.383692,3034.844362,8068.244768,1072.533697
179.384012,3256.906145,8956.491898,-612.876398
179.384333,4367.215058,9030.512492,-995.924147
179.384654,5995.668130,10436.903782,536.266849
179.384974,6143.709319,10140.821405,1608.800546
179.385295,5329.482782,7994.224174,1072.533697
179.385616,4737.318029,7476.080014,-306.438199
179.385936,3923.091493,6809.894666,0.000000
179.386257,4293.194464,7476.080014,383.047749
179.386578,5477.523971,7550.100608,919.314598
179.386898,4441.235652,6587.832884,-76.609550
179.387219,4959.379811,6809.894666,-229.828649
179.387539,5329.482782,6883.915261,-459.657299
179.387860,5551.544565,6069.688724,-536.266849
179.388181,5699.585753,6587.832884,0.000000
179.388501,7179.997637,8290.306550,-383.047749
179.388822,5699.585753,8808.450710,-919.314598
179.389143,7328.038826,8734.430116,-766.095498
179.389463,7476.080014,8512.368333,0.000000
179.389784,7031.956449,7846.182985,-153.219100
179.390105,8512.368333,8364.327145,153.219100
179.390425,7994.224174,8438.347739,-306.438199
179.390746,4441.235652,6735.874072,-2451.505594
179.391067,5551.544565,7031.956449,-1532.190996
179.391387,6069.688724,8660.409521,-383.047749
179.391708,4145.153275,8364.327145,153.219100
179.392029,5329.482782,7179.997637,-766.095498
179.392349,6291.750507,7698.141797,-1762.019645
179.392670,1702.473667,9178.553681,-1149.143247
179.392991,1998.556043,9696.697840,2298.286494
179.393311,2960.823768,9326.594869,2834.553343
179.393632,3849.070898,10288.862594,1608.800546
179.393953,4515.256246,10955.047942,306.438199
179.394273,2368.659014,9178.553681,-1378.971896
179.394594,1554.432478,7476.080014,-2911.162892
179.394915,4589.276840,9104.533087,919.314598
179.395235,3256.906145,9326.594869,2221.676944
179.395556,5699.585753,8660.409521,0.000000
179.395877,5699.585753,8290.306550,-1149.143247
179.396198,3627.009116,9252.574275,-1608.800546
179.396518,3997.112087,9400.615463,612.876398
179.396839,4737.318029,8216.285956,1455.581446
179.397160,5847.626942,7254.018232,-383.047749
179.397480,5625.565159,6957.935855,-536.266849
179.397801,4811.338623,7328.038826,-1072.533697
179.398122,5181.441594,7476.080014,-1685.410096
179.398443,4811.338623,7179.997637,-229.828649
179.398763,6217.729913,7772.162391,0.000000
179.399084,7402.059420,8290.306550,-306.438199
179.399405,6809.894666,7920.203579,-153.219100
179.399725,5255.462188,8216.285956,229.828649
179.400046,4885.359217,8290.306550,536.266849
179.400367,4737.318029,7624.121203,-306.438199
179.400688,4145.153275,6143.709319,-1072.533697
179.401008,4367.215058,4959.379811,-1149.143247
179.401329,5551.544565,6439.791695,76.609550
179.401650,3849.070898,7550.100608,0.000000
179.401970,3034.844362,8068.244768,0.000000
179.402291,4219.173869,8216.285956,0.000000
179.402612,5773.606348,8882.471304,612.876398
179.402933,6661.853478,10214.842000,1915.238745
179.403253,6661.853478,10214.842000,1302.362347
179.403574,6291.750507,7994.224174,-612.876398
179.403895,5847.626942,6883.915261,-1149.143247
179.404215,4959.379811,7031.956449,-1378.971896
179.404536,5699.585753,6957.935855,-995.924147
179.404857,7105.977043,5403.503377,0.000000
179.405178,6587.832884,5181.441594,1532.190996
179.405498,5921.647536,5699.585753,1608.800546
179.405819,5699.585753,6439.791695,766.095498
179.406140,4737.318029,8142.265362,-842.705048
179.406460,6439.791695,8512.368333,-689.485948
179.406781,7698.141797,7920.203579,383.047749
179.407102,9474.636058,7031.956449,153.219100
179.407423,6069.688724,5921.647536,-1072.533697
179.407743,4589.276840,7105.977043,-1991.848295
179.408064,5255.462188,10140.821405,-689.485948
179.408385,6809.894666,11103.089130,459.657299
179.408705,6735.874072,9400.615463,-536.266849
179.409026,5329.482782,7105.977043,-1072.533697
179.409347,3182.885551,6809.894666,-1608.800546
179.409668,2812.782580,9104.533087,76.609550
179.409988,1628.453072,10214.842000,1915.238745
179.410309,3923.091493,9844.739029,229.828649
179.410630,4367.215058,9178.553681,0.000000
179.410950,2368.659014,9400.615463,-153.219100
179.411271,74.020594,9770.718434,383.047749
179.411592,2146.597232,10510.924376,1072.533697
179.411913,2590.720797,10214.842000,1302.362347
179.412233,4145.153275,9178.553681,306.438199
179.412554,3923.091493,8068.244768,0.000000
179.412875,2738.761985,8882.471304,229.828649
179.413195,2368.659014,9696.697840,995.924147
179.413516,3997.112087,9918.759623,842.705048
179.413837,4515.256246,7254.018232,-1838.629195
179.414158,5921.647536,6291.750507,-2451.505594
179.414478,6587.832884,7698.141797,-459.657299
179.414799,5033.400406,9474.636058,0.000000
179.415120,3627.009116,9030.512492,-1072.533697
179.415440,5181.441594,7031.956449,-1608.800546
179.415761,6513.812290,6439.791695,0.000000
179.416082,8216.285956,7772.162391,1762.019645
179.416403,6365.771101,7328.038826,919.314598
179.416723,4959.379811,8364.327145,-2145.067394
179.417044,5033.400406,7698.141797,-1838.629195
179.417365,6365.771101,7624.121203,-919.314598
179.417685,7031.956449,7105.977043,-689.485948
179.418006,5847.626942,7920.203579,-612.876398
179.418327,5551.544565,8882.471304,-229.828649
179.418648,5625.565159,8290.306550,-383.047749
179.418968,3923.091493,6735.874072,-383.047749
179.419289,4589.276840,6513.812290,0.000000
179.419610,4959.379811,6217.729913,1072.533697
179.419930,4959.379811,6587.832884,1991.848295
179.420251,3330.926739,4885.359217,383.047749
179.420572,4737.318029,5921.647536,153.219100
179.420893,6143.709319,8586.388927,-383.047749
179.421213,6513.812290,10066.800811,76.609550
179.421534,6587.832884,8438.347739,229.828649
179.421855,9326.594869,7846.182985,-459.657299
179.422175,7105.977043,7328.038826,-766.095498
179.422496,4589.276840,7624.121203,-919.314598
179.422817,5033.400406,8142.265362,-459.657299
179.423138,7179.997637,9030.512492,766.095498
179.423458,6735.874072,8512.368333,842.705048
179.423779,5995.668130,7550.100608,-229.828649
179.424100,2664.741391,4663.297435,-2911.162892
179.424420,2664.741391,5255.462188,-2374.896044
179.424741,4737.318029,6809.894666,842.705048
179.425062,7105.977043,8734.430116,919.314598
179.425383,7105.977043,8882.471304,-842.705048
179.425703,5773.606348,9104.533087,-1608.800546
179.426024,4145.153275,10658.965565,-383.047749
179.426345,3775.050304,10955.047942,1378.971896
179.426665,4515.256246,9030.512492,1302.362347
179.426986,5625.565159,7105.977043,-459.657299
179.427307,5181.441594,6439.791695,-1532.190996
179.427628,3256.906145,8586.388927,-1149.143247
179.427948,2664.741391,9104.533087,-995.924147
179.428269,3775.050304,8438.347739,-536.266849
179.428590,4367.215058,8956.491898,153.219100
179.428910,4441.235652,9400.615463,1455.581446
179.429231,3478.967927,9326.594869,1991.848295
179.429552,2960.823768,9474.636058,2298.286494
179.429873,3108.864956,10066.800811,1072.533697
179.430193,2960.823768,9844.739029,-766.095498
179.430514,2442.679609,8068.244768,-2374.896044
179.430835,3256.906145,7624.121203,-995.924147
179.431155,3701.029710,9104.533087,1378.971896
179.431476,2368.659014,10658.965565,459.657299
179.431797,3034.844362,10362.883188,-612.876398
179.432118,3552.988522,9474.636058,-2298.286494
179.432438,4959.379811,8586.388927,-1378.971896
179.432759,5551.544565,7550.100608,766.095498
179.433080,5699.585753,6365.771101,459.657299
179.433400,5255.462188,6587.832884,-153.219100
179.433721,5329.482782,7328.038826,-612.876398
179.434042,5699.585753,8364.327145,-1762.019645
179.434363,6809.894666,7994.224174,-995.924147
179.434683,7846.182985,8068.244768,612.876398
179.435004,7624.121203,7105.977043,1685.410096
179.435325,6217.729913,6513.812290,1072.533697
179.435645,5477.523971,6143.709319,306.438199
179.435966,5847.626942,7846.182985,383.047749
179.436287,5033.400406,8364.327145,1149.143247
179.436608,6513.812290,7550.100608,76.609550
179.436928,7105.977043,6439.791695,-1149.143247
179.437249,4737.318029,6143.709319,-1302.362347
179.437570,4959.379811,5403.503377,0.000000
179.437890,5625.565159,6439.791695,2068.457845
179.438211,6143.709319,7624.121203,919.314598
179.438532,5477.523971,8068.244768,0.000000
179.438853,5255.462188,7550.100608,-1225.752797
179.439173,4515.256246,7846.182985,-1991.848295
179.439494,5699.585753,9104.533087,612.876398
179.439815,4737.318029,7994.224174,1532.190996
179.440135,6661.853478,7476.080014,-306.438199
179.440456,6217.729913,7920.203579,-995.924147
179.440777,3404.947333,9104.533087,-2068.457845
179.441098,3478.967927,8290.306550,-1149.143247
179.441418,6291.750507,8808.450710,1302.362347
179.441739,6661.853478,9400.615463,1685.410096
179.442060,5699.585753,7846.182985,1149.143247
179.442380,4663.297435,7698.141797,153.219100
179.442701,3034.844362,7994.224174,-1072.533697
179.443022,2294.638420,7179.997637,0.000000
179.443343,4663.297435,6439.791695,536.266849
179.443663,5255.462188,6217.729913,-153.219100
179.443984,5921.647536,8734.430116,-612.876398
179.444305,4885.359217,10510.924376,0.000000
179.444625,4145.153275,10066.800811,-306.438199
179.444946,4885.359217,9474.636058,-995.924147
179.445267,4959.379811,8142.265362,-919.314598
179.445588,4663.297435,7476.080014,-766.095498
179.445908,5181.441594,7772.162391,536.266849
179.446229,4293.194464,8142.265362,153.219100
179.446550,4145.153275,8068.244768,-919.314598
179.446870,3775.050304,8438.347739,-1762.019645
179.447191,4441.235652,8586.388927,-2221.676944
179.447512,4441.235652,7550.100608,-1838.629195
179.447833,5699.585753,7550.100608,0.000000
179.448153,6513.812290,9326.594869,919.314598
179.448474,6439.791695,10362.883188,1302.362347
179.448795,4293.194464,9770.718434,-612.876398
179.449115,4441.235652,9770.718434,-1149.143247
179.449436,4663.297435,9178.553681,-536.266849
179.449757,5995.668130,8586.388927,1455.581446
179.450078,5403.503377,6513.812290,766.095498
179.450398,4885.359217,4811.338623,-612.876398
179.450719,3108.864956,6069.688724,-1149.143247
179.451040,4737.318029,7846.182985,76.609550
179.451360,4663.297435,7550.100608,1149.143247
179.451681,7402.059420,7254.018232,1378.971896
179.452002,8512.368333,8660.409521,153.219100
179.452323,7031.956449,9696.697840,-689.485948
179.452643,4737.318029,7624.121203,-1149.143247
179.452964,7476.080014,6587.832884,612.876398
179.453285,7476.080014,5551.544565,1378.971896
179.453605,6883.915261,7772.162391,229.828649
179.453926,4663.297435,7994.224174,-2987.772442
179.454247,4589.276840,9474.636058,-3294.210641
179.454568,5699.585753,11103.089130,0.000000
179.454888,5255.462188,9326.594869,2298.286494
179.455209,5921.647536,6439.791695,1302.362347
179.455530,4441.235652,5699.585753,0.000000
179.455850,1184.329507,7772.162391,-689.485948
179.456171,740.205942,7550.100608,153.219100
179.456492,2590.720797,7698.141797,919.314598
179.456813,5255.462188,9548.656652,842.705048
179.457133,4663.297435,10732.986159,459.657299
179.457454,3108.864956,10584.944971,-383.047749
179.457775,2664.741391,8734.430116,-1302.362347
179.458095,2664.741391,7105.977043,842.705048
179.458416,3552.988522,6291.750507,2374.896044
179.458737,5477.523971,6365.771101,153.219100
179.459058,6069.688724,7920.203579,-1149.143247
179.459378,5551.544565,10214.842000,-383.047749
179.459699,5773.606348,8734.430116,306.438199
179.460020,6217.729913,5477.523971,-76.609550
179.460340,6143.709319,4515.256246,-383.047749
179.460661,6809.894666,6513.812290,-689.485948
179.460982,6661.853478,8808.450710,-306.438199
179.461303,6809.894666,9474.636058,-1225.752797
179.461623,5551.544565,8142.265362,-1455.581446
179.461944,6735.874072,8660.409521,383.047749
179.462265,4811.338623,9104.533087,689.485948
179.462585,4145.153275,8882.471304,-995.924147
179.462906,3182.885551,7105.977043,-2374.896044
179.463227,4145.153275,5847.626942,-1608.800546
179.463548,4515.256246,5699.585753,0.000000
179.463868,4959.379811,8068.244768,459.657299
179.464189,3701.029710,9770.718434,-766.095498
179.464510,4293.194464,10732.986159,-1378.971896
179.464830,5995.668130,9400.615463,0.000000
179.465151,6735.874072,7402.059420,842.705048
179.465472,4293.194464,5181.441594,689.485948
179.465793,4367.215058,7179.997637,-229.828649
179.466113,5403.503377,9918.759623,-383.047749
179.466434,5699.585753,10584.944971,306.438199
179.466755,7994.224174,8734.430116,0.000000
179.467075,8216.285956,7328.038826,-995.924147
179.467396,4959.379811,7402.059420,-459.657299
179.467717,4145.153275,8142.265362,689.485948
179.468038,6513.812290,7698.141797,1072.533697
179.468358,8364.327145,7105.977043,306.438199
179.468679,6513.812290,6883.915261,459.657299
179.469000,4219.173869,7550.100608,-1762.019645
179.469320,2590.720797,7994.224174,-1838.629195
179.469641,4219.173869,10288.862594,-153.219100
179.469962,6957.935855,9844.739029,-76.609550
179.470283,7031.956449,8438.347739,-995.924147
179.470603,4737.318029,6883.915261,-2068.457845
179.470924,2368.659014,8068.244768,-383.047749
179.471245,1924.535449,9252.574275,1762.019645
179.471565,4145.153275,9326.594869,919.314598
179.471886,5181.441594,8290.306550,-1072.533697
179.472207,6513.812290,7846.182985,-1685.410096
179.472528,4441.235652,7624.121203,-306.438199
179.472848,3034.844362,6735.874072,1149.143247
179.473169,4441.235652,6069.688724,459.657299
179.473490,5847.626942,7179.997637,0.000000
179.473810,5181.441594,7920.203579,-612.876398
179.474131,6365.771101,10510.924376,229.828649
179.474452,4885.359217,9770.718434,995.924147
179.474773,4663.297435,8586.388927,689.485948
179.475093,4737.318029,7254.018232,689.485948
179.475414,5107.421000,7624.121203,-229.828649
179.475735,3478.967927,7402.059420,0.000000
179.476055,2960.823768,7254.018232,0.000000
179.476376,3182.885551,7698.141797,-383.047749
179.476697,3034.844362,8364.327145,-383.047749
179.477018,3182.885551,8660.409521,-383.047749
179.477338,4737.318029,8956.491898,-1149.143247
179.477659,4071.132681,7328.038826,-76.609550
179.477980,4589.276840,8956.491898,612.876398
179.478301,3997.112087,8438.347739,383.047749
179.478621,4071.132681,8364.327145,-1378.971896
179.478942,5625.565159,9104.533087,-383.047749
179.479263,6735.874072,11325.150913,-229.828649
179.479583,5255.462188,8956.491898,459.657299
179.479904,5921.647536,7846.182985,1149.143247
179.480225,5107.421000,6883.915261,459.657299
179.480546,3552.988522,6365.771101,0.000000
179.480866,4367.215058,7328.038826,153.219100
179.481187,6143.709319,8660.409521,842.705048
179.481508,4441.235652,7031.956449,842.705048
179.481828,7179.997637,6735.874072,919.314598
179.482149,6513.812290,7402.059420,306.438199
179.482470,3627.009116,8290.306550,-459.657299
179.482791,4441.235652,6809.894666,76.609550
179.483111,6883.915261,7994.224174,459.657299
179.483432,6143.709319,7772.162391,0.000000
179.483753,5773.606348,7994.224174,0.000000
179.484073,5255.462188,7179.997637,-2374.896044
179.484394,5921.647536,8882.471304,-3064.381992
179.484715,4885.359217,8660.409521,-153.219100
179.485036,5403.503377,7254.018232,-306.438199
179.485356,6883.915261,7031.956449,-1225.752797
179.485677,5181.441594,7920.203579,-306.438199
179.485998,2664.741391,8808.450710,-536.266849
179.486318,4219.173869,7920.203579,-459.657299
179.486639,5477.523971,6957.935855,0.000000
179.486960,6143.709319,8290.306550,689.485948
179.487281,5403.503377,7772.162391,536.266849
179.487601,4441.235652,9474.636058,-1072.533697
179.487922,3997.112087,9770.718434,-1149.143247
179.488243,3701.029710,8734.430116,536.266849
179.488563,5033.400406,6809.894666,1149.143247
179.488884,5921.647536,5551.544565,612.876398
179.489205,5181.441594,7402.059420,229.828649
179.489526,4367.215058,10214.842000,-306.438199
179.489846,3701.029710,8956.491898,-1225.752797
179.490167,4367.215058,6809.894666,-689.485948
179.490488,6735.874072,6735.874072,459.657299
179.490808,6513.812290,8586.388927,689.485948
179.491129,4293.194464,9030.512492,-689.485948
179.491450,3552.988522,9178.553681,-2604.724693
179.491771,4293.194464,9178.553681,-2145.067394
179.492091,5625.565159,9548.656652,383.047749
179.492412,6735.874072,9918.759623,1685.410096
179.492733,4515.256246,8808.450710,459.657299
179.493053,3478.967927,8734.430116,-1685.410096
179.493374,3849.070898,8808.450710,-766.095498
179.493695,3627.009116,8660.409521,0.000000
179.494015,3627.009116,7254.018232,-612.876398
179.494336,4737.318029,7846.182985,-612.876398
179.494657,4293.194464,9326.594869,-459.657299
179.494977,3108.864956,8586.388927,459.657299
179.495298,3552.988522,6735.874072,842.705048
179.495619,4145.153275,6661.853478,1072.533697
179.495939,4885.359217,8956.491898,1378.971896
179.496260,4811.338623,8660.409521,1378.971896
179.496581,3478.967927,7476.080014,-919.314598
179.496901,5255.462188,6957.935855,-306.438199
179.497222,6513.812290,8808.450710,689.485948
179.497542,4811.338623,7994.224174,-306.438199
179.497863,6439.791695,6587.832884,-1915.238745
179.498184,9104.533087,7550.100608,-1608.800546
179.498504,5403.503377,8068.244768,229.828649
179.498825,4663.297435,5773.606348,229.828649
179.499146,5403.503377,4589.276840,0.000000
179.499466,7179.997637,5477.523971,-383.047749
179.499787,6439.791695,8290.306550,-383.047749
179.500108,5107.421000,8438.347739,-1838.629195
179.500428,4367.215058,7254.018232,-3524.039291
179.500749,7031.956449,9252.574275,-153.219100
179.501070,6439.791695,10584.944971,1608.800546
179.501390,5033.400406,8734.430116,0.000000
179.501711,4737.318029,8068.244768,-1608.800546
179.502031,4441.235652,8068.244768,-536.266849
179.502352,3034.844362,8290.306550,1762.019645
179.502673,4071.132681,6069.688724,3064.381992
179.502993,3404.947333,6291.750507,-229.828649
179.503314,3478.967927,6587.832884,-995.924147
179.503635,3182.885551,7920.203579,-459.657299
179.503955,3923.091493,8512.368333,-842.705048
179.504276,4663.297435,7031.956449,-1378.971896
179.504597,6809.894666,7994.224174,-1225.752797
179.504917,4737.318029,9326.594869,-1225.752797
179.505238,5181.441594,10140.821405,-842.705048
179.505559,6143.709319,10436.903782,766.095498
179.505879,6439.791695,10881.027347,76.609550
179.506200,5699.585753,10584.944971,-306.438199
179.506520,4885.359217,10362.883188,-1302.362347
179.506841,2664.741391,8734.430116,-1762.019645
179.507162,2812.782580,8068.244768,76.609550
179.507482,2368.659014,7920.203579,1915.238745
179.507803,2294.638420,7179.997637,1225.752797
179.508124,2220.617826,8068.244768,766.095498
179.508444,2516.700203,9326.594869,0.000000
179.508765,2146.597232,10288.862594,-459.657299
179.509086,3775.050304,9400.615463,536.266849
179.509406,4219.173869,7772.162391,-306.438199
179.509727,6143.709319,8956.491898,-306.438199
179.510048,5255.462188,11029.068536,-766.095498
179.510368,4367.215058,10881.027347,-1991.848295
179.510689,4885.359217,8734.430116,-2068.457845
179.511009,8808.450710,8142.265362,1072.533697
179.511330,7550.100608,8586.388927,3217.601092
179.511651,6735.874072,7476.080014,3064.381992
179.511971,4737.318029,4737.318029,-229.828649
179.512292,4959.379811,3478.967927,-1149.143247
179.512613,5699.585753,4293.194464,229.828649
179.512933,7254.018232,6217.729913,919.314598
179.513254,5847.626942,7179.997637,-1302.362347
179.513575,7254.018232,7328.038826,-2298.286494
179.513895,7550.100608,6661.853478,-1072.533697
179.514216,6217.729913,7550.100608,-383.047749
179.514537,4589.276840,7328.038826,-459.657299
179.514857,5107.421000,8660.409521,-1225.752797
179.515178,4219.173869,8438.347739,-2451.505594
179.515498,6439.791695,9696.697840,-383.047749
179.515819,5551.544565,8734.430116,383.047749
179.516140,3997.112087,6809.894666,-689.485948
179.516460,3404.947333,7328.038826,-612.876398
179.516781,3256.906145,8068.244768,0.000000
179.517102,2368.659014,6439.791695,-153.219100
179.517422,5107.421000,5699.585753,1302.362347
179.517743,3923.091493,6809.894666,766.095498
179.518064,4145.153275,8734.430116,383.047749
179.518384,4071.132681,8586.388927,919.314598
179.518705,5403.503377,8438.347739,76.609550
179.519026,6143.709319,9252.574275,0.000000
179.519346,6439.791695,9400.615463,612.876398
179.519667,4663.297435,8216.285956,-1532.190996
179.519987,7328.038826,7698.141797,-995.924147
179.520308,7550.100608,8512.368333,153.219100
179.520629,6513.812290,9104.533087,-459.657299
179.520949,5773.606348,9104.533087,-919.314598
179.521270,5403.503377,9474.636058,-229.828649
179.521591,3849.070898,9326.594869,459.657299
179.521911,4367.215058,7179.997637,919.314598
179.522232,3627.009116,4811.338623,-536.266849
179.522553,4367.215058,7179.997637,-1225.752797
179.522873,2072.576638,9104.533087,76.609550
179.523194,3627.009116,10066.800811,-153.219100
179.523515,3256.906145,9696.697840,-306.438199
179.523835,3849.070898,9844.739029,306.438199
179.524156,4219.173869,11621.233289,689.485948
179.524476,5625.565159,12065.356855,612.876398
179.524797,3478.967927,9918.759623,-1225.752797
179.525118,3923.091493,7920.203579,-1991.848295
179.525438,4663.297435,6587.832884,-1532.190996
179.525759,4885.359217,8216.285956,0.000000
179.526080,3404.947333,9400.615463,612.876398
179.526400,5329.482782,10362.883188,229.828649
179.526721,5181.441594,8438.347739,383.047749
179.527042,4293.194464,6735.874072,1532.190996
179.527362,5033.400406,5255.462188,3140.991542
179.527683,6069.688724,5329.482782,2451.505594
179.528004,5699.585753,5107.421000,229.828649
179.528324,6735.874072,5107.421000,-229.828649
179.528645,8512.368333,5921.647536,-536.266849
179.528965,9104.533087,7031.956449,-842.705048
179.529286,9400.615463,6365.771101,-919.314598
179.529607,11547.212695,6735.874072,-1225.752797
179.529927,9918.759623,5847.626942,-1685.410096
179.530248,8586.388927,3775.050304,-919.314598
179.530569,9400.615463,2220.617826,-306.438199
179.530889,10510.924376,3330.926739,-612.876398
179.531210,9770.718434,4959.379811,-689.485948
179.531531,9400.615463,5477.523971,-2298.286494
179.531851,9770.718434,4293.194464,-2834.553343
179.532172,10955.047942,5255.462188,0.000000
179.532493,9178.553681,6291.750507,1455.581446
179.532813,8216.285956,5329.482782,1149.143247
179.533134,8512.368333,5403.503377,76.609550
179.533454,8364.327145,5847.626942,-689.485948
179.533775,6661.853478,6513.812290,689.485948
179.534096,6957.935855,5329.482782,766.095498
179.534416,7772.162391,6291.750507,0.000000
179.534737,6809.894666,7254.018232,536.266849
179.535058,6291.750507,7105.977043,306.438199
179.535378,6883.915261,5995.668130,-919.314598
179.535699,7550.100608,5847.626942,-995.924147
179.536020,9400.615463,5995.668130,2068.457845
179.536340,9696.697840,5255.462188,3447.429741
179.536661,9918.759623,3775.050304,766.095498
179.536982,10214.842000,4737.318029,-842.705048
179.537302,10288.862594,5107.421000,-229.828649
179.537623,12213.398043,4885.359217,0.000000
179.537943,13175.665768,3849.070898,-306.438199
179.538264,13619.789333,3256.906145,-2145.067394
179.538585,13693.809927,5329.482782,-3064.381992
179.538905,13471.748144,6735.874072,-1762.019645
179.539226,10881.027347,5921.647536,-383.047749
179.539547,10732.986159,4441.235652,0.000000
179.539867,11251.130318,5181.441594,-919.314598
179.540188,9548.656652,6809.894666,-1838.629195
179.540509,6513.812290,7105.977043,-1915.238745
179.540829,8216.285956,7254.018232,-842.705048
179.541150,7624.121203,6439.791695,-306.438199
179.541471,6217.729913,5773.606348,612.876398
179.541791,5329.482782,6069.688724,2068.457845
179.542112,5107.421000,6883.915261,1991.848295
179.542432,4811.338623,8142.265362,1685.410096
179.542753,5403.503377,7550.100608,2145.067394
179.543074,6217.729913,5625.565159,612.876398
179.543394,8068.244768,5403.503377,-383.047749
179.543715,7772.162391,6513.812290,459.657299
179.544036,7772.162391,6069.688724,0.000000
179.544356,9252.574275,3997.112087,-612.876398
179.544677,11177.109724,2738.761985,-536.266849
179.544998,12287.418637,4219.173869,612.876398
179.545318,12435.459826,6069.688724,842.705048
179.545639,12065.356855,5181.441594,-1378.971896
179.545960,13545.768739,3627.009116,-1685.410096
179.546280,14285.974681,2590.720797,-612.876398
179.546601,13323.706956,3034.844362,-919.314598
179.546921,11547.212695,3775.050304,-2451.505594
179.547242,10732.986159,4293.194464,-3064.381992
179.547563,11325.150913,4145.153275,-1991.848295
179.547883,11325.150913,3552.988522,0.000000
179.548204,9622.677246,4367.215058,-536.266849
179.548525,7328.038826,6439.791695,-1685.410096
179.548845,6217.729913,7402.059420,-1302.362347
179.549166,6735.874072,7698.141797,229.828649
179.549487,7179.997637,6587.832884,1225.752797
179.549807,6957.935855,6513.812290,766.095498
179.550128,5477.523971,7772.162391,0.000000
179.550449,4293.194464,9030.512492,76.609550
179.550769,5403.503377,8142.265362,1685.410096
179.551090,6957.935855,5995.668130,2298.286494
179.551410,8216.285956,4515.256246,2374.896044
179.551731,7402.059420,5921.647536,1915.238745
179.552052,6513.812290,6809.894666,1302.362347
179.552372,7476.080014,4737.318029,842.705048
179.552693,11399.171507,2220.617826,1532.190996
179.553014,13471.748144,1628.453072,1072.533697
179.553334,12287.418637,2886.803174,-689.485948
179.553655,12139.377449,4885.359217,-2528.115143
179.553976,12731.542202,5921.647536,-3140.991542
179.554296,14804.118840,5551.544565,-1685.410096
179.554617,15840.407159,4737.318029,-766.095498
179.554938,13767.830521,4145.153275,-1378.971896
179.555258,11473.192101,4663.297435,-2451.505594
179.555579,10214.842000,5625.565159,-1991.848295
179.555899,9178.553681,4959.379811,-1608.800546
179.556220,9548.656652,3849.070898,-306.438199
179.556541,8882.471304,3849.070898,-459.657299
179.556861,7031.956449,4737.318029,0.000000
179.557182,6143.709319,6143.709319,0.000000
179.557503,5403.503377,6809.894666,-383.047749
179.557823,5921.647536,7402.059420,0.000000
179.558144,5403.503377,8142.265362,1455.581446
179.558465,5181.441594,9770.718434,2221.676944
179.558785,4737.318029,10362.883188,1762.019645
179.559106,3775.050304,8882.471304,689.485948
179.559427,4441.235652,6587.832884,153.219100
179.559747,5773.606348,4959.379811,306.438199
179.560068,6957.935855,5033.400406,689.485948
179.560388,8216.285956,5921.647536,1455.581446
179.560709,9770.718434,5847.626942,1225.752797
179.561030,11251.130318,5181.441594,1225.752797
179.561350,11251.130318,3775.050304,1072.533697
179.561671,11843.295072,1702.473667,-306.438199
179.561992,14656.077652,444.123565,-1685.410096
179.562312,15988.448347,1850.514855,-1608.800546
179.562633,15692.365970,4071.132681,-1762.019645
179.562954,15470.304188,5403.503377,-2528.115143
179.563274,14582.057057,5847.626942,-3830.477490
179.563595,14063.912898,5329.482782,-2451.505594
179.563916,13249.686362,4071.132681,0.000000
179.564236,11473.192101,2516.700203,0.000000
179.564557,9474.636058,1776.494261,-1991.848295
179.564877,8290.306550,2812.782580,-2451.505594
179.565198,8290.306550,4959.379811,-919.314598
179.565519,8512.368333,7698.141797,1072.533697
179.565839,7920.203579,9622.677246,1608.800546
179.566160,6661.853478,9030.512492,536.266849
179.566481,4737.318029,6957.935855,459.657299
179.566801,4145.153275,5477.523971,2834.553343
179.567122,4071.132681,4885.359217,3753.867940
179.567443,5107.421000,5625.565159,2757.943793
179.567763,6291.750507,6439.791695,842.705048
179.568084,6661.853478,7624.121203,-689.485948
179.568405,7846.182985,7550.100608,383.047749
179.568725,10288.862594,6587.832884,1762.019645
179.569046,11251.130318,4737.318029,1838.629195
179.569366,10732.986159,3256.906145,459.657299
179.569687,11177.109724,3034.844362,-842.705048
179.570008,11843.295072,3256.906145,-1149.143247
179.570328,11843.295072,3552.988522,-1378.971896
179.570649,12953.603985,4589.276840,-1762.019645
179.570970,14063.912898,6365.771101,-2911.162892
179.571290,13175.665768,7772.162391,-3524.039291
179.571611,11991.336260,7920.203579,-2298.286494
179.571932,10658.965565,5699.585753,-536.266849
179.572252,9474.636058,4145.153275,1225.752797
179.572573,8068.244768,3849.070898,1915.238745
179.572894,7105.977043,5033.400406,229.828649
179.573214,6883.915261,6217.729913,-1685.410096
179.573535,6735.874072,6217.729913,-1302.362347
179.573856,6661.853478,5181.441594,153.219100
179.574176,7031.956449,4367.215058,995.924147
179.574497,6365.771101,5107.421000,1532.190996
179.574817,5773.606348,6735.874072,1149.143247
179.575138,6069.688724,7402.059420,229.828649
179.575459,7698.141797,6883.915261,766.095498
179.575779,8808.450710,6587.832884,1149.143247
179.576100,8808.450710,6661.853478,689.485948
179.576421,8660.409521,7328.038826,-612.876398
179.576741,9252.574275,7846.182985,-995.924147
179.577062,9844.739029,6661.853478,-689.485948
179.577383,10362.883188,5329.482782,76.609550
179.577703,10510.924376,4145.153275,612.876398
179.578024,9918.759623,3330.926739,995.924147
179.578345,9178.553681,2368.659014,689.485948
179.578665,10436.903782,1406.391290,383.047749
179.578986,11843.295072,1776.494261,-459.657299
179.579306,11621.233289,2812.782580,-995.924147
179.579627,12213.398043,4441.235652,-2451.505594
179.579948,12435.459826,6291.750507,-3217.601092
179.580268,12953.603985,7105.977043,-3447.429741
179.580589,12509.480420,7179.997637,-2374.896044
179.580910,12435.459826,6809.894666,-1915.238745
179.581230,10881.027347,6661.853478,-1302.362347
179.581551,9030.512492,6143.709319,153.219100
179.581872,8290.306550,5477.523971,995.924147
179.582192,8068.244768,4737.318029,1915.238745
179.582513,7550.100608,4737.318029,2145.067394
179.582834,6809.894666,4737.318029,2145.067394
179.583154,6291.750507,4737.318029,1991.848295
179.583475,6143.709319,4441.235652,1608.800546
179.583795,6883.915261,4441.235652,842.705048
179.584116,7624.121203,5329.482782,612.876398
179.584437,8734.430116,6809.894666,536.266849
179.584757,9622.677246,8142.265362,229.828649
179.585078,10510.924376,8142.265362,-306.438199
179.585399,10140.821405,7328.038826,0.000000
179.585719,10140.821405,6735.874072,-229.828649
179.586040,10288.862594,5403.503377,-229.828649
179.586361,9770.718434,3849.070898,-153.219100
179.586681,9770.718434,3108.864956,-229.828649
179.587002,10140.821405,2442.679609,-842.705048
179.587323,10362.883188,3108.864956,-995.924147
179.587643,10658.965565,3849.070898,-536.266849
179.587964,10658.965565,5625.565159,-229.828649
179.588284,10362.883188,7105.977043,153.219100
179.588605,9622.677246,7698.141797,383.047749
179.588926,7920.203579,7476.080014,766.095498
179.589246,6883.915261,7698.141797,1302.362347
179.589567,5625.565159,8068.244768,612.876398
179.589888,4441.235652,7105.977043,0.000000
179.590208,4589.276840,6957.935855,-1072.533697
179.590529,4589.276840,7550.100608,-383.047749
179.590850,4293.194464,8142.265362,306.438199
179.591170,3775.050304,9400.615463,1991.848295
179.591491,3775.050304,10362.883188,3140.991542
179.591812,4589.276840,10881.027347,4290.134789
179.592132,5403.503377,10732.986159,5209.449386
179.592453,4589.276840,9326.594869,4826.401637
179.592773,4145.153275,8216.285956,4136.915689
179.593094,4663.297435,7254.018232,3907.087040
179.593415,4811.338623,7550.100608,3677.258390
179.593736,5921.647536,8512.368333,2987.772442
179.594056,6587.832884,9474.636058,3140.991542
179.594377,6735.874072,9474.636058,3600.648841
179.594698,6883.915261,8438.347739,4596.572988
179.595018,7105.977043,8216.285956,5592.497135
179.595339,7698.141797,8068.244768,4903.011187
179.595660,7920.203579,8216.285956,4366.744339
179.595981,7402.059420,8216.285956,3830.477490
179.596301,7550.100608,8512.368333,4136.915689
179.596622,8068.244768,8734.430116,5286.058936
179.596943,7846.182985,9030.512492,6741.640382
179.597263,6957.935855,8586.388927,7124.688131
179.597584,6365.771101,7550.100608,6665.030833
179.597905,5847.626942,6439.791695,6435.202183
179.598226,5403.503377,5625.565159,6894.859482
179.598546,5329.482782,5033.400406,7277.907231
179.598867,5625.565159,5847.626942,6818.249932
179.599188,5625.565159,7402.059420,6588.421283
179.599509,5033.400406,8660.409521,6741.640382
179.599829,4811.338623,8290.306550,6818.249932
179.600150,4811.338623,7550.100608,7660.954980
179.600471,4145.153275,7105.977043,8197.221829
179.600791,3404.947333,6735.874072,7890.783629
179.601112,3108.864956,6143.709319,7277.907231
179.601433,2812.782580,5625.565159,7048.078582
179.601754,2368.659014,5403.503377,6894.859482
179.602074,2146.597232,4959.379811,5975.544884
179.602395,2368.659014,6069.688724,5209.449386
179.602716,3182.885551,6439.791695,5745.716235
179.603036,3478.967927,7105.977043,6205.373534
179.603357,3775.050304,7550.100608,6435.202183
179.603678,3775.050304,7624.121203,6435.202183
179.603999,3997.112087,7920.203579,6128.763984
179.604319,4145.153275,7772.162391,5592.497135
179.604640,3849.070898,7698.141797,4366.744339
179.604961,3627.009116,6069.688724,3907.087040
179.605281,3552.988522,4959.379811,4366.744339
179.605602,3627.009116,4663.297435,4060.306139
179.605923,2960.823768,4959.379811,3753.867940
179.606244,3108.864956,6143.709319,2068.457845
179.606564,4737.318029,7698.141797,2068.457845
179.606885,5773.606348,9178.553681,2834.553343
179.607206,6291.750507,10584.944971,3753.867940
179.607526,6513.812290,11769.274478,3983.696590
179.607847,6661.853478,11991.336260,3600.648841
179.608168,6291.750507,10732.986159,4596.572988
179.608489,6365.771101,9844.739029,6588.421283
179.608809,5403.503377,9548.656652,7048.078582
179.609130,4663.297435,9918.759623,6588.421283
179.609451,4219.173869,8882.471304,6511.811733
179.609772,3330.926739,6439.791695,5132.839837
179.610092,2664.741391,2886.803174,3370.820191
179.610413,3627.009116,666.185348,2068.457845
179.610734,4885.359217,2590.720797,612.876398
179.611054,6365.771101,8142.265362,-306.438199
179.611375,8290.306550,13693.809927,-1838.629195
179.611696,10807.006753,17764.942608,-2681.334243
179.612017,11325.150913,19171.333898,-1072.533697
179.612337,10362.883188,18061.024985,2451.505594
179.612658,8512.368333,13989.892304,4979.620737
179.612979,5847.626942,8808.450710,5439.278036
179.613299,5181.441594,5773.606348,6052.154434
179.613620,3552.988522,5033.400406,6818.249932
179.613941,592.164754,5847.626942,5209.449386
179.614262,148.041188,6735.874072,4136.915689
179.614582,3034.844362,6957.935855,4136.915689
179.614903,3330.926739,5995.668130,3524.039291
179.615224,4811.338623,6365.771101,4136.915689
179.615544,6365.771101,8216.285956,4519.963438
179.615865,6513.812290,12287.418637,2987.772442
179.616186,5551.544565,14285.974681,2604.724693
179.616507,7105.977043,14434.015869,1608.800546
179.616827,9400.615463,14211.954086,919.314598
179.617148,8068.244768,11177.109724,3447.429741
179.617469,5181.441594,6809.894666,5286.058936
179.617789,5625.565159,3997.112087,7124.688131
179.618110,2072.576638,3775.050304,6435.202183
179.618431,2812.782580,4959.379811,4903.011187
179.618752,4663.297435,6513.812290,3983.696590
179.619072,6365.771101,7994.224174,4596.572988
179.619393,5477.523971,7031.956449,7124.688131
179.619714,6735.874072,6439.791695,10035.851024
179.620034,7105.977043,9104.533087,10035.851024
179.620355,3404.947333,11917.315666,8197.221829
179.620676,1924.535449,9770.718434,5056.230287
179.620997,3108.864956,6439.791695,3600.648841
179.621317,4293.194464,3849.070898,5515.887586
179.621638,5107.421000,6069.688724,9269.755526
179.621959,3849.070898,9844.739029,8733.488677
179.622280,666.185348,10807.006753,4443.353888
179.622600,1036.288319,8808.450710,3064.381992
179.622921,3108.864956,5699.585753,5975.544884
179.623242,3182.885551,2368.659014,7967.393179
179.623562,4663.297435,3256.906145,8656.879127
179.623883,5995.668130,7994.224174,7584.345430
179.624204,4959.379811,12213.398043,5898.935335
179.624525,4145.153275,11177.109724,5209.449386
179.624845,4811.338623,7105.977043,5745.716235
179.625166,4515.256246,3997.112087,7048.078582
179.625487,2368.659014,2960.823768,9806.022374
179.625807,4071.132681,4811.338623,10342.289223
179.626128,4663.297435,7772.162391,8580.269578
179.626449,3478.967927,10955.047942,5209.449386
179.626770,4219.173869,11843.295072,3217.601092
179.627090,5847.626942,11029.068536,2604.724693
179.627411,4145.153275,7550.100608,3753.867940
179.627732,4737.318029,5033.400406,6741.640382
179.628052,6365.771101,4071.132681,7660.954980
179.628373,4959.379811,5551.544565,7354.516781
179.628694,2886.803174,7105.977043,5592.497135
179.629015,4811.338623,7772.162391,3447.429741
179.629335,6735.874072,9992.780217,3983.696590
179.629656,4885.359217,10436.903782,6588.421283
179.629977,4737.318029,9770.718434,8044.002729
179.630297,7846.182985,9030.512492,7507.735880
179.630618,6735.874072,8290.306550,5286.058936
179.630939,3108.864956,6439.791695,919.314598
179.631260,3552.988522,4737.318029,-1072.533697
179.631580,5921.647536,6513.812290,2681.334243
179.631901,6957.935855,10288.862594,7507.735880
179.632222,6365.771101,11769.274478,7431.126331
179.632542,6291.750507,11547.212695,3600.648841
179.632863,4737.318029,11103.089130,1991.848295
179.633184,3627.009116,9992.780217,3677.258390
179.633505,5181.441594,8734.430116,5592.497135
179.633825,5181.441594,7698.141797,5132.839837
179.634146,4663.297435,8882.471304,4443.353888
179.634467,5181.441594,10362.883188,5056.230287
179.634788,5181.441594,10584.944971,5132.839837
179.635108,4737.318029,10066.800811,4290.134789
179.635429,4885.359217,9104.533087,5209.449386
179.635750,5847.626942,8216.285956,6128.763984
179.636070,6365.771101,7402.059420,6665.030833
179.636391,5107.421000,7179.997637,5056.230287
179.636712,4589.276840,7476.080014,3447.429741
179.637033,6365.771101,8882.471304,2068.457845
179.637353,5625.565159,8882.471304,2221.676944
179.637674,5255.462188,6883.915261,2374.896044
179.637995,7031.956449,7105.977043,2374.896044
179.638315,7476.080014,9104.533087,2834.553343
179.638636,5477.523971,10584.944971,3447.429741
179.638957,5033.400406,9992.780217,3217.601092
179.639278,6513.812290,8364.327145,4136.915689
179.639598,6291.750507,6587.832884,5592.497135
179.639919,5181.441594,5995.668130,6971.469032
179.640240,3256.906145,7328.038826,6128.763984
179.640560,1258.350101,7994.224174,4903.011187
179.640881,2072.576638,6291.750507,4443.353888
179.641202,4811.338623,5921.647536,4749.792088
179.641523,4885.359217,6883.915261,5056.230287
179.641843,3108.864956,9400.615463,5515.887586
179.642164,2368.659014,10881.027347,4060.306139
179.642485,2812.782580,9770.718434,3064.381992
179.642805,4145.153275,7920.203579,4136.915689
179.643126,6957.935855,8142.265362,4903.011187
179.643447,7031.956449,10732.986159,5975.544884
179.643768,2664.741391,11251.130318,5132.839837
179.644088,1924.535449,8142.265362,3600.648841
179.644409,5551.544565,5625.565159,4213.525239
179.644730,6661.853478,5847.626942,7584.345430
179.645051,6069.688724,6809.894666,8580.269578
179.645371,4811.338623,7402.059420,6818.249932
179.645692,4367.215058,7179.997637,4903.011187
179.646013,5329.482782,5329.482782,5822.325785
179.646333,6809.894666,3849.070898,6665.030833
179.646654,7402.059420,5995.668130,6052.154434
179.646975,6291.750507,9252.574275,4136.915689
179.647296,4737.318029,8734.430116,1532.190996
179.647616,6957.935855,7105.977043,766.095498
179.647937,7920.203579,7920.203579,4213.525239
179.648258,5255.462188,9474.636058,5592.497135
179.648578,3404.947333,10807.006753,3064.381992
179.648899,2812.782580,9326.594869,1225.752797
179.649220,2146.597232,7105.977043,2298.286494
179.649541,3775.050304,5403.503377,5745.716235
179.649861,3923.091493,5847.626942,6741.640382
179.650182,1110.308913,6735.874072,3753.867940
179.650503,1332.370696,7550.100608,1608.800546
179.650823,2812.782580,7772.162391,1685.410096
179.651144,4811.338623,8512.368333,3983.696590
179.651465,4145.153275,8512.368333,5669.106685
179.651786,4367.215058,10881.027347,3753.867940
179.652106,3849.070898,11251.130318,1991.848295
179.652427,3701.029710,11547.212695,2757.943793
179.652748,4737.318029,10436.903782,3140.991542
179.653068,4737.318029,8290.306550,3447.429741
179.653389,4515.256246,7254.018232,3217.601092
179.653710,4145.153275,6957.935855,1991.848295
179.654031,3923.091493,5181.441594,995.924147
179.654351,4663.297435,2220.617826,842.705048
179.654672,6809.894666,2590.720797,995.924147
179.654993,6439.791695,5033.400406,1072.533697
179.655313,7994.224174,8808.450710,76.609550
179.655634,9474.636058,9326.594869,-612.876398
179.655955,11325.150913,9474.636058,-1532.190996
179.656276,10510.924376,9770.718434,-1302.362347
179.656596,9474.636058,9178.553681,-766.095498
179.656917,8216.285956,6587.832884,-995.924147
179.657238,6883.915261,5699.585753,-919.314598
179.657559,4663.297435,6143.709319,-1915.238745
179.657879,4219.173869,7476.080014,-3140.991542
179.658200,4219.173869,7994.224174,-2451.505594
179.658521,4219.173869,9030.512492,-919.314598
179.658841,4737.318029,10362.883188,0.000000
179.659162,3478.967927,10436.903782,-1991.848295
179.659483,740.205942,7994.224174,-2451.505594
179.659804,2294.638420,6513.812290,1302.362347
179.660124,3552.988522,7328.038826,2987.772442
179.660445,4293.194464,10807.006753,536.266849
179.660766,3627.009116,12509.480420,-2528.115143
179.661086,4145.153275,12879.583391,-3064.381992
179.661407,6291.750507,13619.789333,0.000000
179.661728,6735.874072,12583.501014,3064.381992
179.662049,4367.215058,7105.977043,1532.190996
179.662369,4367.215058,4367.215058,-1378.971896
179.662690,4589.276840,4959.379811,-229.828649
179.663011,3256.906145,5699.585753,383.047749
179.663331,6513.812290,7254.018232,306.438199
179.663652,9104.533087,10066.800811,-1225.752797
179.663973,7550.100608,10510.924376,-3830.477490
179.664294,5847.626942,8956.491898,-2757.943793
179.664614,7328.038826,7031.956449,-2528.115143
179.664935,6661.853478,4737.318029,-1072.533697
179.665256,8068.244768,6809.894666,-229.828649
179.665576,7624.121203,10658.965565,-2681.334243
179.665897,6587.832884,14285.974681,-3983.696590
179.666218,6587.832884,14434.015869,-995.924147
179.666539,8586.388927,12657.521608,1838.629195
179.666859,5329.482782,8660.409521,2451.505594
179.667180,2590.720797,6069.688724,2298.286494
179.667501,888.247130,3627.009116,689.485948
179.667821,666.185348,2220.617826,766.095498
179.668142,2590.720797,4885.359217,2451.505594
179.668463,4219.173869,8364.327145,3140.991542
179.668784,3182.885551,9992.780217,842.705048
179.669104,4367.215058,11473.192101,1072.533697
179.669425,4441.235652,10436.903782,1608.800546
179.669746,4219.173869,6439.791695,1378.971896
179.670067,4071.132681,3404.947333,766.095498
179.670387,4885.359217,4663.297435,229.828649
179.670708,4737.318029,7476.080014,-536.266849
179.671029,5477.523971,8808.450710,-2145.067394
179.671349,6661.853478,8808.450710,-3447.429741
179.671670,7772.162391,9030.512492,-1608.800546
179.671991,6365.771101,8586.388927,229.828649
179.672312,4959.379811,4663.297435,-229.828649
179.672632,4441.235652,1332.370696,-1072.533697
179.672953,6143.709319,3627.009116,1072.533697
179.673274,5847.626942,6587.832884,1225.752797
179.673594,4219.173869,8142.265362,-842.705048
179.673915,4663.297435,9252.574275,-3600.648841
179.674236,6661.853478,9622.677246,-2528.115143
179.674557,6143.709319,9178.553681,0.000000
179.674877,3404.947333,6143.709319,1072.533697
179.675198,2220.617826,4145.153275,0.000000
179.675519,2812.782580,5477.523971,-995.924147
179.675839,2220.617826,8290.306550,-1455.581446
179.676160,3182.885551,9992.780217,-1608.800546
179.676481,4737.318029,10510.924376,-995.924147
179.676802,5255.462188,9104.533087,153.219100
179.677122,4145.153275,7624.121203,612.876398
179.677443,4663.297435,5995.668130,-383.047749
179.677764,2886.803174,4589.276840,-1991.848295
179.678084,4737.318029,7328.038826,-2374.896044
179.678405,6883.915261,10955.047942,-1991.848295
179.678726,7328.038826,12065.356855,-2451.505594
179.679047,7402.059420,11917.315666,-1608.800546
179.679367,9030.512492,11399.171507,306.438199
179.679688,5625.565159,9844.739029,0.000000
179.680009,3923.091493,7105.977043,-2145.067394
179.680330,3849.070898,4737.318029,-4060.306139
179.680650,4737.318029,3256.906145,-4213.525239
179.680971,6143.709319,6587.832884,-2298.286494
179.681292,8438.347739,10955.047942,-2451.505594
179.681612,6661.853478,12805.562797,-4366.744339
179.681933,8068.244768,13693.809927,-4366.744339
179.682254,7550.100608,12139.377449,-1762.019645
179.682575,6661.853478,9252.574275,-612.876398
179.682895,6069.688724,6587.832884,536.266849
179.683216,6809.894666,6735.874072,536.266849
179.683537,4441.235652,8586.388927,-1072.533697
179.683857,4811.338623,9844.739029,-1762.019645
179.684178,4219.173869,9326.594869,-1532.190996
179.684499,5033.400406,8438.347739,-995.924147
179.684820,4293.194464,8512.368333,612.876398
179.685140,3627.009116,7328.038826,-536.266849
179.685461,2294.638420,4959.379811,-1302.362347
179.685782,4663.297435,5847.626942,-459.657299
179.686102,5921.647536,7994.224174,0.000000
179.686423,4959.379811,10140.821405,-612.876398
179.686744,4219.173869,11547.212695,-2068.457845
179.687065,7031.956449,13101.645173,-2068.457845
179.687385,6069.688724,11547.212695,842.705048
179.687706,6069.688724,8142.265362,1455.581446
179.688027,4589.276840,5921.647536,-995.924147
179.688347,2220.617826,5033.400406,-1915.238745
179.688668,1924.535449,6069.688724,0.000000
179.688989,5181.441594,7476.080014,1378.971896
179.689310,5625.565159,8512.368333,612.876398
179.689630,5773.606348,9474.636058,766.095498
179.689951,3923.091493,7328.038826,689.485948
179.690272,3775.050304,5181.441594,536.266849
179.690592,3997.112087,4737.318029,1225.752797
179.690913,5699.585753,5995.668130,1225.752797
179.691234,5403.503377,7179.997637,-229.828649
179.691555,5699.585753,9474.636058,-1455.581446
179.691875,5921.647536,9918.759623,76.609550
179.692196,6587.832884,9474.636058,1225.752797
179.692517,5847.626942,7698.141797,1072.533697
179.692838,4367.215058,6143.709319,689.485948
179.693158,2146.597232,4515.256246,689.485948
179.693479,1850.514855,2960.823768,153.219100
179.693800,2368.659014,4515.256246,459.657299
179.694120,4219.173869,7105.977043,1149.143247
179.694441,3923.091493,8512.368333,76.609550
179.694762,4959.379811,8734.430116,-2528.115143
179.695083,3404.947333,7772.162391,-3217.601092
179.695403,3108.864956,5551.544565,-995.924147
179.695724,3997.112087,4071.132681,0.000000
179.696045,5847.626942,7994.224174,0.000000
179.696365,4737.318029,11547.212695,-1225.752797
179.696686,5255.462188,12879.583391,-2528.115143
179.697006,7624.121203,12213.398043,-1991.848295
179.697327,6291.750507,9844.739029,766.095498
179.697648,4145.153275,7476.080014,1532.190996
179.697968,5181.441594,6291.750507,-536.266849
179.698289,2368.659014,3404.947333,-2298.286494
179.698610,3034.844362,3256.906145,-229.828649
179.698930,4885.359217,4959.379811,1225.752797
179.699251,4811.338623,8438.347739,-1608.800546
179.699572,4589.276840,10510.924376,-2451.505594
179.699892,7994.224174,13101.645173,-2987.772442
179.700213,8142.265362,12805.562797,-2681.334243
179.700534,7402.059420,12361.439231,229.828649
179.700854,8216.285956,11473.192101,1455.581446
179.701175,6587.832884,8882.471304,-612.876398
179.701496,4589.276840,8142.265362,-766.095498
179.701816,6439.791695,10066.800811,0.000000
179.702137,6069.688724,10288.862594,-153.219100
179.702457,5403.503377,8586.388927,-153.219100
179.702778,2886.803174,5033.400406,0.000000
179.703099,3256.906145,4589.276840,-1149.143247
179.703419,4663.297435,4885.359217,-995.924147
179.703740,5107.421000,7105.977043,-1378.971896
179.704061,4737.318029,9844.739029,-1149.143247
179.704381,7031.956449,13175.665768,-919.314598
179.704702,7031.956449,13175.665768,76.609550
179.705023,6217.729913,11177.109724,-1838.629195
179.705343,6143.709319,9104.533087,-2298.286494
179.705664,4811.338623,7698.141797,-1685.410096
179.705985,4293.194464,7624.121203,0.000000
179.706305,3478.967927,8364.327145,76.609550
179.706626,3108.864956,9400.615463,-612.876398
179.706947,3923.091493,9918.759623,612.876398
179.707267,3256.906145,7846.182985,1455.581446
179.707588,1924.535449,5403.503377,-612.876398
179.707908,2738.761985,3849.070898,-229.828649
179.708229,3775.050304,5477.523971,919.314598
179.708550,3627.009116,5995.668130,1149.143247
179.708870,5403.503377,6809.894666,153.219100
179.709191,6069.688724,8290.306550,-1072.533697
179.709512,5255.462188,10436.903782,-1532.190996
179.709832,5921.647536,10436.903782,-459.657299
179.710153,6439.791695,8956.491898,0.000000
179.710474,7772.162391,9104.533087,0.000000
179.710794,7105.977043,9548.656652,0.000000
179.711115,3478.967927,5847.626942,-1225.752797
179.711436,4367.215058,2812.782580,0.000000
179.711756,5477.523971,4737.318029,2681.334243
179.712077,4145.153275,7476.080014,1838.629195
179.712398,3182.885551,4959.379811,0.000000
179.712718,5181.441594,5033.400406,-1072.533697
179.713039,5773.606348,6587.832884,536.266849
179.713359,4663.297435,9030.512492,1838.629195
179.713680,5403.503377,10066.800811,76.609550
179.714001,5329.482782,10066.800811,-612.876398
179.714321,5477.523971,10955.047942,2528.115143
179.714642,5181.441594,11103.089130,3140.991542
179.714963,3701.029710,8734.430116,536.266849
179.715283,2960.823768,8216.285956,-459.657299
179.715604,3775.050304,8660.409521,612.876398
179.715925,3256.906145,7105.977043,1762.019645
179.716245,3775.050304,5403.503377,1532.190996
179.716566,4441.235652,5255.462188,76.609550
179.716887,2960.823768,5107.421000,-995.924147
179.717207,4441.235652,7920.203579,-842.705048
179.717528,6883.915261,10362.883188,306.438199
179.717849,7624.121203,10584.944971,-536.266849
179.718169,8956.491898,11103.089130,-306.438199
179.718490,6957.935855,11029.068536,766.095498
179.718810,3997.112087,9178.553681,1149.143247
179.719131,5255.462188,7772.162391,2068.457845
179.719452,7031.956449,6809.894666,229.828649
179.719772,3997.112087,6143.709319,-1991.848295
179.720093,2960.823768,6587.832884,-383.047749
179.720414,4367.215058,7031.956449,919.314598
179.720734,2960.823768,5847.626942,1072.533697
179.721055,4219.173869,6439.791695,-383.047749
179.721376,5329.482782,8734.430116,-2987.772442
179.721696,4515.256246,10140.821405,-2757.943793
179.722017,6513.812290,9770.718434,536.266849
179.722338,7402.059420,10362.883188,1149.143247
179.722658,5551.544565,9326.594869,-1378.971896
179.722979,4811.338623,9252.574275,-995.924147
179.723300,6957.935855,10881.027347,1225.752797
179.723620,4959.379811,11547.212695,3140.991542
179.723941,6365.771101,11695.253884,2987.772442
179.724261,5329.482782,8882.471304,229.828649
179.724582,3256.906145,6365.771101,306.438199
179.724903,1554.432478,4959.379811,3370.820191
179.725223,4663.297435,3849.070898,3600.648841
179.725544,4071.132681,4293.194464,0.000000
179.725865,2516.700203,5107.421000,-1378.971896
179.726185,3849.070898,8364.327145,-1225.752797
179.726506,7698.141797,10362.883188,536.266849
179.726827,6291.750507,11177.109724,1455.581446
179.727147,7772.162391,11177.109724,0.000000
179.727468,6957.935855,10732.986159,-1225.752797
179.727789,4737.318029,9696.697840,-383.047749
179.728109,4959.379811,9252.574275,1302.362347
179.728430,6957.935855,8882.471304,612.876398
179.728751,5033.400406,7105.977043,-536.266849
179.729071,2368.659014,4663.297435,306.438199
179.729392,2590.720797,4145.153275,1455.581446
179.729712,2886.803174,4515.256246,2451.505594
179.730033,2368.659014,4737.318029,2528.115143
179.730354,4737.318029,6217.729913,76.609550
179.730674,4589.276840,8512.368333,-1838.629195
179.730995,5255.462188,9548.656652,-306.438199
179.731316,6143.709319,9400.615463,-383.047749
179.731636,6661.853478,9326.594869,-536.266849
179.731957,5033.400406,9252.574275,76.609550
179.732278,4663.297435,8142.265362,-766.095498
179.732598,2442.679609,6217.729913,-1378.971896
179.732919,5255.462188,7179.997637,0.000000
179.733240,5181.441594,8068.244768,1915.238745
179.733560,4663.297435,7624.121203,229.828649
179.733881,2886.803174,7179.997637,-1608.800546
179.734202,4367.215058,6883.915261,-1149.143247
179.734522,4885.359217,5477.523971,995.924147
179.734843,6069.688724,4441.235652,2374.896044
179.735163,4071.132681,5551.544565,766.095498
179.735484,5329.482782,8660.409521,-1072.533697
179.735805,5921.647536,10214.842000,-2451.505594
179.736125,7179.997637,11251.130318,-4136.915689
179.736446,6809.894666,11769.274478,-1838.629195
179.736767,8364.327145,12139.377449,76.609550
179.737087,6439.791695,10436.903782,-306.438199
179.737408,5625.565159,8512.368333,-842.705048
179.737729,4367.215058,7624.121203,-153.219100
179.738049,4219.173869,7179.997637,153.219100
179.738370,3034.844362,6365.771101,842.705048
179.738691,4663.297435,6957.935855,919.314598
179.739011,4737.318029,7698.141797,1378.971896
179.739332,5403.503377,8290.306550,459.657299
179.739653,3404.947333,7105.977043,229.828649
179.739973,4737.318029,7328.038826,-919.314598
179.740294,6069.688724,8364.327145,-1302.362347
179.740614,6957.935855,10658.965565,-1838.629195
179.740935,7254.018232,11473.192101,-1838.629195
179.741256,8142.265362,12583.501014,-1302.362347
179.741576,6661.853478,12509.480420,229.828649
179.741897,4959.379811,10362.883188,612.876398
179.742218,3775.050304,7254.018232,0.000000
179.742538,4885.359217,6735.874072,0.000000
179.742859,4589.276840,6143.709319,536.266849
179.743180,3997.112087,5847.626942,0.000000
179.743500,4663.297435,6069.688724,-153.219100
179.743821,5773.606348,7476.080014,995.924147
179.744142,3627.009116,7328.038826,1149.143247
179.744462,4293.194464,7105.977043,229.828649
179.744783,4737.318029,6735.874072,-919.314598
179.745104,5995.668130,7994.224174,-459.657299
179.745424,5921.647536,9252.574275,842.705048
179.745745,6291.750507,9918.759623,-1378.971896
179.746065,4959.379811,9992.780217,-2145.067394
179.746386,6217.729913,10807.006753,-1149.143247
179.746707,4367.215058,8882.471304,459.657299
179.747027,3701.029710,6809.894666,1532.190996
179.747348,3552.988522,5107.421000,2987.772442
179.747669,2368.659014,4071.132681,1072.533697
179.747989,1406.391290,3404.947333,0.000000
179.748310,3923.091493,5403.503377,383.047749
179.748631,3034.844362,6957.935855,-536.266849
179.748951,5255.462188,9104.533087,-1455.581446
179.749272,6439.791695,11843.295072,-536.266849
179.749593,6735.874072,11547.212695,0.000000
179.749913,6587.832884,10140.821405,1149.143247
179.750234,8068.244768,10288.862594,2145.067394
179.750555,5255.462188,8882.471304,1225.752797
179.750875,4367.215058,7402.059420,1455.581446
179.751196,4515.256246,7105.977043,1455.581446
179.751516,4145.153275,6513.812290,612.876398
179.751837,4145.153275,6291.750507,919.314598
179.752158,4811.338623,6439.791695,689.485948
179.752478,2590.720797,3627.009116,-306.438199
179.752799,3997.112087,4589.276840,459.657299
179.753120,4959.379811,6809.894666,306.438199
179.753440,4515.256246,8438.347739,-383.047749
179.753761,6809.894666,11473.192101,-766.095498
179.754082,8882.471304,13249.686362,-1532.190996
179.754402,5995.668130,10362.883188,-2221.676944
179.754723,6735.874072,8882.471304,-536.266849
179.755044,6809.894666,8734.430116,383.047749
179.755364,4145.153275,8512.368333,536.266849
179.755685,3330.926739,7254.018232,-995.924147
179.756006,4885.359217,7179.997637,-2987.772442
179.756326,2442.679609,5181.441594,-2604.724693
179.756647,3701.029710,4293.194464,383.047749
179.756967,5477.523971,4885.359217,1302.362347
179.757288,4885.359217,7624.121203,-153.219100
179.757609,3627.009116,8734.430116,-1762.019645
179.757929,4737.318029,7698.141797,-2757.943793
179.758250,6439.791695,7624.121203,-1532.190996
179.758571,6957.935855,11769.274478,1149.143247
179.758891,6513.812290,12509.480420,-153.219100
179.759212,6217.729913,10732.986159,-2757.943793
179.759533,5477.523971,9474.636058,-1762.019645
179.759853,3923.091493,7254.018232,-306.438199
179.760174,3997.112087,5033.400406,0.000000
179.760495,3552.988522,5329.482782,-2068.457845
179.760815,3108.864956,6661.853478,-2528.115143
179.761136,4737.318029,7772.162391,-383.047749
179.761457,6809.894666,8734.430116,229.828649
179.761777,5477.523971,7994.224174,-689.485948
179.762098,3849.070898,7920.203579,-995.924147
179.762418,5403.503377,9326.594869,-1608.800546
179.762739,6143.709319,9844.739029,-2604.724693
179.763060,6365.771101,9844.739029,-2528.115143
179.763380,7105.977043,9400.615463,-1991.848295
179.763701,5625.565159,10140.821405,-2911.162892
179.764022,4737.318029,11473.192101,-2374.896044
179.764342,4885.359217,11547.212695,-459.657299
179.764663,6513.812290,9622.677246,153.219100
179.764984,7105.977043,7920.203579,1302.362347
179.765304,4737.318029,7179.997637,2298.286494
179.765625,3997.112087,6439.791695,1762.019645
179.765946,4219.173869,5921.647536,1838.629195
179.766266,5181.441594,6661.853478,995.924147
179.766587,5107.421000,6513.812290,-383.047749
179.766908,5255.462188,6069.688724,-1378.971896
179.767228,6291.750507,8438.347739,-842.705048
179.767549,6143.709319,11399.171507,995.924147
179.767869,5699.585753,11103.089130,-459.657299
179.768190,6587.832884,11399.171507,-2221.676944
179.768511,5995.668130,10362.883188,-612.876398
179.768831,3404.947333,8364.327145,2221.676944
179.769152,4589.276840,6883.915261,1225.752797
179.769473,3997.112087,7254.018232,-1378.971896
179.769793,2220.617826,7402.059420,-1455.581446
179.770114,4145.153275,6217.729913,0.000000
179.770435,5995.668130,4959.379811,995.924147
179.770755,3997.112087,5181.441594,1225.752797
179.771076,2516.700203,5625.565159,1532.190996
179.771397,3923.091493,7179.997637,-306.438199
179.771717,4367.215058,8142.265362,-612.876398
179.772038,5773.606348,8216.285956,76.609550
179.772359,7624.121203,7994.224174,-306.438199
179.772679,6143.709319,7846.182985,-459.657299
179.773000,3923.091493,8438.347739,612.876398
179.773320,4441.235652,9178.553681,0.000000
179.773641,4367.215058,7772.162391,-1532.190996
179.773962,3849.070898,6957.935855,0.000000
179.774282,4515.256246,6291.750507,2681.334243
179.774603,3330.926739,5625.565159,2298.286494
179.774924,1776.494261,5403.503377,383.047749
179.775244,1924.535449,6439.791695,-1455.581446
179.775565,3701.029710,6661.853478,-1378.971896
179.775886,5551.544565,6957.935855,-459.657299
179.776206,4959.379811,7254.018232,-1302.362347
179.776527,4959.379811,7698.141797,-2451.505594
179.776848,6809.894666,9178.553681,-2145.067394
179.777168,7105.977043,11399.171507,-612.876398
179.777489,6809.894666,12583.501014,76.609550
179.777810,6661.853478,12509.480420,-383.047749
179.778130,5847.626942,9400.615463,-689.485948
179.778451,5033.400406,6143.709319,-306.438199
179.778771,5403.503377,5329.482782,919.314598
179.779092,4441.235652,5921.647536,-766.095498
179.779413,2368.659014,4737.318029,-3140.991542
179.779733,4367.215058,5625.565159,-2757.943793
179.780054,6439.791695,8734.430116,0.000000
179.780375,5551.544565,10436.903782,1302.362347
179.780695,6661.853478,11473.192101,-766.095498
179.781016,7624.121203,11251.130318,-2451.505594
179.781337,6587.832884,11251.130318,-2681.334243
179.781657,6143.709319,9400.615463,-1149.143247
179.781978,6439.791695,8586.388927,-1378.971896
179.782299,5329.482782,8808.450710,-689.485948
179.782619,4737.318029,10066.800811,0.000000
179.782940,5107.421000,10658.965565,-919.314598
179.783261,4219.173869,9030.512492,-459.657299
179.783581,4145.153275,7550.100608,1685.410096
179.783902,4293.194464,6217.729913,1302.362347
179.784222,3330.926739,5403.503377,383.047749
179.784543,3849.070898,7105.977043,-612.876398
179.784864,3627.009116,8216.285956,-1455.581446
179.785184,5551.544565,9030.512492,-2604.724693
179.785505,7254.018232,11621.233289,-612.876398
179.785826,7031.956449,12731.542202,612.876398
179.786146,6143.709319,10881.027347,-306.438199
179.786467,6143.709319,8512.368333,-306.438199
179.786788,4515.256246,7994.224174,-383.047749
179.787108,4145.153275,8142.265362,1532.190996
179.787429,4663.297435,8290.306550,1915.238745
179.787750,4885.359217,7402.059420,919.314598
179.788070,4959.379811,7031.956449,919.314598
179.788391,3997.112087,5329.482782,1302.362347
179.788712,2960.823768,2590.720797,1225.752797
179.789032,4145.153275,2812.782580,2298.286494
179.789353,4885.359217,5329.482782,1149.143247
179.789673,5033.400406,7328.038826,-3140.991542
179.789994,4589.276840,7031.956449,-4366.744339
179.790315,8142.265362,9696.697840,0.000000
179.790635,8660.409521,11695.253884,3294.210641
179.790956,6143.709319,11473.192101,1149.143247
179.791277,4071.132681,8734.430116,-2604.724693
179.791597,5033.400406,7031.956449,-2145.067394
179.791918,4293.194464,5329.482782,2068.457845
179.792239,3775.050304,2960.823768,2911.162892
179.792559,1776.494261,2294.638420,-1378.971896
179.792880,2812.782580,5773.606348,-2757.943793
179.793201,2220.617826,7550.100608,689.485948
179.793521,5181.441594,8068.244768,2451.505594
179.793842,4959.379811,6809.894666,153.219100
179.794163,4737.318029,7920.203579,-2604.724693
179.794483,4071.132681,9622.677246,-1915.238745
179.794804,5847.626942,11177.109724,-919.314598
179.795124,5255.462188,10362.883188,-383.047749
179.795445,7105.977043,9178.553681,383.047749
179.795766,5847.626942,8956.491898,153.219100
179.796086,3478.967927,9178.553681,0.000000
179.796407,2146.597232,9104.533087,1225.752797
179.796728,5551.544565,9252.574275,612.876398
179.797048,5847.626942,7698.141797,-459.657299
179.797369,4589.276840,5847.626942,842.705048
179.797690,4367.215058,5033.400406,1838.629195
179.798010,4811.338623,6735.874072,1762.019645
179.798331,3552.988522,8882.471304,306.438199
179.798652,5625.565159,10288.862594,-1378.971896
179.798973,7846.182985,10214.842000,-2221.676944
179.799293,9178.553681,11103.089130,-1225.752797
179.799614,7105.977043,11177.109724,383.047749
179.799935,7624.121203,11473.192101,-306.438199
179.800255,6143.709319,11917.315666,-1532.190996
179.800576,5033.400406,12139.377449,306.438199
179.800897,5921.647536,11103.089130,2911.162892
179.801217,6735.874072,9400.615463,2987.772442
179.801538,2738.761985,4959.379811,919.314598
179.801858,1258.350101,3775.050304,76.609550
179.802179,2368.659014,4145.153275,995.924147
179.802500,3330.926739,4811.338623,689.485948
179.802820,4589.276840,6883.915261,383.047749
179.803141,6143.709319,9400.615463,-689.485948
179.803462,5181.441594,10732.986159,153.219100
179.803782,6661.853478,12953.603985,1838.629195
179.804103,7031.956449,12139.377449,995.924147
179.804424,5625.565159,8586.388927,-1149.143247
179.804744,6365.771101,6587.832884,-612.876398
179.805065,5255.462188,5995.668130,1225.752797
179.805385,1776.494261,5551.544565,766.095498
179.805706,4071.132681,7105.977043,0.000000
179.806027,4293.194464,6957.935855,-1455.581446
179.806347,3256.906145,5921.647536,153.219100
179.806668,4959.379811,4367.215058,2145.067394
179.806989,5699.585753,3923.091493,1378.971896
179.807309,2738.761985,4959.379811,-153.219100
179.807630,4367.215058,6587.832884,-76.609550
179.807951,5847.626942,6809.894666,-1838.629195
179.808271,6513.812290,8216.285956,-2374.896044
179.808592,7994.224174,9992.780217,-1378.971896
179.808912,6735.874072,9474.636058,-1838.629195
179.809233,5625.565159,8364.327145,-842.705048
179.809554,5921.647536,10510.924376,1532.190996
179.809874,4589.276840,9548.656652,1302.362347
179.810195,2886.803174,6957.935855,383.047749
179.810516,2368.659014,4959.379811,689.485948
179.810836,1702.473667,4885.359217,229.828649
179.811157,2960.823768,4959.379811,766.095498
179.811478,4145.153275,6291.750507,842.705048
179.811798,3775.050304,7179.997637,-1149.143247
179.812119,4885.359217,8734.430116,-1302.362347
179.812439,5477.523971,9918.759623,153.219100
179.812760,5329.482782,11547.212695,0.000000
179.813081,5847.626942,11991.336260,-459.657299
179.813401,7402.059420,13323.706956,-536.266849
179.813722,7031.956449,12509.480420,-383.047749
179.814043,5403.503377,10955.047942,459.657299
179.814363,4219.173869,8808.450710,306.438199
179.814684,4145.153275,7328.038826,-536.266849
179.815005,2886.803174,5477.523971,-689.485948
179.815325,3997.112087,6069.688724,-229.828649
179.815646,5551.544565,5625.565159,995.924147
179.815966,5847.626942,6365.771101,1378.971896
179.816287,5477.523971,7920.203579,919.314598
179.816608,5773.606348,9770.718434,-536.266849
179.816928,5181.441594,9030.512492,-1532.190996
179.817249,7402.059420,9104.533087,-2451.505594
179.817570,7698.141797,8438.347739,-2451.505594
179.817890,6587.832884,8142.265362,-1762.019645
179.818211,7254.018232,10436.903782,-2221.676944
179.818532,7402.059420,12805.562797,-2221.676944
179.818852,4959.379811,12731.542202,-1378.971896
179.819173,4737.318029,9548.656652,459.657299
179.819493,5107.421000,6661.853478,1685.410096
179.819814,2368.659014,3997.112087,1915.238745
179.820135,2294.638420,3182.885551,1838.629195
179.820455,3923.091493,4589.276840,-153.219100
179.820776,2442.679609,4811.338623,-2681.334243
179.821097,3701.029710,5773.606348,-1225.752797
179.821417,7624.121203,9400.615463,0.000000
179.821738,6069.688724,12139.377449,919.314598
179.822059,4441.235652,11769.274478,1455.581446
179.822379,7550.100608,10584.944971,-383.047749
179.822700,7179.997637,8956.491898,-919.314598
179.823020,3108.864956,7624.121203,1991.848295
179.823341,4145.153275,7254.018232,1302.362347
179.823662,4737.318029,7920.203579,-842.705048
179.823982,2590.720797,7920.203579,-842.705048
179.824303,2812.782580,6439.791695,-689.485948
179.824624,5551.544565,3997.112087,0.000000
179.824944,4219.173869,4145.153275,2221.676944
179.825265,3775.050304,5921.647536,3294.210641
179.825586,5477.523971,8734.430116,459.657299
179.825906,5329.482782,8586.388927,-2451.505594
179.826227,5773.606348,9770.718434,-1915.238745
179.826547,9030.512492,11695.253884,0.000000
179.826868,8660.409521,12213.398043,842.705048
179.827189,6217.729913,10436.903782,536.266849
179.827509,4589.276840,7476.080014,-1149.143247
179.827830,4219.173869,6809.894666,-153.219100
179.828151,2442.679609,7105.977043,2604.724693
179.828471,2368.659014,5995.668130,2528.115143
179.828792,2368.659014,4811.338623,-459.657299
179.829113,3552.988522,4663.297435,-612.876398
179.829433,4145.153275,7105.977043,689.485948
179.829754,3552.988522,7031.956449,536.266849
179.830074,3108.864956,7179.997637,0.000000
179.830395,5329.482782,8216.285956,-536.266849
179.830716,4811.338623,9326.594869,-1532.190996
179.831036,5403.503377,8734.430116,-995.924147
179.831357,7550.100608,10288.862594,536.266849
179.831678,7698.141797,11917.315666,0.000000
179.831998,3849.070898,10955.047942,-1225.752797
179.832319,2960.823768,7476.080014,-2374.896044
179.832640,4293.194464,4959.379811,-2528.115143
179.832960,3701.029710,4589.276840,-1762.019645
179.833281,2368.659014,3997.112087,0.000000
179.833601,5107.421000,5625.565159,-306.438199
179.833922,6217.729913,8660.409521,-1915.238745
179.834243,5329.482782,9548.656652,-2068.457845
179.834563,5921.647536,11103.089130,-1762.019645
179.834884,7105.977043,11621.233289,229.828649
179.835205,6809.894666,9844.739029,1762.019645
179.835525,6809.894666,7920.203579,1838.629195
179.835846,6513.812290,7772.162391,-766.095498
179.836166,5921.647536,9696.697840,-1915.238745
179.836487,4367.215058,10658.965565,-1378.971896
179.836808,5403.503377,10140.821405,-459.657299
179.837128,5773.606348,9178.553681,536.266849
179.837449,5847.626942,7550.100608,1685.410096
179.837770,4145.153275,4885.359217,2221.676944
179.838090,5921.647536,5921.647536,2221.676944
179.838411,5847.626942,9770.718434,1225.752797
179.838732,4367.215058,9918.759623,-1685.410096
179.839052,5551.544565,8956.491898,-3830.477490
179.839373,7550.100608,8290.306550,-1685.410096
179.839693,6365.771101,9992.780217,1838.629195
179.840014,5403.503377,10510.924376,2145.067394
179.840335,4737.318029,8734.430116,-2221.676944
179.840655,3997.112087,8364.327145,-4749.792088
179.840976,4737.318029,10214.842000,-1072.533697
179.841297,4959.379811,9844.739029,1532.190996
179.841617,4441.235652,8808.450710,995.924147
179.841938,4367.215058,7772.162391,842.705048
179.842259,4219.173869,7920.203579,306.438199
179.842579,3627.009116,6513.812290,76.609550
179.842900,1702.473667,3923.091493,153.219100
179.843220,1406.391290,2220.617826,0.000000
179.843541,4145.153275,3775.050304,919.314598
179.843862,5477.523971,8438.347739,1072.533697
179.844182,3404.947333,9030.512492,-612.876398
179.844503,6069.688724,9770.718434,-2604.724693
179.844824,6957.935855,9918.759623,-1762.019645
179.845144,4959.379811,8512.368333,-1225.752797
179.845465,4737.318029,4441.235652,-1991.848295
179.845786,5847.626942,4663.297435,-3447.429741
179.846106,4737.318029,6735.874072,-2145.067394
179.846427,3701.029710,7328.038826,-995.924147
179.846747,6883.915261,8734.430116,-2374.896044
179.847068,7920.203579,10510.924376,-1685.410096
179.847389,3701.029710,9474.636058,689.485948
179.847709,4293.194464,6513.812290,1225.752797
179.848030,4589.276840,3256.906145,612.876398
179.848351,3034.844362,2664.741391,1532.190996
179.848671,3849.070898,5847.626942,536.266849
179.848992,6587.832884,9918.759623,-2451.505594
179.849313,3997.112087,10066.800811,-4213.525239
179.849633,7179.997637,10732.986159,-1532.190996
179.849954,9474.636058,12213.398043,229.828649
179.850274,5477.523971,12213.398043,612.876398
179.850595,3997.112087,10288.862594,1608.800546
179.850916,6883.915261,10510.924376,766.095498
179.851236,5921.647536,10584.944971,612.876398
179.851557,4441.235652,9622.677246,1072.533697
179.851878,3478.967927,7254.018232,-306.438199
