#time,accel_x,accel_y,accel_z
135.430959,4959.379811,8068.244768,0.000000
135.431279,4959.379811,8216.285956,-76.609550
135.431600,4959.379811,8216.285956,-153.219100
135.431920,5107.421000,8068.244768,-306.438199
135.432241,5033.400406,8142.265362,-306.438199
135.432561,5107.421000,8364.327145,-229.828649
135.432882,5033.400406,8290.306550,0.000000
135.433202,5033.400406,8142.265362,-153.219100
135.433523,4885.359217,8142.265362,-153.219100
135.433843,4959.379811,8068.244768,-536.266849
135.434164,5181.441594,7994.224174,0.000000
135.434484,5107.421000,8142.265362,0.000000
135.434805,5033.400406,7846.182985,-153.219100
135.435125,4885.359217,8216.285956,-229.828649
135.435446,5107.421000,7994.224174,-306.438199
135.435766,5181.441594,7846.182985,-76.609550
135.436087,4885.359217,7994.224174,153.219100
135.436407,4885.359217,7920.203579,-153.219100
135.436728,4811.338623,7994.224174,0.000000
135.437048,5181.441594,7920.203579,536.266849
135.437369,5107.421000,7994.224174,-306.438199
135.437689,5033.400406,8068.244768,-153.219100
135.438010,5033.400406,8068.244768,0.000000
135.438330,5107.421000,7772.162391,0.000000
135.438651,4515.256246,7994.224174,0.000000
135.438971,4885.359217,8068.244768,-76.609550
135.439292,4959.379811,7698.141797,-229.828649
135.439612,4959.379811,7772.162391,-306.438199
135.439933,4885.359217,7994.224174,-153.219100
135.440253,5181.441594,7846.182985,0.000000
135.440574,5033.400406,7994.224174,0.000000
135.440894,4885.359217,8068.244768,-153.219100
135.441215,4959.379811,7846.182985,0.000000
135.441535,4811.338623,7624.121203,-229.828649
135.441856,4589.276840,7846.182985,0.000000
135.442176,4293.194464,7402.059420,-536.266849
135.442497,4071.132681,7402.059420,-229.828649
135.442817,4515.256246,8660.409521,-306.438199
135.443138,4441.235652,9844.739029,-842.705048
135.443458,4663.297435,10066.800811,-1302.362347
135.443779,4589.276840,9548.656652,-1455.581446
135.444099,4145.153275,8882.471304,-536.266849
135.444420,3404.947333,8586.388927,383.047749
135.444740,2812.782580,8882.471304,1149.143247
135.445061,2886.803174,9178.553681,689.485948
135.445381,2516.700203,9030.512492,-229.828649
135.445702,2812.782580,7994.224174,-536.266849
135.446022,3182.885551,8142.265362,-459.657299
135.446343,3256.906145,9474.636058,153.219100
135.446663,3034.844362,9548.656652,153.219100
135.446984,2590.720797,9252.574275,0.000000
135.447304,2590.720797,9178.553681,0.000000
135.447625,2368.659014,10066.800811,-383.047749
135.447945,1850.514855,11547.212695,-919.314598
135.448266,1776.494261,11843.295072,-1225.752797
135.448586,1850.514855,11769.274478,-1072.533697
135.448907,962.267725,11251.130318,-919.314598
135.449227,0.000000,10955.047942,-1149.143247
135.449548,-740.205942,11473.192101,-1149.143247
135.449868,-1628.453072,12509.480420,-153.219100
135.450189,-1924.535449,13027.624579,459.657299
135.450509,-1776.494261,12213.398043,766.095498
135.450830,-666.185348,12139.377449,1455.581446
135.451150,-1406.391290,12583.501014,2068.457845
135.451471,-2590.720797,12435.459826,1378.971896
135.451791,-2516.700203,11473.192101,76.609550
135.452112,-1850.514855,10288.862594,-536.266849
135.452432,-1554.432478,9844.739029,0.000000
135.452753,-1036.288319,9992.780217,842.705048
135.453073,-518.144159,10288.862594,459.657299
135.453394,-296.082377,11177.109724,-536.266849
135.453714,1110.308913,11547.212695,-1532.190996
135.454035,1776.494261,11177.109724,-1455.581446
135.454355,2368.659014,10807.006753,-536.266849
135.454676,3182.885551,10510.924376,76.609550
135.454996,3034.844362,10436.903782,-306.438199
135.455317,2442.679609,9696.697840,-1991.848295
135.455637,1924.535449,9030.512492,-1762.019645
135.455958,1924.535449,9474.636058,-1378.971896
135.456278,2072.576638,9696.697840,-536.266849
135.456599,1850.514855,9844.739029,-153.219100
135.456919,962.267725,11029.068536,-306.438199
135.457240,592.164754,11251.130318,76.609550
135.457560,0.000000,11029.068536,383.047749
135.457881,-592.164754,10140.821405,459.657299
135.458201,-370.102971,9622.677246,1149.143247
135.458522,0.000000,10288.862594,689.485948
135.458842,-444.123565,10584.944971,1072.533697
135.459163,-518.144159,11177.109724,1302.362347
135.459483,222.061783,11473.192101,1149.143247
135.459804,1110.308913,11399.171507,919.314598
135.460124,1406.391290,11103.089130,1072.533697
135.460445,1258.350101,10658.965565,0.000000
135.460765,1258.350101,10066.800811,-1072.533697
135.461086,1406.391290,9474.636058,-1225.752797
135.461406,1406.391290,8882.471304,0.000000
135.461727,1850.514855,8438.347739,459.657299
135.462047,2368.659014,8734.430116,766.095498
135.462368,2368.659014,10066.800811,0.000000
135.462688,2590.720797,10807.006753,-689.485948
135.463009,2738.761985,10881.027347,-1302.362347
135.463329,3775.050304,10510.924376,-1225.752797
135.463650,3775.050304,9918.759623,-1149.143247
135.463970,3182.885551,9696.697840,-1149.143247
135.464291,2812.782580,9918.759623,-1072.533697
135.464611,1702.473667,11029.068536,-383.047749
135.464932,1036.288319,11473.192101,459.657299
135.465252,1480.411884,11251.130318,0.000000
135.465573,666.185348,10732.986159,-1225.752797
135.465893,-888.247130,9696.697840,-2145.067394
135.466214,-1258.350101,8882.471304,-1532.190996
135.466534,-1924.535449,9030.512492,-229.828649
135.466855,-1776.494261,9252.574275,1149.143247
135.467176,-370.102971,11103.089130,1915.238745
135.467496,0.000000,12879.583391,1838.629195
135.467817,370.102971,14582.057057,1149.143247
135.468137,148.041188,14434.015869,306.438199
135.468458,592.164754,12583.501014,-76.609550
135.468778,1480.411884,11177.109724,-306.438199
135.469099,1332.370696,9770.718434,-459.657299
135.469419,592.164754,8882.471304,-1532.190996
135.469740,-592.164754,9326.594869,-2221.676944
135.470060,-1258.350101,9918.759623,-1838.629195
135.470381,-1406.391290,10881.027347,-1378.971896
135.470701,-740.205942,11473.192101,0.000000
135.471022,518.144159,12287.418637,459.657299
135.471342,740.205942,13915.871710,76.609550
135.471663,-148.041188,13101.645173,0.000000
135.471983,74.020594,13175.665768,-689.485948
135.472304,666.185348,12287.418637,-766.095498
135.472624,888.247130,10214.842000,-383.047749
135.472945,1554.432478,8734.430116,-766.095498
135.473265,1776.494261,9104.533087,-995.924147
135.473586,888.247130,10288.862594,0.000000
135.473906,0.000000,10362.883188,1302.362347
135.474227,-222.061783,9326.594869,1225.752797
135.474547,0.000000,8882.471304,-76.609550
135.474868,592.164754,9252.574275,689.485948
135.475188,1480.411884,10510.924376,153.219100
135.475509,1406.391290,11917.315666,-612.876398
135.475829,814.226536,12213.398043,-1302.362347
135.476150,518.144159,12435.459826,-1685.410096
135.476470,814.226536,12657.521608,-1532.190996
135.476791,296.082377,13175.665768,0.000000
135.477111,518.144159,12731.542202,536.266849
135.477432,-222.061783,11473.192101,229.828649
135.477752,0.000000,9844.739029,1302.362347
135.478073,740.205942,9030.512492,2987.772442
135.478393,-814.226536,8734.430116,2145.067394
135.478714,-814.226536,8142.265362,536.266849
135.479034,-666.185348,7772.162391,76.609550
135.479355,-370.102971,8290.306550,-229.828649
135.479675,1702.473667,9178.553681,919.314598
135.479996,3108.864956,11029.068536,919.314598
135.480316,3997.112087,12953.603985,-306.438199
135.480637,3404.947333,12805.562797,-1608.800546
135.480957,2664.741391,9622.677246,-2451.505594
135.481278,3108.864956,5773.606348,-1915.238745
135.481598,4811.338623,5921.647536,995.924147
135.481919,4959.379811,8882.471304,2528.115143
135.482239,3182.885551,10807.006753,0.000000
135.482560,2590.720797,10955.047942,-2987.772442
135.482880,3552.988522,10066.800811,-2911.162892
135.483201,2294.638420,7698.141797,-1608.800546
135.483521,2146.597232,5551.544565,-766.095498
135.483842,3478.967927,6513.812290,0.000000
135.484162,2516.700203,9474.636058,-536.266849
135.484483,1184.329507,12361.439231,0.000000
135.484803,1480.411884,12879.583391,229.828649
135.485124,2664.741391,12435.459826,612.876398
135.485444,3256.906145,12139.377449,1762.019645
135.485765,2368.659014,11103.089130,995.924147
135.486085,1480.411884,9326.594869,-1149.143247
135.486406,2516.700203,8290.306550,-536.266849
135.486726,3256.906145,7402.059420,1455.581446
135.487047,3256.906145,6291.750507,1762.019645
135.487367,3775.050304,5551.544565,842.705048
135.487688,5255.462188,6661.853478,766.095498
135.488008,6439.791695,8438.347739,1072.533697
135.488329,7920.203579,9326.594869,1149.143247
135.488649,10732.986159,8808.450710,0.000000
135.488970,10510.924376,7476.080014,-2451.505594
135.489290,7994.224174,5403.503377,-3140.991542
135.489611,7994.224174,6587.832884,-2451.505594
135.489931,6735.874072,8364.327145,-2604.724693
135.490252,5255.462188,8068.244768,-2298.286494
135.490572,7698.141797,8734.430116,-689.485948
135.490893,7402.059420,8586.388927,76.609550
135.491213,5181.441594,8364.327145,76.609550
135.491534,4071.132681,8512.368333,536.266849
135.491854,3256.906145,7328.038826,-306.438199
135.492175,2220.617826,6217.729913,76.609550
135.492496,2442.679609,5551.544565,536.266849
135.492816,4367.215058,6513.812290,0.000000
135.493137,4959.379811,9622.677246,229.828649
135.493457,2738.761985,12287.418637,1685.410096
135.493778,1554.432478,12361.439231,229.828649
135.494098,2590.720797,11695.253884,306.438199
135.494419,1702.473667,9770.718434,1149.143247
135.494740,1628.453072,8734.430116,1302.362347
135.495060,2664.741391,7031.956449,766.095498
135.495381,2368.659014,7624.121203,153.219100
135.495701,1850.514855,6735.874072,766.095498
135.496022,3552.988522,6587.832884,2068.457845
135.496342,5847.626942,6809.894666,1072.533697
135.496663,4959.379811,7402.059420,153.219100
135.496984,6587.832884,8216.285956,-1685.410096
135.497304,8808.450710,8808.450710,-3064.381992
135.497625,8438.347739,8290.306550,-2298.286494
135.497945,8660.409521,7476.080014,536.266849
135.498266,7994.224174,7105.977043,612.876398
135.498586,4959.379811,6513.812290,-2221.676944
135.498907,5181.441594,6957.935855,-4136.915689
135.499228,6069.688724,7772.162391,-4060.306139
135.499548,7402.059420,8882.471304,-2374.896044
135.499869,7550.100608,8660.409521,536.266849
135.500189,6513.812290,7698.141797,919.314598
135.500510,3701.029710,6439.791695,306.438199
135.500830,1628.453072,6291.750507,1302.362347
135.501151,2368.659014,6957.935855,1455.581446
135.501472,4663.297435,8808.450710,919.314598
135.501792,5773.606348,10362.883188,919.314598
135.502113,5551.544565,10510.924376,1532.190996
135.502433,4663.297435,10288.862594,1378.971896
135.502754,1702.473667,9104.533087,76.609550
135.503074,1184.329507,7105.977043,-383.047749
135.503395,3256.906145,7402.059420,-459.657299
135.503716,3997.112087,8734.430116,-153.219100
135.504036,4737.318029,9326.594869,919.314598
135.504357,6439.791695,9178.553681,1149.143247
135.504677,4515.256246,8364.327145,459.657299
135.504998,4145.153275,7328.038826,-306.438199
135.505318,6217.729913,7698.141797,-1378.971896
135.505639,7105.977043,8142.265362,-2604.724693
135.505960,7105.977043,8660.409521,-1762.019645
135.506280,8290.306550,8660.409521,153.219100
135.506601,6513.812290,8216.285956,-689.485948
135.506921,4959.379811,7328.038826,-1302.362347
135.507242,4589.276840,6883.915261,-1838.629195
135.507562,5847.626942,7105.977043,-2221.676944
135.507883,6439.791695,7846.182985,-229.828649
135.508204,6365.771101,8438.347739,612.876398
135.508524,5921.647536,7698.141797,536.266849
135.508845,5107.421000,7328.038826,612.876398
135.509165,3923.091493,6439.791695,-383.047749
135.509486,3552.988522,5921.647536,-612.876398
135.509806,5551.544565,7920.203579,-1072.533697
135.510127,5107.421000,8660.409521,-153.219100
135.510448,4737.318029,8586.388927,1072.533697
135.510768,5551.544565,8956.491898,1455.581446
135.511089,3849.070898,8882.471304,612.876398
135.511409,2516.700203,8290.306550,-842.705048
135.511730,3627.009116,8068.244768,-1455.581446
135.512050,4589.276840,8364.327145,-842.705048
135.512371,5551.544565,8438.347739,919.314598
135.512692,6809.894666,8290.306550,2298.286494
135.513012,6217.729913,7476.080014,1378.971896
135.513333,5551.544565,6809.894666,1685.410096
135.513653,5403.503377,6735.874072,0.000000
135.513974,6217.729913,7105.977043,-1149.143247
135.514294,7550.100608,7994.224174,-1225.752797
135.514615,7402.059420,8068.244768,383.047749
135.514936,6957.935855,8142.265362,1072.533697
135.515256,5403.503377,7994.224174,0.000000
135.515577,2886.803174,7105.977043,-1838.629195
135.515897,3997.112087,7698.141797,-2681.334243
135.516218,5699.585753,9474.636058,-1378.971896
135.516538,5033.400406,10362.883188,0.000000
135.516859,4441.235652,10066.800811,459.657299
135.517180,4145.153275,9252.574275,1072.533697
135.517500,2220.617826,8512.368333,2221.676944
135.517821,1702.473667,7994.224174,1532.190996
135.518141,1776.494261,7920.203579,-306.438199
135.518462,2368.659014,8290.306550,-1225.752797
135.518782,3182.885551,9844.739029,919.314598
135.519103,3997.112087,10732.986159,2911.162892
135.519424,2664.741391,9696.697840,2068.457845
135.519744,2812.782580,8290.306550,76.609550
135.520065,3108.864956,6957.935855,-383.047749
135.520385,3182.885551,6587.832884,-459.657299
135.520706,4515.256246,7105.977043,1455.581446
135.521026,6513.812290,8142.265362,1762.019645
135.521347,6439.791695,7254.018232,689.485948
135.521668,6217.729913,6513.812290,153.219100
135.521988,6365.771101,5847.626942,-1532.190996
135.522309,6217.729913,6809.894666,-2298.286494
135.522629,8216.285956,7550.100608,-1991.848295
135.522950,9178.553681,7254.018232,-459.657299
135.523270,9474.636058,6661.853478,0.000000
135.523591,9326.594869,6365.771101,76.609550
135.523912,7994.224174,6069.688724,-1149.143247
135.524232,6143.709319,5625.565159,-2834.553343
135.524553,7105.977043,5847.626942,-2068.457845
135.524873,7624.121203,6291.750507,-459.657299
135.525194,7772.162391,6661.853478,612.876398
135.525514,7624.121203,7031.956449,1072.533697
135.525835,5403.503377,6661.853478,-229.828649
135.526156,4663.297435,6587.832884,-995.924147
135.526476,4737.318029,7254.018232,-766.095498
135.526797,5773.606348,7624.121203,-306.438199
135.527117,6365.771101,8364.327145,766.095498
135.527438,5921.647536,9548.656652,1762.019645
135.527759,4811.338623,10584.944971,919.314598
135.528079,3552.988522,9474.636058,-1302.362347
135.528400,3849.070898,7328.038826,-1915.238745
135.528720,5255.462188,6587.832884,-1225.752797
135.529041,5773.606348,6809.894666,1378.971896
135.529361,5921.647536,7476.080014,2451.505594
135.529682,5477.523971,7624.121203,612.876398
135.530003,4959.379811,7994.224174,-842.705048
135.530323,5329.482782,8882.471304,-1608.800546
135.530644,6661.853478,9326.594869,-1762.019645
135.530964,6661.853478,9400.615463,-1608.800546
135.531285,6661.853478,9252.574275,-536.266849
135.531605,6587.832884,9104.533087,306.438199
135.531926,5255.462188,9252.574275,-536.266849
135.532247,3775.050304,8882.471304,-1685.410096
135.532567,4071.132681,9030.512492,-2911.162892
135.532888,4959.379811,8734.430116,-1991.848295
135.533208,4811.338623,9178.553681,153.219100
135.533529,4737.318029,8512.368333,1149.143247
135.533849,4441.235652,8586.388927,1225.752797
135.534170,3182.885551,7920.203579,612.876398
135.534491,3108.864956,7698.141797,153.219100
135.534811,2886.803174,7105.977043,-76.609550
135.535132,3849.070898,8364.327145,-383.047749
135.535452,4367.215058,9178.553681,919.314598
135.535773,4219.173869,10066.800811,1915.238745
135.536093,3775.050304,9992.780217,919.314598
135.536414,3404.947333,8882.471304,-229.828649
135.536735,3701.029710,6883.915261,-1608.800546
135.537055,4811.338623,6957.935855,-919.314598
135.537376,5847.626942,7476.080014,1378.971896
135.537696,6735.874072,7179.997637,1838.629195
135.538017,7179.997637,6513.812290,1838.629195
135.538337,6735.874072,5921.647536,842.705048
135.538658,5033.400406,5329.482782,-842.705048
135.538979,5403.503377,5107.421000,-2068.457845
135.539299,7105.977043,6439.791695,-1762.019645
135.539620,7550.100608,7402.059420,-842.705048
135.539940,7402.059420,7994.224174,-689.485948
135.540261,7328.038826,8216.285956,-536.266849
135.540581,5403.503377,8660.409521,-766.095498
135.540902,4293.194464,8290.306550,-1685.410096
135.541223,4885.359217,7328.038826,-1762.019645
135.541543,5329.482782,7328.038826,-536.266849
135.541864,4959.379811,8364.327145,842.705048
135.542184,4663.297435,8586.388927,1762.019645
135.542505,3108.864956,7550.100608,459.657299
135.542825,1406.391290,6883.915261,-1149.143247
135.543146,2812.782580,7698.141797,-383.047749
135.543467,3330.926739,8808.450710,689.485948
135.543787,2886.803174,9104.533087,1149.143247
135.544108,4737.318029,9622.677246,1762.019645
135.544428,4959.379811,10140.821405,1991.848295
135.544749,3552.988522,9770.718434,689.485948
135.545069,3108.864956,8068.244768,-383.047749
135.545390,4145.153275,7402.059420,-1225.752797
135.545711,4811.338623,7550.100608,-153.219100
135.546031,5773.606348,7994.224174,1225.752797
135.546352,5773.606348,7846.182985,76.609550
135.546672,5625.565159,7179.997637,-995.924147
135.546993,5181.441594,7105.977043,-1149.143247
135.547313,5921.647536,7328.038826,-1762.019645
135.547634,7031.956449,7402.059420,-1685.410096
135.547955,7550.100608,8438.347739,-1455.581446
135.548275,8068.244768,9400.615463,-1225.752797
135.548596,7698.141797,9548.656652,-229.828649
135.548916,6291.750507,8438.347739,-1149.143247
135.549237,4811.338623,7105.977043,-2068.457845
135.549557,4737.318029,6735.874072,-2298.286494
135.549878,5477.523971,8216.285956,-1302.362347
135.550199,4737.318029,8660.409521,-612.876398
135.550519,4737.318029,8956.491898,0.000000
135.550840,4441.235652,8364.327145,689.485948
135.551160,3330.926739,7254.018232,1149.143247
135.551481,2886.803174,7105.977043,1378.971896
135.551801,3552.988522,7550.100608,459.657299
135.552122,4441.235652,9696.697840,-153.219100
135.552443,5181.441594,10510.924376,229.828649
135.552763,5181.441594,10584.944971,306.438199
135.553084,5477.523971,9548.656652,383.047749
135.553404,4515.256246,8142.265362,153.219100
135.553725,4293.194464,7179.997637,-536.266849
135.554045,4959.379811,7698.141797,-919.314598
135.554366,5107.421000,8216.285956,-689.485948
135.554687,6143.709319,8734.430116,995.924147
135.555007,6143.709319,8364.327145,1225.752797
135.555328,4959.379811,7105.977043,689.485948
135.555648,4441.235652,7105.977043,-995.924147
135.555969,4737.318029,7772.162391,-1685.410096
135.556289,5477.523971,9252.574275,-1072.533697
135.556610,5477.523971,9104.533087,0.000000
135.556931,6069.688724,8364.327145,612.876398
135.557251,5477.523971,8586.388927,-229.828649
135.557572,3552.988522,8882.471304,-459.657299
135.557892,2886.803174,8586.388927,-1302.362347
135.558213,4145.153275,8660.409521,-1685.410096
135.558533,4441.235652,8068.244768,0.000000
135.558854,4885.359217,7179.997637,1608.800546
135.559175,4737.318029,7031.956449,1838.629195
135.559495,2738.761985,6661.853478,1072.533697
135.559816,2072.576638,6883.915261,153.219100
135.560136,3256.906145,7105.977043,-536.266849
135.560457,4441.235652,7994.224174,-612.876398
135.560777,5403.503377,8734.430116,459.657299
135.561098,6069.688724,9252.574275,1532.190996
135.561419,5477.523971,9326.594869,689.485948
135.561739,4441.235652,8142.265362,-536.266849
135.562060,4737.318029,6957.935855,-995.924147
135.562380,5921.647536,6735.874072,-306.438199
135.562701,5625.565159,7031.956449,-612.876398
135.563021,5773.606348,7994.224174,-229.828649
135.563342,5995.668130,7994.224174,-612.876398
135.563663,4737.318029,7105.977043,-766.095498
135.563983,3923.091493,6439.791695,-842.705048
135.564304,5107.421000,6439.791695,-612.876398
135.564624,4811.338623,8142.265362,-689.485948
135.564945,5181.441594,10362.883188,-766.095498
135.565265,4811.338623,10658.965565,-766.095498
135.565586,5033.400406,10584.944971,-383.047749
135.565907,3849.070898,9622.677246,0.000000
135.566227,3108.864956,8956.491898,-919.314598
135.566548,3182.885551,8808.450710,-995.924147
135.566868,3034.844362,10436.903782,-229.828649
135.567189,3404.947333,10807.006753,612.876398
135.567509,3404.947333,9400.615463,383.047749
135.567830,2442.679609,7624.121203,1532.190996
135.568151,2590.720797,7994.224174,1762.019645
135.568471,2516.700203,9252.574275,995.924147
135.568792,2738.761985,9474.636058,-536.266849
135.569112,5255.462188,9474.636058,-383.047749
135.569433,5403.503377,9474.636058,766.095498
135.569754,5255.462188,8956.491898,995.924147
135.570074,4737.318029,9104.533087,-153.219100
135.570395,3552.988522,7698.141797,-2145.067394
135.570715,4737.318029,7105.977043,-2298.286494
135.571036,6809.894666,7624.121203,-306.438199
135.571356,6217.729913,7031.956449,-153.219100
135.571677,6587.832884,7105.977043,-842.705048
135.571998,5699.585753,7698.141797,-842.705048
135.572318,4737.318029,7105.977043,-1608.800546
135.572639,6143.709319,5995.668130,-1915.238745
135.572959,7254.018232,6365.771101,-1838.629195
135.573280,7179.997637,9104.533087,-1685.410096
135.573600,5995.668130,9918.759623,-1378.971896
135.573921,5033.400406,8660.409521,0.000000
135.574242,4885.359217,7698.141797,-383.047749
135.574562,4737.318029,7920.203579,-306.438199
135.574883,4885.359217,7254.018232,-383.047749
135.575203,4145.153275,8216.285956,-689.485948
135.575524,3997.112087,8734.430116,76.609550
135.575844,4515.256246,8068.244768,1685.410096
135.576165,4145.153275,6587.832884,2298.286494
135.576486,3330.926739,6217.729913,2145.067394
135.576806,3552.988522,7698.141797,1378.971896
135.577127,4293.194464,9400.615463,76.609550
135.577447,5033.400406,9474.636058,0.000000
135.577768,5477.523971,8586.388927,689.485948
135.578088,6069.688724,8290.306550,1915.238745
135.578409,5699.585753,8586.388927,1455.581446
135.578730,4589.276840,8512.368333,-995.924147
135.579050,4515.256246,8882.471304,-2757.943793
135.579371,5699.585753,8512.368333,-1455.581446
135.579691,6883.915261,8512.368333,1302.362347
135.580012,7031.956449,8216.285956,2145.067394
135.580332,5329.482782,7105.977043,842.705048
135.580653,4441.235652,6587.832884,-842.705048
135.580974,4737.318029,5995.668130,-1608.800546
135.581294,4885.359217,5995.668130,-1302.362347
135.581615,5847.626942,7105.977043,-383.047749
135.581935,6513.812290,8290.306550,689.485948
135.582256,6217.729913,9622.677246,919.314598
135.582576,5477.523971,10436.903782,-76.609550
135.582897,3478.967927,9030.512492,-1762.019645
135.583218,3478.967927,7402.059420,-2221.676944
135.583538,3997.112087,7105.977043,0.000000
135.583859,4663.297435,7846.182985,1685.410096
135.584179,4885.359217,8660.409521,1302.362347
135.584500,3775.050304,8660.409521,536.266849
135.584820,2516.700203,7846.182985,-306.438199
135.585141,2812.782580,7254.018232,-689.485948
135.585462,4293.194464,7254.018232,229.828649
135.585782,5329.482782,7772.162391,1455.581446
135.586103,5773.606348,8142.265362,2068.457845
135.586423,5625.565159,8068.244768,919.314598
135.586744,4219.173869,8882.471304,-153.219100
135.587064,3330.926739,9104.533087,-1532.190996
135.587385,5329.482782,9178.553681,-2298.286494
135.587706,5699.585753,8586.388927,-1838.629195
135.588026,5329.482782,9252.574275,153.219100
135.588347,5255.462188,8808.450710,766.095498
135.588667,3849.070898,8290.306550,0.000000
135.588988,2812.782580,8586.388927,-689.485948
135.589308,3552.988522,8734.430116,-1455.581446
135.589629,4367.215058,8734.430116,-2068.457845
135.589950,5107.421000,9696.697840,-766.095498
135.590270,5255.462188,10436.903782,2451.505594
135.590591,4145.153275,10140.821405,2374.896044
135.590911,3034.844362,8808.450710,0.000000
135.591232,2738.761985,8290.306550,-1608.800546
135.591553,3923.091493,7994.224174,-1915.238745
135.591873,4885.359217,7624.121203,0.000000
135.592194,4811.338623,8142.265362,1608.800546
135.592515,5699.585753,9252.574275,2298.286494
135.592835,5329.482782,8808.450710,1378.971896
135.593156,4515.256246,7031.956449,-229.828649
135.593476,5403.503377,5329.482782,-1072.533697
135.593797,5921.647536,5773.606348,-1302.362347
135.594118,7550.100608,7105.977043,-766.095498
135.594438,7624.121203,7994.224174,0.000000
135.594759,7328.038826,7846.182985,0.000000
135.595080,8068.244768,7698.141797,-536.266849
135.595400,6957.935855,7402.059420,-1225.752797
135.595721,5477.523971,5995.668130,-2757.943793
135.596042,7328.038826,6365.771101,-2145.067394
135.596362,7994.224174,6809.894666,383.047749
135.596683,7772.162391,6809.894666,919.314598
135.597004,7550.100608,5847.626942,919.314598
135.597324,5625.565159,5699.585753,-995.924147
135.597645,4367.215058,6735.874072,-1685.410096
135.597965,4959.379811,7105.977043,-995.924147
135.598286,5551.544565,7698.141797,-459.657299
135.598607,6957.935855,8586.388927,766.095498
135.598927,6735.874072,8956.491898,2145.067394
135.599248,5551.544565,8882.471304,612.876398
135.599569,3256.906145,7920.203579,-1532.190996
135.599889,3478.967927,7550.100608,-2298.286494
135.600210,4071.132681,7920.203579,-689.485948
135.600531,5033.400406,8364.327145,1149.143247
135.600851,5995.668130,9326.594869,2451.505594
135.601172,5477.523971,9696.697840,1455.581446
135.601493,3478.967927,8438.347739,0.000000
135.601813,3108.864956,6291.750507,-536.266849
135.602134,4515.256246,5403.503377,0.000000
135.602455,6291.750507,6883.915261,1149.143247
135.602775,7624.121203,8808.450710,1838.629195
135.603096,7105.977043,9474.636058,153.219100
135.603416,6365.771101,10214.842000,-1302.362347
135.603737,4737.318029,9474.636058,-1762.019645
135.604058,5033.400406,7772.162391,-1838.629195
135.604378,7402.059420,6439.791695,-1455.581446
135.604699,6809.894666,6957.935855,-153.219100
135.605020,5329.482782,7698.141797,153.219100
135.605340,5255.462188,8808.450710,0.000000
135.605661,3849.070898,8734.430116,-459.657299
135.605982,3923.091493,7698.141797,-306.438199
135.606302,5551.544565,7402.059420,-689.485948
135.606623,5033.400406,7994.224174,-842.705048
135.606944,4811.338623,8808.450710,0.000000
135.607264,4959.379811,9326.594869,1378.971896
135.607585,4145.153275,8808.450710,919.314598
135.607905,3478.967927,7105.977043,76.609550
135.608226,3775.050304,7328.038826,-995.924147
135.608547,3552.988522,8216.285956,-1532.190996
135.608867,3478.967927,9030.512492,-612.876398
135.609188,4589.276840,9770.718434,2451.505594
135.609509,4737.318029,8882.471304,1838.629195
135.609829,4663.297435,7402.059420,1149.143247
135.610150,3627.009116,6513.812290,-229.828649
135.610471,3478.967927,7105.977043,-1532.190996
135.610791,4589.276840,8142.265362,-536.266849
135.611112,5847.626942,8734.430116,536.266849
135.611433,6587.832884,8216.285956,459.657299
135.611753,6587.832884,8142.265362,459.657299
135.612074,5625.565159,7994.224174,0.000000
135.612394,3997.112087,6513.812290,-1378.971896
135.612715,5033.400406,6069.688724,-2221.676944
135.613036,6513.812290,6661.853478,-689.485948
135.613356,6735.874072,7550.100608,306.438199
135.613677,7105.977043,8438.347739,612.876398
135.613998,5699.585753,7994.224174,0.000000
135.614318,4663.297435,6957.935855,-1685.410096
135.614639,4959.379811,6143.709319,-1762.019645
135.614960,5551.544565,7031.956449,-1225.752797
135.615280,6809.894666,8216.285956,0.000000
135.615601,6957.935855,9474.636058,1225.752797
135.615922,5847.626942,9326.594869,229.828649
135.616242,4515.256246,8734.430116,-995.924147
135.616563,3256.906145,7624.121203,-1532.190996
135.616884,3997.112087,7920.203579,-1838.629195
135.617204,4737.318029,8808.450710,0.000000
135.617525,5255.462188,9178.553681,1838.629195
135.617845,5477.523971,7994.224174,1608.800546
135.618166,4441.235652,7624.121203,1608.800546
135.618487,3701.029710,7846.182985,689.485948
135.618807,3108.864956,7476.080014,-536.266849
135.619128,4737.318029,7402.059420,-1149.143247
135.619449,6957.935855,9030.512492,842.705048
135.619769,7328.038826,9030.512492,1685.410096
135.620090,6587.832884,7994.224174,766.095498
135.620411,5551.544565,8068.244768,-383.047749
135.620731,4219.173869,7328.038826,-1838.629195
135.621052,5033.400406,7105.977043,-2068.457845
135.621373,6883.915261,6809.894666,-1302.362347
135.621693,8364.327145,7254.018232,0.000000
135.622014,7179.997637,7994.224174,766.095498
135.622334,6439.791695,7772.162391,-536.266849
135.622655,5107.421000,7179.997637,-1532.190996
135.622976,5107.421000,6513.812290,-2145.067394
135.623296,5477.523971,6439.791695,-1072.533697
135.623617,7105.977043,7550.100608,383.047749
135.623938,6291.750507,8364.327145,612.876398
135.624258,4885.359217,8808.450710,0.000000
135.624579,4293.194464,8956.491898,-383.047749
135.624900,3256.906145,9104.533087,-1608.800546
135.625220,2664.741391,7994.224174,-1302.362347
135.625541,3997.112087,7624.121203,-536.266849
135.625862,4663.297435,9030.512492,995.924147
135.626182,3923.091493,9622.677246,2757.943793
135.626503,3108.864956,8956.491898,1762.019645
135.626824,2516.700203,7994.224174,0.000000
135.627144,2960.823768,7698.141797,-612.876398
135.627465,4367.215058,9178.553681,0.000000
135.627785,4885.359217,9548.656652,-306.438199
135.628106,4959.379811,9400.615463,229.828649
135.628427,5403.503377,9104.533087,1915.238745
135.628747,5181.441594,7920.203579,1455.581446
135.629068,3552.988522,7179.997637,0.000000
135.629389,3478.967927,7031.956449,-1378.971896
135.629709,4737.318029,8216.285956,-1608.800546
135.630030,5847.626942,9104.533087,-306.438199
135.630351,6661.853478,8586.388927,689.485948
135.630671,6735.874072,7550.100608,842.705048
135.630992,5033.400406,7105.977043,-459.657299
135.631313,3775.050304,7031.956449,-1762.019645
135.631633,4367.215058,6883.915261,-2604.724693
135.631954,5773.606348,7031.956449,-1149.143247
135.632274,6809.894666,8142.265362,766.095498
135.632595,6365.771101,9104.533087,1455.581446
135.632916,4959.379811,8364.327145,-229.828649
135.633236,3997.112087,7031.956449,-1532.190996
135.633557,4367.215058,6069.688724,-1915.238745
135.633878,4811.338623,6143.709319,-1149.143247
135.634198,5625.565159,7105.977043,459.657299
135.634519,6069.688724,8882.471304,1838.629195
135.634840,5329.482782,8734.430116,1685.410096
135.635160,4885.359217,7624.121203,536.266849
135.635481,4367.215058,7031.956449,-1532.190996
135.635802,3923.091493,6957.935855,-1915.238745
135.636122,4737.318029,8290.306550,-612.876398
135.636443,6143.709319,9178.553681,1302.362347
135.636764,5551.544565,8438.347739,1838.629195
135.637084,5107.421000,7994.224174,536.266849
135.637405,3182.885551,7624.121203,-1608.800546
135.637725,3256.906145,8068.244768,-3294.210641
135.638046,4885.359217,9104.533087,-1915.238745
135.638367,6291.750507,9326.594869,-76.609550
135.638687,6809.894666,8660.409521,1225.752797
135.639008,6365.771101,8216.285956,919.314598
135.639329,4219.173869,9030.512492,76.609550
135.639649,2812.782580,8734.430116,-1302.362347
135.639970,3849.070898,7402.059420,-2528.115143
135.640291,5773.606348,7920.203579,-1378.971896
135.640611,6365.771101,8956.491898,766.095498
135.640932,5995.668130,9548.656652,2068.457845
135.641253,5255.462188,10140.821405,-153.219100
135.641573,3256.906145,9696.697840,-2374.896044
135.641894,3034.844362,8290.306550,-2374.896044
135.642214,4663.297435,7254.018232,-1072.533697
135.642535,5181.441594,7772.162391,995.924147
135.642856,5995.668130,8882.471304,2298.286494
135.643176,5107.421000,9622.677246,1532.190996
135.643497,3256.906145,8660.409521,-612.876398
135.643818,3108.864956,7772.162391,-1685.410096
135.644138,4589.276840,6365.771101,-919.314598
135.644459,5699.585753,7105.977043,0.000000
135.644780,5255.462188,8438.347739,1072.533697
135.645100,5551.544565,9696.697840,995.924147
135.645421,4441.235652,9104.533087,76.609550
135.645742,3330.926739,7624.121203,-842.705048
135.646062,4219.173869,7105.977043,-1378.971896
135.646383,4811.338623,7328.038826,-1838.629195
135.646703,5181.441594,8364.327145,-919.314598
135.647024,6217.729913,9400.615463,766.095498
135.647345,6143.709319,8512.368333,536.266849
135.647665,5329.482782,7550.100608,0.000000
135.647986,4219.173869,7105.977043,-842.705048
135.648307,3108.864956,7105.977043,-2298.286494
135.648627,4589.276840,8068.244768,-1225.752797
135.648948,6143.709319,8734.430116,306.438199
135.649269,6735.874072,8290.306550,1072.533697
135.649589,5477.523971,7328.038826,1302.362347
135.649910,3849.070898,7698.141797,229.828649
135.650231,2294.638420,7772.162391,-1225.752797
135.650551,3108.864956,8216.285956,-1302.362347
135.650872,4811.338623,8290.306550,153.219100
135.651193,5403.503377,8364.327145,1072.533697
135.651513,5773.606348,8882.471304,1991.848295
135.651834,4959.379811,8956.491898,1378.971896
135.652154,2960.823768,7772.162391,-1149.143247
135.652475,3849.070898,7179.997637,-1838.629195
135.652796,4737.318029,7105.977043,-1302.362347
135.653116,5995.668130,8438.347739,612.876398
135.653437,5995.668130,9030.512492,1608.800546
135.653758,5181.441594,8660.409521,612.876398
135.654078,4515.256246,8586.388927,-1072.533697
135.654399,4145.153275,7846.182985,-1608.800546
135.654720,3552.988522,7328.038826,-1915.238745
135.655040,5773.606348,7846.182985,-842.705048
135.655361,6661.853478,9030.512492,1149.143247
135.655682,6439.791695,9104.533087,1685.410096
135.656002,5477.523971,8734.430116,612.876398
135.656323,3701.029710,8142.265362,-612.876398
135.656643,3256.906145,7476.080014,-1378.971896
135.656964,4589.276840,8216.285956,-1149.143247
135.657285,5329.482782,8364.327145,-689.485948
135.657605,6143.709319,8956.491898,0.000000
135.657926,5477.523971,8586.388927,995.924147
135.658247,3552.988522,8438.347739,-153.219100
135.658567,2590.720797,8216.285956,-919.314598
135.658888,4145.153275,8068.244768,-842.705048
135.659209,4885.359217,8586.388927,-919.314598
135.659529,5033.400406,8734.430116,306.438199
135.659850,6217.729913,9474.636058,1608.800546
135.660171,5033.400406,8882.471304,919.314598
135.660491,3256.906145,8068.244768,229.828649
135.660812,3701.029710,7328.038826,-995.924147
135.661133,4219.173869,7254.018232,-1762.019645
135.661453,4515.256246,8216.285956,-1149.143247
135.661774,4811.338623,8512.368333,0.000000
135.662094,5847.626942,8882.471304,612.876398
135.662415,5255.462188,9104.533087,689.485948
135.662736,3552.988522,8512.368333,-995.924147
135.663056,3923.091493,7550.100608,-2911.162892
135.663377,5255.462188,7328.038826,-1991.848295
135.663698,5995.668130,7476.080014,766.095498
135.664018,6661.853478,7772.162391,2221.676944
135.664339,6809.894666,8142.265362,919.314598
135.664660,5033.400406,7994.224174,-689.485948
135.664980,3701.029710,6957.935855,-1685.410096
135.665301,4885.359217,6809.894666,-1225.752797
135.665622,6217.729913,7550.100608,-76.609550
135.665942,6513.812290,7698.141797,842.705048
135.666263,6439.791695,8142.265362,766.095498
135.666583,4885.359217,8290.306550,0.000000
135.666904,3552.988522,7920.203579,-536.266849
135.667225,3627.009116,8142.265362,-1302.362347
135.667545,4959.379811,8512.368333,-1302.362347
135.667866,5699.585753,8808.450710,306.438199
135.668187,5847.626942,8956.491898,1685.410096
135.668507,5773.606348,8586.388927,1455.581446
135.668828,4589.276840,7994.224174,766.095498
135.669149,3552.988522,7105.977043,-612.876398
135.669469,3923.091493,6439.791695,-1302.362347
135.669790,4441.235652,7402.059420,-153.219100
135.670111,6291.750507,8660.409521,1685.410096
135.670431,5625.565159,9548.656652,1685.410096
135.670752,5255.462188,8438.347739,383.047749
135.671072,4589.276840,7698.141797,-919.314598
135.671393,4071.132681,6957.935855,-1915.238745
135.671714,5107.421000,7476.080014,-1532.190996
135.672034,5625.565159,8734.430116,306.438199
135.672355,5921.647536,8808.450710,1225.752797
135.672676,6143.709319,8882.471304,1608.800546
135.672996,5255.462188,8808.450710,0.000000
135.673317,3627.009116,7328.038826,-1685.410096
135.673638,3997.112087,7105.977043,-1991.848295
135.673958,5181.441594,8216.285956,-153.219100
135.674279,5847.626942,8512.368333,1072.533697
135.674600,5403.503377,7772.162391,1685.410096
135.674920,5181.441594,7920.203579,229.828649
135.675241,3404.947333,8438.347739,-842.705048
135.675562,2738.761985,7698.141797,-1149.143247
135.675882,4441.235652,6513.812290,-1378.971896
135.676203,5773.606348,6661.853478,0.000000
135.676523,5847.626942,8068.244768,842.705048
135.676844,5403.503377,9400.615463,1302.362347
135.677165,3775.050304,9104.533087,-766.095498
135.677485,3849.070898,8512.368333,-2298.286494
135.677806,4959.379811,7105.977043,-1532.190996
135.678127,6217.729913,7105.977043,0.000000
135.678447,6143.709319,8216.285956,1225.752797
135.678768,5403.503377,8882.471304,1302.362347
135.679089,5181.441594,9178.553681,-383.047749
135.679409,4293.194464,9104.533087,-1378.971896
135.679730,3775.050304,7031.956449,-2145.067394
135.680051,5625.565159,6809.894666,-1762.019645
135.680371,6365.771101,8586.388927,995.924147
135.680692,5329.482782,9400.615463,1991.848295
135.681012,5107.421000,8882.471304,1532.190996
135.681333,4663.297435,7994.224174,459.657299
135.681654,4367.215058,7994.224174,0.000000
135.681974,4515.256246,7772.162391,-766.095498
135.682295,5329.482782,7179.997637,-1915.238745
135.682616,6069.688724,8364.327145,-612.876398
135.682936,5773.606348,9178.553681,1532.190996
135.683257,5773.606348,9030.512492,1685.410096
135.683578,4811.338623,8142.265362,0.000000
135.683898,4145.153275,7476.080014,-1991.848295
135.684219,5181.441594,7402.059420,-2145.067394
135.684540,6365.771101,7624.121203,-1072.533697
135.684860,6439.791695,7772.162391,1072.533697
135.685181,7179.997637,8290.306550,1685.410096
135.685502,6439.791695,7846.182985,383.047749
135.685822,4367.215058,6957.935855,-1685.410096
135.686143,3775.050304,6809.894666,-2221.676944
135.686463,5551.544565,7624.121203,-1072.533697
135.686784,7105.977043,8660.409521,1225.752797
135.687105,7328.038826,8216.285956,1838.629195
135.687425,6439.791695,7624.121203,766.095498
135.687746,4737.318029,7624.121203,-1378.971896
135.688067,2442.679609,7846.182985,-2221.676944
135.688387,2886.803174,7328.038826,-1915.238745
135.688708,5329.482782,7994.224174,-383.047749
135.689029,6439.791695,9104.533087,1685.410096
135.689349,5773.606348,9326.594869,1838.629195
135.689670,3849.070898,8956.491898,459.657299
135.689991,2072.576638,7994.224174,-1072.533697
135.690311,2664.741391,7031.956449,-1072.533697
135.690632,4589.276840,7179.997637,306.438199
135.690952,6069.688724,8142.265362,919.314598
135.691273,6069.688724,9104.533087,1532.190996
135.691594,5107.421000,9548.656652,1149.143247
135.691914,4219.173869,8808.450710,612.876398
135.692235,3552.988522,6587.832884,-459.657299
135.692556,4811.338623,5773.606348,-1302.362347
135.692876,6587.832884,6957.935855,-995.924147
135.693197,7031.956449,8586.388927,459.657299
135.693518,6661.853478,9326.594869,842.705048
135.693838,6069.688724,7772.162391,76.609550
135.694159,5477.523971,7031.956449,-536.266849
135.694480,4959.379811,6735.874072,-536.266849
135.694800,5107.421000,6661.853478,-766.095498
135.695121,6069.688724,7476.080014,-383.047749
135.695442,7105.977043,7846.182985,229.828649
135.695762,6661.853478,7846.182985,612.876398
135.696083,6143.709319,7328.038826,153.219100
135.696404,4293.194464,6957.935855,-306.438199
135.696724,3775.050304,5995.668130,-1302.362347
135.697045,5773.606348,7105.977043,-1072.533697
135.697366,6069.688724,8364.327145,0.000000
135.697686,5403.503377,8734.430116,0.000000
135.698007,5847.626942,8882.471304,0.000000
135.698328,5181.441594,8512.368333,-383.047749
135.698648,3552.988522,7624.121203,-306.438199
135.698969,4145.153275,7550.100608,-842.705048
135.699290,4959.379811,8438.347739,-689.485948
135.699610,4811.338623,9918.759623,383.047749
135.699931,5033.400406,9918.759623,1302.362347
135.700252,5773.606348,8808.450710,536.266849
135.700572,3997.112087,7402.059420,-536.266849
135.700893,3182.885551,7105.977043,-1455.581446
135.701214,4293.194464,7624.121203,-1072.533697
135.701534,5033.400406,7920.203579,-306.438199
135.701855,5921.647536,9030.512492,1455.581446
135.702176,6069.688724,8438.347739,1685.410096
135.702496,4589.276840,7624.121203,459.657299
135.702817,3478.967927,7624.121203,-1072.533697
135.703138,3627.009116,7698.141797,-1991.848295
135.703458,5699.585753,8882.471304,-1762.019645
135.703779,6587.832884,10140.821405,-612.876398
135.704100,6143.709319,10214.842000,229.828649
135.704420,5773.606348,9992.780217,0.000000
135.704741,4293.194464,9178.553681,-153.219100
135.705062,3034.844362,7328.038826,-1378.971896
135.705382,4589.276840,7105.977043,-612.876398
135.705703,3923.091493,7105.977043,0.000000
135.706024,3849.070898,7105.977043,995.924147
135.706344,5625.565159,8364.327145,1838.629195
135.706665,4589.276840,8364.327145,612.876398
135.706986,2368.659014,7105.977043,-1225.752797
135.707306,5403.503377,6957.935855,-842.705048
135.707627,5329.482782,7698.141797,0.000000
135.707948,5033.400406,7920.203579,0.000000
135.708268,6883.915261,9104.533087,536.266849
135.708589,6365.771101,9252.574275,-689.485948
135.708910,4145.153275,8438.347739,-1685.410096
135.709230,5403.503377,7846.182985,-1991.848295
135.709551,5921.647536,6957.935855,-2834.553343
135.709872,5699.585753,7105.977043,-995.924147
135.710192,5699.585753,8142.265362,1685.410096
135.710513,4885.359217,7698.141797,459.657299
135.710834,4737.318029,7476.080014,306.438199
135.711154,3849.070898,7550.100608,76.609550
135.711475,4071.132681,7624.121203,-919.314598
135.711795,5107.421000,7920.203579,-842.705048
135.712116,5921.647536,8956.491898,842.705048
135.712437,5107.421000,9474.636058,919.314598
135.712757,5107.421000,8808.450710,1838.629195
135.713078,4885.359217,8216.285956,612.876398
135.713399,3478.967927,6661.853478,-536.266849
135.713719,3627.009116,6365.771101,-1225.752797
135.714040,5477.523971,7920.203579,-536.266849
135.714361,5255.462188,9326.594869,76.609550
135.714681,5699.585753,8882.471304,1378.971896
135.715002,6143.709319,8142.265362,536.266849
135.715323,4885.359217,7105.977043,-842.705048
135.715643,4145.153275,7402.059420,-1225.752797
135.715964,5255.462188,7994.224174,-1378.971896
135.716285,5995.668130,8808.450710,-842.705048
135.716605,6809.894666,8512.368333,766.095498
135.716926,6883.915261,7920.203579,1225.752797
135.717247,5551.544565,7328.038826,-229.828649
135.717567,3701.029710,6587.832884,-1532.190996
135.717888,3923.091493,6883.915261,-2068.457845
135.718209,5773.606348,7402.059420,-1378.971896
135.718529,6513.812290,7846.182985,153.219100
135.718850,6365.771101,8290.306550,766.095498
135.719171,5181.441594,8438.347739,0.000000
135.719491,3701.029710,7994.224174,-1225.752797
135.719812,3108.864956,8290.306550,-1608.800546
135.720133,4071.132681,8586.388927,-1532.190996
135.720453,4515.256246,9548.656652,-842.705048
135.720774,5625.565159,10436.903782,1455.581446
135.721095,3997.112087,9474.636058,1608.800546
135.721415,2960.823768,7550.100608,0.000000
135.721736,2442.679609,7179.997637,-1149.143247
135.722057,3034.844362,7698.141797,-1225.752797
135.722377,4071.132681,9104.533087,-919.314598
135.722698,5847.626942,9992.780217,76.609550
135.723019,6291.750507,9178.553681,842.705048
135.723339,5699.585753,8586.388927,1302.362347
135.723660,3849.070898,7772.162391,766.095498
135.723981,2738.761985,7994.224174,-1378.971896
135.724301,3849.070898,8142.265362,-1302.362347
135.724622,5403.503377,10140.821405,-536.266849
135.724943,5773.606348,9992.780217,0.000000
135.725263,5329.482782,9844.739029,-306.438199
135.725584,4441.235652,9992.780217,76.609550
135.725905,3256.906145,8586.388927,-612.876398
135.726225,3404.947333,7031.956449,-766.095498
135.726546,4441.235652,6513.812290,-306.438199
135.726867,5255.462188,7994.224174,536.266849
135.727187,4885.359217,8734.430116,1225.752797
135.727508,4737.318029,8808.450710,76.609550
135.727829,4737.318029,7920.203579,-612.876398
135.728149,4737.318029,7105.977043,-995.924147
135.728470,5181.441594,7476.080014,-383.047749
135.728791,5329.482782,7772.162391,-842.705048
135.729111,5625.565159,8808.450710,-612.876398
135.729432,5625.565159,9178.553681,536.266849
135.729753,5551.544565,8216.285956,1378.971896
135.730073,4737.318029,7846.182985,306.438199
135.730394,3997.112087,7031.956449,-766.095498
135.730715,4293.194464,7476.080014,-995.924147
135.731035,5329.482782,8142.265362,-306.438199
135.731356,5625.565159,7476.080014,1225.752797
135.731677,5773.606348,6809.894666,689.485948
135.731997,5477.523971,6587.832884,842.705048
135.732318,4145.153275,6883.915261,0.000000
135.732639,4589.276840,7328.038826,-919.314598
135.732959,5033.400406,8808.450710,-995.924147
135.733280,5551.544565,8956.491898,76.609550
135.733601,6513.812290,9178.553681,229.828649
135.733921,6661.853478,8956.491898,766.095498
135.734242,4737.318029,7920.203579,0.000000
135.734563,3775.050304,6217.729913,-1532.190996
135.734883,4737.318029,6217.729913,-1302.362347
135.735204,5477.523971,7772.162391,0.000000
135.735525,5255.462188,8512.368333,1302.362347
135.735845,5921.647536,8364.327145,842.705048
135.736166,6291.750507,8290.306550,-76.609550
135.736487,4663.297435,7550.100608,-919.314598
135.736807,4811.338623,8068.244768,-1532.190996
135.737128,5847.626942,8290.306550,-1685.410096
135.737449,5625.565159,8290.306550,-919.314598
135.737769,6365.771101,8808.450710,995.924147
135.738090,5551.544565,8586.388927,153.219100
135.738411,3997.112087,8882.471304,-689.485948
135.738731,3182.885551,8882.471304,-919.314598
135.739052,4071.132681,8216.285956,-1149.143247
135.739373,4737.318029,7994.224174,0.000000
135.739693,5033.400406,7846.182985,995.924147
135.740014,4441.235652,7994.224174,842.705048
135.740335,3552.988522,8734.430116,-76.609550
135.740655,2664.741391,9104.533087,-383.047749
135.740976,3552.988522,9030.512492,-1608.800546
135.741297,5329.482782,9326.594869,-1072.533697
135.741617,5255.462188,9400.615463,383.047749
135.741938,4959.379811,9548.656652,919.314598
135.742259,4441.235652,9770.718434,689.485948
135.742579,3627.009116,9104.533087,-919.314598
135.742900,3701.029710,7550.100608,-1685.410096
135.743221,5181.441594,7254.018232,-1378.971896
135.743541,5255.462188,8438.347739,383.047749
135.743862,4959.379811,9104.533087,766.095498
135.744183,4959.379811,8364.327145,1149.143247
135.744503,5033.400406,7476.080014,0.000000
135.744824,3997.112087,7179.997637,-306.438199
135.745145,5181.441594,7031.956449,-919.314598
135.745465,5625.565159,7179.997637,-842.705048
135.745786,5403.503377,8068.244768,0.000000
135.746107,6143.709319,9474.636058,1225.752797
135.746427,5699.585753,9400.615463,229.828649
135.746748,5181.441594,8512.368333,-1149.143247
135.747069,5403.503377,7105.977043,-1608.800546
135.747389,5181.441594,6365.771101,-1532.190996
135.747710,5255.462188,5847.626942,-689.485948
135.748031,5551.544565,7624.121203,1072.533697
135.748351,5551.544565,7994.224174,1838.629195
135.748672,5329.482782,7254.018232,612.876398
135.748993,5033.400406,7254.018232,-306.438199
135.749313,4145.153275,7105.977043,-1608.800546
135.749634,4811.338623,7402.059420,-1149.143247
135.749955,5921.647536,7698.141797,766.095498
135.750275,5403.503377,8438.347739,919.314598
135.750596,5773.606348,8068.244768,842.705048
135.750917,5181.441594,8068.244768,0.000000
135.751237,3849.070898,7846.182985,-1991.848295
135.751558,3775.050304,8290.306550,-1532.190996
135.751879,5255.462188,7698.141797,-153.219100
135.752199,5921.647536,7772.162391,612.876398
135.752520,5921.647536,7624.121203,1608.800546
135.752841,5921.647536,7920.203579,995.924147
135.753161,4145.153275,8586.388927,-1532.190996
135.753482,3478.967927,7994.224174,-2145.067394
135.753802,4737.318029,8142.265362,-919.314598
135.754123,5995.668130,8956.491898,1072.533697
135.754444,5921.647536,9844.739029,2374.896044
135.754764,5255.462188,9696.697840,1455.581446
135.755085,3478.967927,9474.636058,-995.924147
135.755406,2812.782580,8216.285956,-1838.629195
135.755726,3478.967927,6957.935855,-1072.533697
135.756047,4441.235652,7105.977043,306.438199
135.756368,5699.585753,8956.491898,2374.896044
135.756688,4959.379811,10436.903782,1378.971896
135.757009,3108.864956,9252.574275,0.000000
135.757330,3478.967927,7624.121203,-919.314598
135.757650,3627.009116,7031.956449,-612.876398
135.757971,4515.256246,7402.059420,-842.705048
135.758292,5847.626942,8660.409521,-459.657299
135.758612,5551.544565,9400.615463,0.000000
135.758933,5255.462188,8660.409521,76.609550
135.759254,6143.709319,8586.388927,153.219100
135.759574,4885.359217,7624.121203,-689.485948
135.759895,4219.173869,6365.771101,-2374.896044
135.760216,6513.812290,6587.832884,-1302.362347
135.760536,6883.915261,7698.141797,536.266849
135.760857,6439.791695,7846.182985,1455.581446
135.761178,6735.874072,7105.977043,153.219100
135.761498,6069.688724,6513.812290,-1532.190996
135.761819,4811.338623,6217.729913,-1685.410096
135.762140,4885.359217,6365.771101,-536.266849
135.762460,6587.832884,7254.018232,-995.924147
135.762781,6291.750507,8882.471304,229.828649
135.763102,6143.709319,9622.677246,766.095498
135.763422,6217.729913,9474.636058,-306.438199
135.763743,4219.173869,7698.141797,-1915.238745
135.764064,3997.112087,6883.915261,-1991.848295
135.764384,4663.297435,6883.915261,-153.219100
135.764705,4737.318029,7772.162391,1302.362347
135.765026,5181.441594,8586.388927,1991.848295
135.765346,5995.668130,8438.347739,1225.752797
135.765667,4293.194464,7328.038826,-842.705048
135.765988,3701.029710,6513.812290,-919.314598
135.766308,3997.112087,7031.956449,-383.047749
135.766629,5181.441594,8660.409521,0.000000
135.766950,6217.729913,8438.347739,1378.971896
135.767270,6365.771101,9474.636058,306.438199
135.767591,5551.544565,9992.780217,0.000000
135.767912,4219.173869,9622.677246,-919.314598
135.768232,3997.112087,8734.430116,-2068.457845
135.768553,5033.400406,7624.121203,-1915.238745
135.768874,6143.709319,7476.080014,689.485948
135.769194,6439.791695,7846.182985,1915.238745
135.769515,5033.400406,7994.224174,1455.581446
135.769836,3627.009116,7402.059420,0.000000
135.770156,3256.906145,7105.977043,-919.314598
135.770477,4145.153275,6365.771101,-1149.143247
135.770798,7031.956449,6809.894666,-153.219100
135.771118,7550.100608,7550.100608,459.657299
135.771439,5847.626942,7846.182985,76.609550
135.771760,5625.565159,8734.430116,0.000000
135.772080,5181.441594,8586.388927,-766.095498
135.772401,3849.070898,7402.059420,-2145.067394
135.772722,6291.750507,7254.018232,-1608.800546
135.773042,6883.915261,7476.080014,-1149.143247
135.773363,5329.482782,8142.265362,-383.047749
135.773684,5921.647536,8808.450710,76.609550
135.774004,4515.256246,7624.121203,-229.828649
135.774325,3478.967927,6069.688724,-383.047749
135.774646,4515.256246,6291.750507,919.314598
135.774966,4663.297435,7846.182985,306.438199
135.775287,4293.194464,8660.409521,-76.609550
135.775608,4811.338623,9326.594869,612.876398
135.775928,5847.626942,9770.718434,766.095498
135.776249,4663.297435,9252.574275,0.000000
135.776570,3627.009116,7698.141797,-536.266849
135.776890,4367.215058,8364.327145,-1762.019645
135.777211,3997.112087,8956.491898,-689.485948
135.777532,3701.029710,8956.491898,1072.533697
135.777852,5329.482782,8290.306550,1455.581446
135.778173,5477.523971,7624.121203,1378.971896
135.778494,4441.235652,7772.162391,229.828649
135.778814,3849.070898,7476.080014,-919.314598
135.779135,4367.215058,8068.244768,-1991.848295
135.779456,5403.503377,9252.574275,-689.485948
135.779776,6143.709319,8216.285956,1302.362347
135.780097,7105.977043,7846.182985,1225.752797
135.780418,6365.771101,8290.306550,0.000000
135.780738,2960.823768,8068.244768,-1608.800546
135.781059,3404.947333,7624.121203,-2757.943793
135.781380,5403.503377,7846.182985,-1608.800546
135.781700,5625.565159,8438.347739,459.657299
135.782021,6069.688724,7994.224174,1378.971896
135.782342,6217.729913,7550.100608,766.095498
135.782662,4293.194464,7105.977043,-842.705048
135.782983,2368.659014,6513.812290,-1302.362347
135.783304,4071.132681,6069.688724,-842.705048
135.783624,6587.832884,7698.141797,76.609550
135.783945,6661.853478,8734.430116,1302.362347
135.784266,6883.915261,9326.594869,536.266849
135.784586,6513.812290,9252.574275,-1149.143247
135.784907,4367.215058,8142.265362,-1915.238745
135.785228,4959.379811,7476.080014,-1225.752797
135.785548,6957.935855,6957.935855,229.828649
135.785869,6365.771101,6735.874072,306.438199
135.786190,5403.503377,7031.956449,1532.190996
135.786510,5921.647536,8364.327145,1072.533697
135.786831,4737.318029,7994.224174,-459.657299
135.787152,4145.153275,7105.977043,-995.924147
135.787472,6365.771101,6513.812290,-995.924147
135.787793,5995.668130,7698.141797,-689.485948
135.788114,4959.379811,8216.285956,459.657299
135.788434,5477.523971,9178.553681,1149.143247
135.788755,5329.482782,9030.512492,-306.438199
135.789076,4589.276840,8734.430116,-1225.752797
135.789396,5181.441594,7994.224174,-1608.800546
135.789717,4737.318029,7624.121203,-2451.505594
135.790038,4663.297435,8882.471304,76.609550
135.790358,4959.379811,8882.471304,1762.019645
135.790679,5477.523971,7772.162391,919.314598
135.791000,4441.235652,7254.018232,153.219100
135.791320,3775.050304,7254.018232,-1072.533697
135.791641,4071.132681,8290.306550,-1838.629195
135.791962,4811.338623,8734.430116,0.000000
135.792282,5255.462188,9178.553681,229.828649
135.792603,6143.709319,8586.388927,612.876398
135.792924,5921.647536,8734.430116,0.000000
135.793243,4293.194464,9178.553681,-919.314598
135.793563,2590.720797,7994.224174,-2298.286494
135.793884,3923.091493,7846.182985,-1608.800546
135.794205,5033.400406,8216.285956,76.609550
135.794525,4811.338623,8364.327145,1225.752797
135.794846,5255.462188,8808.450710,1378.971896
135.795167,4219.173869,9030.512492,0.000000
135.795487,3108.864956,8216.285956,-1455.581446
135.795808,3997.112087,7105.977043,-995.924147
135.796129,5625.565159,7476.080014,229.828649
135.796449,5107.421000,9104.533087,919.314598
135.796770,5181.441594,9400.615463,1762.019645
135.797091,4885.359217,9326.594869,-383.047749
135.797412,3701.029710,8290.306550,-1762.019645
135.797732,3627.009116,7846.182985,-1455.581446
135.798053,5181.441594,8216.285956,-536.266849
135.798374,5181.441594,8142.265362,153.219100
135.798694,4811.338623,8734.430116,1685.410096
135.799015,4737.318029,8808.450710,919.314598
135.799336,3775.050304,8364.327145,-383.047749
135.799656,3182.885551,7402.059420,-383.047749
135.799977,3849.070898,7550.100608,-995.924147
135.800298,5107.421000,7624.121203,-919.314598
135.800618,6439.791695,8290.306550,919.314598
135.800939,6143.709319,8142.265362,1225.752797
135.801260,4885.359217,8068.244768,153.219100
135.801581,4367.215058,8364.327145,-1072.533697
135.801901,4145.153275,7328.038826,-1532.190996
135.802222,4811.338623,6143.709319,-1532.190996
135.802543,7179.997637,7179.997637,459.657299
135.802863,6661.853478,7994.224174,689.485948
135.803184,4663.297435,7624.121203,-689.485948
135.803505,5033.400406,7550.100608,-1072.533697
135.803825,4959.379811,7179.997637,-536.266849
135.804146,5033.400406,6365.771101,-229.828649
135.804467,6735.874072,7254.018232,0.000000
135.804787,6883.915261,9178.553681,76.609550
135.805108,5033.400406,9400.615463,76.609550
135.805429,5329.482782,9178.553681,76.609550
135.805750,5477.523971,8364.327145,-612.876398
135.806070,4441.235652,7179.997637,-1302.362347
135.806391,4737.318029,7105.977043,-995.924147
135.806712,4737.318029,7624.121203,-459.657299
135.807032,3923.091493,8438.347739,995.924147
135.807353,4515.256246,7846.182985,2068.457845
135.807674,4145.153275,7328.038826,612.876398
135.807994,3552.988522,7105.977043,-383.047749
135.808315,4441.235652,7846.182985,-995.924147
135.808636,5477.523971,9474.636058,-1225.752797
135.808956,6069.688724,10510.924376,-306.438199
135.809277,5847.626942,10584.944971,229.828649
135.809598,5551.544565,9622.677246,383.047749
135.809919,4737.318029,8956.491898,689.485948
135.810239,3701.029710,8660.409521,153.219100
135.810560,2516.700203,7624.121203,-919.314598
135.810881,4515.256246,7846.182985,-919.314598
135.811201,4589.276840,8734.430116,383.047749
135.811522,4663.297435,8290.306550,919.314598
135.811843,5107.421000,7031.956449,1225.752797
135.812163,4219.173869,6661.853478,-76.609550
135.812484,2812.782580,6735.874072,-1378.971896
135.812805,4219.173869,8216.285956,-383.047749
135.813125,5847.626942,9400.615463,76.609550
135.813446,6143.709319,10732.986159,459.657299
135.813767,6957.935855,10288.862594,536.266849
135.814088,5699.585753,9030.512492,-306.438199
135.814408,4219.173869,7994.224174,-2068.457845
135.814729,4219.173869,6957.935855,-1302.362347
135.815050,5033.400406,7105.977043,-536.266849
135.815370,5477.523971,7105.977043,459.657299
135.815691,5403.503377,7254.018232,1302.362347
135.816012,4959.379811,7846.182985,612.876398
135.816332,4219.173869,7846.182985,0.000000
135.816653,3701.029710,7254.018232,-842.705048
135.816974,4441.235652,7402.059420,-1608.800546
135.817294,5773.606348,8290.306550,76.609550
135.817615,5699.585753,9548.656652,1302.362347
135.817936,5181.441594,9696.697840,1225.752797
135.818257,3849.070898,9178.553681,229.828649
135.818577,3404.947333,8364.327145,-612.876398
135.818898,4145.153275,7994.224174,-919.314598
135.819219,5403.503377,7920.203579,0.000000
135.819539,5255.462188,7698.141797,-383.047749
135.819860,5477.523971,7031.956449,229.828649
135.820181,5255.462188,6957.935855,536.266849
135.820501,4071.132681,6883.915261,612.876398
135.820822,3627.009116,6883.915261,-306.438199
135.821143,4885.359217,7179.997637,-919.314598
135.821463,5699.585753,8438.347739,-766.095498
135.821784,5847.626942,9326.594869,459.657299
135.822105,6439.791695,9104.533087,306.438199
135.822426,5847.626942,8438.347739,-842.705048
135.822746,5107.421000,7550.100608,-1302.362347
135.823067,4885.359217,6957.935855,-919.314598
135.823388,5625.565159,6809.894666,-459.657299
135.823708,6217.729913,8068.244768,229.828649
135.824029,5107.421000,8512.368333,229.828649
135.824350,5107.421000,7772.162391,0.000000
135.824670,4737.318029,7328.038826,-383.047749
135.824991,5847.626942,6661.853478,-153.219100
135.825312,5107.421000,6809.894666,-1302.362347
135.825632,5107.421000,8142.265362,-1378.971896
135.825953,5107.421000,9918.759623,76.609550
135.826274,5329.482782,10732.986159,1532.190996
135.826595,5033.400406,9696.697840,1072.533697
135.826915,5403.503377,8290.306550,-229.828649
135.827236,4441.235652,7772.162391,-1762.019645
135.827557,3108.864956,7550.100608,-1685.410096
135.827877,4293.194464,7846.182985,0.000000
135.828198,5921.647536,8068.244768,1149.143247
135.828519,5699.585753,7994.224174,1302.362347
135.828839,4811.338623,8586.388927,306.438199
135.829160,3552.988522,7994.224174,-1455.581446
135.829481,2886.803174,7994.224174,-1838.629195
135.829801,4145.153275,9178.553681,0.000000
135.830122,5773.606348,9622.677246,229.828649
135.830443,6365.771101,9474.636058,995.924147
135.830764,4959.379811,9178.553681,0.000000
135.831084,3627.009116,8882.471304,-1532.190996
135.831405,2886.803174,8216.285956,-1608.800546
135.831726,3256.906145,7550.100608,0.000000
135.832046,4663.297435,7105.977043,1072.533697
135.832367,5995.668130,6957.935855,1838.629195
135.832688,5995.668130,7254.018232,689.485948
135.833008,5329.482782,7105.977043,-1072.533697
135.833329,4737.318029,7179.997637,-2374.896044
135.833650,5477.523971,7624.121203,-2451.505594
135.833970,6439.791695,7476.080014,-612.876398
135.834291,8512.368333,8512.368333,1149.143247
135.834612,7105.977043,8882.471304,1455.581446
135.834933,5403.503377,8808.450710,0.000000
135.835253,4293.194464,9104.533087,-1685.410096
135.835574,4219.173869,7698.141797,-1838.629195
135.835895,5255.462188,6735.874072,-536.266849
135.836215,7105.977043,6735.874072,1532.190996
135.836536,5551.544565,6735.874072,1685.410096
135.836857,3775.050304,7624.121203,689.485948
135.837177,3478.967927,8586.388927,306.438199
135.837498,4071.132681,7254.018232,-229.828649
135.837819,5403.503377,6291.750507,76.609550
135.838140,6439.791695,7031.956449,919.314598
135.838460,6143.709319,9030.512492,229.828649
135.838781,4663.297435,10510.924376,536.266849
135.839102,4367.215058,9622.677246,76.609550
135.839422,5625.565159,8438.347739,-842.705048
135.839743,4811.338623,6883.915261,-1225.752797
135.840064,4589.276840,6587.832884,-612.876398
135.840384,5181.441594,7624.121203,459.657299
135.840705,4441.235652,8586.388927,766.095498
135.841026,5329.482782,8512.368333,1225.752797
135.841346,5477.523971,7550.100608,842.705048
135.841667,4663.297435,6291.750507,-766.095498
135.841988,4737.318029,6957.935855,-306.438199
135.842309,3997.112087,7402.059420,0.000000
135.842629,4441.235652,7994.224174,153.219100
135.842950,5847.626942,8364.327145,995.924147
135.843271,5699.585753,8438.347739,383.047749
135.843591,5033.400406,8660.409521,-612.876398
135.843912,4589.276840,8364.327145,-1838.629195
135.844233,4367.215058,7994.224174,-2451.505594
135.844553,4959.379811,7328.038826,-1072.533697
135.844874,5921.647536,7328.038826,1149.143247
135.845195,6587.832884,8216.285956,2068.457845
135.845515,5033.400406,8068.244768,919.314598
135.845836,3849.070898,7698.141797,-1378.971896
135.846157,4367.215058,6957.935855,-2604.724693
135.846478,5403.503377,7698.141797,-1225.752797
135.846798,6735.874072,8586.388927,1302.362347
135.847119,6883.915261,8660.409521,1302.362347
135.847440,6143.709319,7920.203579,919.314598
135.847760,4737.318029,8512.368333,-383.047749
135.848081,4071.132681,7476.080014,-1608.800546
135.848402,4293.194464,7254.018232,-1915.238745
135.848722,6365.771101,7328.038826,-689.485948
135.849043,7031.956449,8142.265362,766.095498
135.849364,6587.832884,8586.388927,1455.581446
135.849684,5477.523971,8660.409521,0.000000
135.850005,3775.050304,8216.285956,-1225.752797
135.850326,3627.009116,7476.080014,-1685.410096
135.850647,5181.441594,7772.162391,-1225.752797
135.850967,6439.791695,7920.203579,76.609550
135.851288,6365.771101,8512.368333,919.314598
135.851609,5181.441594,8956.491898,536.266849
135.851929,4219.173869,9030.512492,-1149.143247
135.852250,3478.967927,8142.265362,-1762.019645
135.852571,4811.338623,7328.038826,-1455.581446
135.852891,6661.853478,6957.935855,-229.828649
135.853212,6365.771101,7328.038826,153.219100
135.853533,4959.379811,8068.244768,919.314598
135.853853,5551.544565,8882.471304,612.876398
135.854174,4589.276840,8512.368333,-383.047749
135.854495,4441.235652,7328.038826,-1532.190996
135.854816,6291.750507,7254.018232,-1685.410096
135.855136,6069.688724,8290.306550,-995.924147
135.855457,5107.421000,9622.677246,229.828649
135.855778,5033.400406,9326.594869,1225.752797
135.856098,4515.256246,8216.285956,-76.609550
135.856419,3701.029710,7402.059420,-766.095498
135.856740,3478.967927,7476.080014,-919.314598
135.857060,3478.967927,7920.203579,-1225.752797
135.857381,4071.132681,9326.594869,76.609550
135.857702,5107.421000,9548.656652,2298.286494
135.858022,5847.626942,9548.656652,1915.238745
135.858343,4737.318029,8956.491898,766.095498
135.858664,2738.761985,8142.265362,-842.705048
135.858985,3701.029710,7994.224174,-1149.143247
135.859305,4219.173869,8364.327145,153.219100
135.859626,5107.421000,8364.327145,1532.190996
135.859947,5921.647536,7772.162391,1225.752797
135.860267,5403.503377,8142.265362,306.438199
135.860588,3997.112087,8216.285956,-919.314598
135.860909,3627.009116,7031.956449,-1149.143247
135.861229,5477.523971,6735.874072,-995.924147
135.861550,6587.832884,7550.100608,306.438199
135.861871,6883.915261,7772.162391,1991.848295
135.862191,7105.977043,7624.121203,1915.238745
135.862512,6143.709319,7550.100608,919.314598
135.862833,3997.112087,6291.750507,-1762.019645
135.863154,4959.379811,5921.647536,-2221.676944
135.863474,6883.915261,6661.853478,-1072.533697
135.863795,6957.935855,7402.059420,689.485948
135.864116,6883.915261,7402.059420,919.314598
135.864436,6365.771101,7624.121203,-383.047749
135.864757,3997.112087,7105.977043,-1915.238745
135.865078,3330.926739,6661.853478,-1915.238745
135.865398,5107.421000,7105.977043,-1302.362347
135.865719,6217.729913,8438.347739,-383.047749
135.866040,5403.503377,9104.533087,995.924147
135.866360,5033.400406,9030.512492,919.314598
135.866681,3849.070898,9104.533087,76.609550
135.867002,2146.597232,8068.244768,-612.876398
135.867323,2664.741391,7254.018232,-766.095498
135.867643,4663.297435,7179.997637,0.000000
135.867964,4885.359217,8364.327145,919.314598
135.868285,4811.338623,9548.656652,995.924147
135.868605,4737.318029,9622.677246,-153.219100
135.868926,4589.276840,9030.512492,-1455.581446
135.869247,4145.153275,8290.306550,-1378.971896
135.869567,4811.338623,8216.285956,-995.924147
135.869888,5625.565159,8734.430116,-229.828649
135.870209,5181.441594,9696.697840,229.828649
135.870529,5551.544565,9918.759623,1072.533697
135.870850,5551.544565,9918.759623,0.000000
135.871171,4885.359217,8808.450710,-995.924147
135.871492,4515.256246,7698.141797,-1838.629195
135.871812,4959.379811,7550.100608,-766.095498
135.872133,5699.585753,7994.224174,306.438199
135.872454,5551.544565,8734.430116,842.705048
135.872774,5181.441594,8586.388927,76.609550
135.873095,5181.441594,7624.121203,-459.657299
135.873416,4145.153275,7105.977043,-1762.019645
135.873736,5181.441594,7254.018232,-1302.362347
135.874057,5551.544565,8216.285956,-306.438199
135.874378,5625.565159,9104.533087,-383.047749
135.874698,6143.709319,9178.553681,0.000000
135.875019,5477.523971,8438.347739,76.609550
135.875340,4663.297435,7550.100608,-306.438199
135.875661,3701.029710,6365.771101,-919.314598
135.875981,3997.112087,7624.121203,0.000000
135.876302,5329.482782,8808.450710,536.266849
135.876623,5477.523971,9252.574275,842.705048
135.876943,5625.565159,8660.409521,306.438199
135.877264,5995.668130,7476.080014,-76.609550
135.877585,3849.070898,6143.709319,-919.314598
135.877905,3701.029710,5551.544565,-1072.533697
135.878226,4811.338623,7476.080014,-229.828649
135.878547,5033.400406,8882.471304,919.314598
135.878867,4959.379811,9030.512492,1225.752797
135.879188,6069.688724,8290.306550,76.609550
135.879509,4737.318029,8142.265362,-1149.143247
135.879830,4071.132681,7550.100608,-1532.190996
135.880150,4959.379811,7772.162391,-536.266849
135.880471,4885.359217,7994.224174,0.000000
135.880792,4663.297435,7846.182985,1608.800546
135.881112,5255.462188,8290.306550,2145.067394
135.881433,4737.318029,8660.409521,0.000000
135.881754,3552.988522,7846.182985,-1915.238745
135.882074,4219.173869,7698.141797,-1762.019645
135.882395,6143.709319,8068.244768,-1072.533697
135.882716,5699.585753,8438.347739,995.924147
135.883036,4885.359217,8068.244768,1838.629195
135.883357,5403.503377,8808.450710,1225.752797
135.883678,4367.215058,8734.430116,0.000000
135.883999,3478.967927,7994.224174,-689.485948
135.884319,4811.338623,7254.018232,-766.095498
135.884640,6661.853478,8290.306550,-153.219100
135.884961,5625.565159,8956.491898,1225.752797
135.885281,5403.503377,7772.162391,766.095498
135.885602,5033.400406,7254.018232,-842.705048
135.885923,4145.153275,7179.997637,-1608.800546
135.886243,3478.967927,6809.894666,-1378.971896
135.886564,6217.729913,7402.059420,0.000000
135.886885,6809.894666,9104.533087,995.924147
135.887205,5329.482782,9474.636058,1149.143247
135.887526,4589.276840,8734.430116,-306.438199
135.887847,4145.153275,7624.121203,-1991.848295
135.888168,3701.029710,7105.977043,-1302.362347
135.888488,4737.318029,7624.121203,-229.828649
135.888809,5699.585753,8586.388927,-229.828649
135.889130,4589.276840,9104.533087,0.000000
135.889450,4145.153275,9548.656652,919.314598
135.889771,4367.215058,9104.533087,383.047749
135.890092,3478.967927,7920.203579,-842.705048
135.890412,3034.844362,7031.956449,-2298.286494
135.890733,4885.359217,7772.162391,-1532.190996
135.891054,5773.606348,9326.594869,153.219100
135.891374,4441.235652,9992.780217,2451.505594
135.891695,4293.194464,8734.430116,2068.457845
135.892016,4219.173869,7920.203579,-383.047749
135.892337,3701.029710,7624.121203,-919.314598
135.892657,4441.235652,7772.162391,-689.485948
135.892978,6439.791695,8882.471304,-689.485948
135.893299,6513.812290,9252.574275,153.219100
135.893619,6291.750507,8660.409521,1225.752797
135.893940,5625.565159,7772.162391,459.657299
135.894261,4441.235652,7179.997637,-383.047749
135.894581,3701.029710,7105.977043,-1302.362347
135.894902,5551.544565,7328.038826,-1608.800546
135.895223,6661.853478,8142.265362,-689.485948
135.895544,7031.956449,8882.471304,766.095498
135.895864,6439.791695,9178.553681,919.314598
135.896185,5403.503377,7920.203579,-383.047749
135.896506,3775.050304,6809.894666,-1302.362347
135.896826,3997.112087,6883.915261,-1608.800546
135.897147,5921.647536,7846.182985,-459.657299
135.897468,6735.874072,8734.430116,766.095498
135.897788,6143.709319,8290.306550,766.095498
135.898109,5625.565159,7698.141797,459.657299
135.898430,3701.029710,6661.853478,-842.705048
135.898750,3627.009116,5847.626942,-1762.019645
135.899071,5107.421000,7476.080014,-1532.190996
135.899392,5625.565159,9030.512492,-766.095498
135.899713,5699.585753,9326.594869,1072.533697
135.900033,5477.523971,8364.327145,1915.238745
135.900354,4737.318029,7698.141797,995.924147
135.900675,3182.885551,7920.203579,-229.828649
135.900995,2738.761985,7550.100608,-1915.238745
135.901316,4441.235652,8216.285956,-1991.848295
135.901637,6661.853478,9770.718434,612.876398
135.901957,6439.791695,9326.594869,2145.067394
135.902278,5181.441594,7550.100608,1072.533697
135.902599,3627.009116,7105.977043,-383.047749
135.902920,2664.741391,7772.162391,-1225.752797
135.903240,3182.885551,7105.977043,-1455.581446
135.903561,5329.482782,7476.080014,-612.876398
135.903882,7328.038826,9474.636058,306.438199
135.904202,5329.482782,9844.739029,1149.143247
135.904523,4441.235652,9548.656652,0.000000
135.904844,2960.823768,8438.347739,-1378.971896
135.905164,2664.741391,7105.977043,-1225.752797
135.905485,4441.235652,7550.100608,-153.219100
135.905806,5773.606348,9326.594869,689.485948
135.906127,5033.400406,9844.739029,306.438199
135.906447,4885.359217,9104.533087,306.438199
135.906768,4737.318029,8142.265362,-383.047749
135.907089,3701.029710,6809.894666,-995.924147
135.907409,3404.947333,6587.832884,-459.657299
135.907730,5107.421000,7402.059420,76.609550
135.908051,5995.668130,9104.533087,689.485948
135.908371,5329.482782,9252.574275,1072.533697
135.908692,5033.400406,8364.327145,153.219100
135.909013,4811.338623,7476.080014,-1149.143247
135.909333,4367.215058,7105.977043,-1685.410096
135.909654,5403.503377,8290.306550,-689.485948
135.909975,6069.688724,9030.512492,0.000000
135.910296,5921.647536,9252.574275,766.095498
135.910616,5699.585753,8660.409521,842.705048
135.910937,4737.318029,7846.182985,76.609550
135.911258,4219.173869,7179.997637,-612.876398
135.911578,4589.276840,6957.935855,-1302.362347
135.911899,4811.338623,7254.018232,-995.924147
135.912220,5403.503377,7994.224174,689.485948
135.912540,5699.585753,8734.430116,1838.629195
135.912861,5033.400406,8512.368333,766.095498
135.913182,5477.523971,7624.121203,-919.314598
135.913503,4441.235652,6735.874072,-1991.848295
135.913823,4589.276840,7031.956449,-2068.457845
135.914144,6291.750507,8882.471304,536.266849
135.914465,6513.812290,9770.718434,1455.581446
135.914785,6069.688724,8882.471304,612.876398
135.915106,6291.750507,7105.977043,-766.095498
135.915427,4663.297435,6735.874072,-1838.629195
135.915747,4145.153275,6217.729913,-1378.971896
135.916068,5181.441594,6883.915261,229.828649
135.916389,6439.791695,7624.121203,1455.581446
135.916710,6661.853478,7179.997637,1225.752797
135.917030,7031.956449,7550.100608,1072.533697
135.917351,5255.462188,7254.018232,-1378.971896
135.917672,3997.112087,7105.977043,-2681.334243
135.917992,5181.441594,7846.182985,-1532.190996
135.918313,7254.018232,8660.409521,0.000000
135.918634,7031.956449,8512.368333,1302.362347
135.918954,5773.606348,8734.430116,1072.533697
135.919275,3997.112087,8956.491898,-689.485948
135.919596,2368.659014,8586.388927,-1225.752797
135.919916,2886.803174,7550.100608,-1838.629195
135.920237,5107.421000,7179.997637,-842.705048
135.920558,5773.606348,7624.121203,919.314598
135.920879,5033.400406,9548.656652,1991.848295
135.921199,3478.967927,9400.615463,919.314598
135.921520,3182.885551,8734.430116,-383.047749
135.921841,3701.029710,7624.121203,-1072.533697
135.922161,4737.318029,7550.100608,-766.095498
135.922482,5921.647536,9326.594869,536.266849
135.922803,5403.503377,10288.862594,1455.581446
135.923123,4589.276840,10214.842000,76.609550
135.923444,5107.421000,9252.574275,-766.095498
135.923765,4071.132681,7994.224174,-1149.143247
135.924086,4293.194464,7031.956449,-1149.143247
135.924406,5329.482782,7476.080014,76.609550
135.924727,5625.565159,8290.306550,995.924147
135.925048,5181.441594,8956.491898,1455.581446
135.925368,4811.338623,8364.327145,383.047749
135.925689,4515.256246,7772.162391,-1225.752797
135.926010,4367.215058,7624.121203,-919.314598
135.926330,4071.132681,8216.285956,-689.485948
135.926651,5403.503377,8438.347739,-76.609550
135.926972,5107.421000,8956.491898,612.876398
135.927293,4293.194464,8216.285956,842.705048
135.927613,4515.256246,8216.285956,612.876398
135.927934,3775.050304,7994.224174,-383.047749
135.928255,3478.967927,6883.915261,-2145.067394
135.928575,4811.338623,7179.997637,-1532.190996
135.928896,6883.915261,7920.203579,0.000000
135.929217,5847.626942,7402.059420,1072.533697
135.929537,5699.585753,6291.750507,1149.143247
135.929858,5625.565159,7105.977043,153.219100
135.930179,4219.173869,7698.141797,-1762.019645
135.930499,4071.132681,7328.038826,-1838.629195
135.930820,7328.038826,7624.121203,-1072.533697
135.931141,7402.059420,8512.368333,76.609550
135.931462,6143.709319,8660.409521,995.924147
135.931782,5773.606348,8364.327145,459.657299
135.932103,5033.400406,7179.997637,-995.924147
135.932424,4293.194464,6957.935855,-1302.362347
135.932744,5477.523971,6957.935855,0.000000
135.933065,5699.585753,7179.997637,-76.609550
135.933386,5477.523971,8438.347739,766.095498
135.933706,5255.462188,8734.430116,1378.971896
135.934027,5329.482782,8216.285956,-229.828649
135.934348,4959.379811,7772.162391,-612.876398
135.934669,3701.029710,6883.915261,-1225.752797
135.934989,4885.359217,7624.121203,-842.705048
135.935310,5847.626942,9178.553681,459.657299
135.935631,5403.503377,9696.697840,1225.752797
135.935951,5551.544565,9474.636058,459.657299
135.936272,5255.462188,8438.347739,-842.705048
135.936593,3775.050304,7772.162391,-2221.676944
135.936913,4219.173869,7031.956449,-995.924147
135.937234,5477.523971,7698.141797,459.657299
135.937555,5699.585753,8216.285956,919.314598
135.937876,5551.544565,7698.141797,1225.752797
135.938196,5181.441594,7624.121203,536.266849
135.938517,4145.153275,7550.100608,-536.266849
135.938838,3775.050304,7476.080014,-1685.410096
135.939158,5033.400406,8216.285956,-1455.581446
135.939479,6069.688724,8438.347739,-919.314598
135.939800,6809.894666,8882.471304,76.609550
135.940120,6291.750507,9104.533087,229.828649
135.940441,4589.276840,8734.430116,-919.314598
135.940762,3256.906145,7402.059420,-1762.019645
135.941082,3552.988522,6957.935855,-2145.067394
135.941403,5551.544565,8068.244768,-306.438199
135.941724,5995.668130,8882.471304,1072.533697
135.942045,5477.523971,8808.450710,766.095498
135.942365,5477.523971,7772.162391,-919.314598
135.942686,4071.132681,7402.059420,-1149.143247
135.943007,3034.844362,7105.977043,-766.095498
135.943327,4367.215058,7550.100608,153.219100
135.943648,5255.462188,8956.491898,459.657299
135.943969,5477.523971,9918.759623,459.657299
135.944289,5699.585753,9548.656652,383.047749
135.944610,5033.400406,9326.594869,-612.876398
135.944931,4367.215058,8438.347739,-1532.190996
135.945252,4293.194464,7105.977043,-1149.143247
135.945572,5847.626942,7254.018232,383.047749
135.945893,6069.688724,8068.244768,1838.629195
135.946214,4811.338623,7772.162391,2145.067394
135.946534,5033.400406,8142.265362,459.657299
135.946855,4515.256246,7698.141797,-1149.143247
135.947176,4589.276840,7179.997637,-766.095498
135.947496,6069.688724,6809.894666,-766.095498
135.947817,6513.812290,7402.059420,-766.095498
135.948138,5477.523971,8808.450710,76.609550
135.948459,5403.503377,9252.574275,689.485948
135.948779,5181.441594,8956.491898,0.000000
135.949100,4737.318029,7994.224174,-766.095498
135.949421,4959.379811,7402.059420,-1225.752797
135.949741,5255.462188,7402.059420,-919.314598
135.950062,4959.379811,7846.182985,229.828649
135.950383,5329.482782,7846.182985,1455.581446
135.950703,5551.544565,7772.162391,842.705048
135.951024,4145.153275,7624.121203,-689.485948
135.951345,3182.885551,7476.080014,-1532.190996
135.951665,4219.173869,8142.265362,-1378.971896
135.951986,4811.338623,8882.471304,306.438199
135.952307,4737.318029,8882.471304,1838.629195
135.952628,5403.503377,8290.306550,1302.362347
135.952948,5033.400406,8438.347739,153.219100
135.953269,4293.194464,7624.121203,-306.438199
135.953590,3849.070898,6883.915261,-919.314598
135.953910,4737.318029,6365.771101,-689.485948
135.954231,6217.729913,7994.224174,919.314598
135.954552,5403.503377,8586.388927,1302.362347
135.954872,5551.544565,7920.203579,0.000000
135.955193,6439.791695,7402.059420,-536.266849
135.955514,4071.132681,6587.832884,-1378.971896
135.955835,4885.359217,6661.853478,-1532.190996
135.956155,6587.832884,8142.265362,-459.657299
135.956476,5995.668130,9474.636058,0.000000
135.956797,6365.771101,9622.677246,842.705048
135.957117,6291.750507,9622.677246,-153.219100
135.957438,3997.112087,8808.450710,-1991.848295
135.957759,2738.761985,7624.121203,-1685.410096
135.958079,4145.153275,7105.977043,-612.876398
135.958400,5181.441594,7254.018232,919.314598
135.958721,4959.379811,8512.368333,1991.848295
135.959042,4367.215058,8216.285956,919.314598
135.959362,3627.009116,8586.388927,-995.924147
135.959683,3034.844362,8290.306550,-995.924147
135.960004,3627.009116,7994.224174,-766.095498
135.960324,5995.668130,8290.306550,383.047749
135.960645,6661.853478,8438.347739,1072.533697
135.960966,5329.482782,8586.388927,842.705048
135.961286,5551.544565,8734.430116,-842.705048
135.961607,5181.441594,8438.347739,-1838.629195
135.961928,4219.173869,7772.162391,-1608.800546
135.962248,6069.688724,7254.018232,-842.705048
135.962569,7476.080014,7328.038826,0.000000
135.962890,5847.626942,7402.059420,919.314598
135.963211,5255.462188,7476.080014,842.705048
135.963531,5107.421000,7105.977043,-306.438199
135.963852,4589.276840,6957.935855,-842.705048
135.964173,5033.400406,7179.997637,-766.095498
135.964493,6365.771101,8142.265362,-536.266849
135.964814,6217.729913,8734.430116,0.000000
135.965135,5033.400406,9326.594869,306.438199
135.965455,4663.297435,8586.388927,0.000000
135.965776,4219.173869,8512.368333,-995.924147
135.966097,3478.967927,7698.141797,-1149.143247
135.966418,4367.215058,7624.121203,-1225.752797
135.966738,4737.318029,8882.471304,-229.828649
135.967059,3997.112087,9696.697840,1225.752797
135.967380,3552.988522,9474.636058,919.314598
135.967700,4219.173869,7772.162391,766.095498
135.968021,3182.885551,6957.935855,0.000000
135.968342,2886.803174,6439.791695,0.000000
135.968662,4219.173869,7920.203579,229.828649
135.968983,5403.503377,9104.533087,0.000000
135.969304,5477.523971,9548.656652,536.266849
135.969625,5625.565159,9104.533087,229.828649
135.969945,5921.647536,8512.368333,0.000000
135.970266,4293.194464,7402.059420,-1378.971896
135.970587,4441.235652,7254.018232,-1378.971896
135.970907,5995.668130,7550.100608,-306.438199
135.971228,6217.729913,8290.306550,0.000000
135.971549,6587.832884,7698.141797,995.924147
135.971869,6291.750507,7179.997637,229.828649
135.972190,4811.338623,6883.915261,-1072.533697
135.972511,3997.112087,6957.935855,-1915.238745
135.972831,5107.421000,7254.018232,-1302.362347
135.973152,6291.750507,7846.182985,-153.219100
135.973473,5995.668130,8512.368333,1225.752797
135.973794,5847.626942,8734.430116,919.314598
135.974114,4737.318029,9178.553681,-919.314598
135.974435,3478.967927,8586.388927,-2068.457845
135.974756,4441.235652,7920.203579,-1762.019645
135.975076,5625.565159,8142.265362,0.000000
135.975397,5181.441594,8512.368333,1302.362347
135.975718,4663.297435,9178.553681,2145.067394
135.976038,3997.112087,9400.615463,1378.971896
135.976359,2442.679609,8512.368333,0.000000
135.976680,2516.700203,7105.977043,-1072.533697
135.977001,4293.194464,6957.935855,0.000000
135.977321,5847.626942,8438.347739,1455.581446
135.977642,5181.441594,9474.636058,1838.629195
135.977963,4885.359217,8808.450710,1149.143247
135.978283,3997.112087,9104.533087,-1072.533697
135.978604,3404.947333,8882.471304,-1685.410096
135.978925,3923.091493,7994.224174,-1302.362347
135.979245,6365.771101,7698.141797,-306.438199
135.979566,6957.935855,8068.244768,153.219100
135.979887,6217.729913,8290.306550,459.657299
135.980208,5403.503377,7846.182985,0.000000
135.980528,4885.359217,7698.141797,-842.705048
135.980849,4737.318029,7179.997637,-1072.533697
135.981170,6365.771101,7031.956449,-1072.533697
135.981490,7031.956449,7105.977043,-612.876398
135.981811,5773.606348,7846.182985,76.609550
135.982132,4959.379811,8512.368333,536.266849
135.982452,4959.379811,9030.512492,-383.047749
135.982773,4885.359217,8364.327145,-1991.848295
135.983094,4293.194464,7105.977043,-1838.629195
135.983414,5403.503377,7328.038826,-1225.752797
135.983735,5255.462188,8438.347739,612.876398
135.984056,3404.947333,8882.471304,1838.629195
135.984377,4367.215058,7994.224174,1455.581446
135.984697,4885.359217,7772.162391,-536.266849
135.985018,3552.988522,7254.018232,-1608.800546
135.985339,3775.050304,7105.977043,-1378.971896
135.985659,5625.565159,8808.450710,0.000000
135.985980,5625.565159,9400.615463,1455.581446
135.986301,5329.482782,9474.636058,2298.286494
135.986621,5625.565159,8734.430116,689.485948
135.986942,4663.297435,7698.141797,-2068.457845
135.987263,3478.967927,7550.100608,-1302.362347
135.987584,4589.276840,7402.059420,-766.095498
135.987904,5699.585753,7846.182985,612.876398
135.988225,6143.709319,8364.327145,1302.362347
135.988546,5921.647536,8216.285956,842.705048
135.988866,5551.544565,7550.100608,-766.095498
135.989187,4071.132681,7772.162391,-1378.971896
135.989508,3849.070898,7772.162391,-1378.971896
135.989828,5255.462188,8068.244768,-1072.533697
135.990149,7105.977043,9326.594869,689.485948
135.990470,7031.956449,9770.718434,995.924147
135.990791,6365.771101,9474.636058,229.828649
135.991111,4293.194464,8216.285956,-2298.286494
135.991432,3256.906145,6957.935855,-3140.991542
135.991753,3997.112087,6587.832884,-1378.971896
135.992073,5625.565159,7105.977043,1378.971896
135.992394,6143.709319,7994.224174,2451.505594
135.992715,4885.359217,8512.368333,1991.848295
135.993035,3849.070898,8660.409521,-766.095498
135.993356,3478.967927,7772.162391,-2221.676944
135.993677,4219.173869,7254.018232,-1302.362347
135.993997,6217.729913,7476.080014,153.219100
135.994318,6735.874072,8216.285956,1455.581446
135.994639,5625.565159,8808.450710,1532.190996
135.994960,5329.482782,10066.800811,383.047749
135.995280,4145.153275,8956.491898,-1532.190996
135.995601,3997.112087,7550.100608,-2374.896044
135.995922,5773.606348,7105.977043,-995.924147
135.996243,5551.544565,7772.162391,383.047749
135.996564,5477.523971,8216.285956,1378.971896
135.996884,5181.441594,8068.244768,1532.190996
135.997205,4737.318029,8068.244768,306.438199
135.997526,3775.050304,7179.997637,-919.314598
135.997847,4071.132681,6439.791695,-536.266849
135.998168,6069.688724,7031.956449,0.000000
135.998489,6439.791695,8734.430116,919.314598
135.998809,5995.668130,8660.409521,1149.143247
135.999130,6513.812290,8438.347739,-536.266849
135.999451,5403.503377,7846.182985,-1915.238745
135.999772,4219.173869,7402.059420,-2221.676944
136.000093,5033.400406,7105.977043,-1455.581446
136.000413,5773.606348,8290.306550,0.000000
136.000734,5181.441594,9030.512492,1149.143247
136.001055,5255.462188,8586.388927,1072.533697
136.001376,4737.318029,6883.915261,229.828649
136.001697,4441.235652,6513.812290,-459.657299
136.002017,4441.235652,5921.647536,-383.047749
136.002338,4885.359217,6439.791695,0.000000
136.002659,5625.565159,8660.409521,1072.533697
136.002980,5773.606348,9696.697840,1302.362347
136.003301,5551.544565,9622.677246,153.219100
136.003622,6143.709319,7772.162391,-842.705048
136.003942,3923.091493,6587.832884,-2145.067394
136.004263,3997.112087,5921.647536,-1532.190996
136.004584,5477.523971,7254.018232,0.000000
136.004905,5403.503377,9030.512492,689.485948
136.005226,5773.606348,9326.594869,919.314598
136.005546,5403.503377,9326.594869,0.000000
136.005867,4219.173869,8808.450710,-2221.676944
136.006188,3478.967927,7846.182985,-1378.971896
136.006509,4293.194464,8364.327145,-536.266849
136.006830,5625.565159,8808.450710,1072.533697
136.007150,5181.441594,8586.388927,1685.410096
136.007471,4737.318029,8734.430116,919.314598
136.007792,4145.153275,9474.636058,-766.095498
136.008113,2516.700203,8882.471304,-1762.019645
136.008434,3034.844362,7920.203579,-1455.581446
136.008755,5107.421000,7994.224174,0.000000
136.009075,5107.421000,8290.306550,2068.457845
136.009396,4515.256246,8956.491898,1455.581446
136.009717,3701.029710,7994.224174,459.657299
136.010038,3701.029710,8216.285956,-1302.362347
136.010359,3849.070898,8216.285956,-1685.410096
136.010679,5625.565159,8216.285956,-766.095498
136.011000,6957.935855,8882.471304,459.657299
136.011321,6661.853478,8438.347739,1225.752797
136.011642,5181.441594,8142.265362,842.705048
136.011963,5773.606348,8290.306550,-766.095498
136.012283,3923.091493,6587.832884,-2298.286494
136.012604,5181.441594,6365.771101,-1608.800546
136.012925,7698.141797,6957.935855,0.000000
136.013246,6365.771101,7772.162391,536.266849
136.013567,5847.626942,7994.224174,536.266849
136.013888,5477.523971,7476.080014,0.000000
136.014208,4663.297435,6883.915261,-995.924147
136.014529,4811.338623,6587.832884,-1149.143247
136.014850,5625.565159,7402.059420,-689.485948
136.015171,5847.626942,8586.388927,-612.876398
136.015492,5699.585753,9326.594869,306.438199
136.015812,5625.565159,9474.636058,842.705048
136.016133,4959.379811,9030.512492,0.000000
136.016454,4145.153275,7402.059420,-842.705048
136.016775,3701.029710,6735.874072,-1225.752797
136.017096,4293.194464,7105.977043,-536.266849
136.017416,4737.318029,7698.141797,1072.533697
136.017737,5255.462188,8142.265362,2068.457845
136.018058,5773.606348,7920.203579,1302.362347
136.018379,4589.276840,7698.141797,-383.047749
136.018700,4441.235652,7624.121203,-766.095498
136.019021,4663.297435,7550.100608,-766.095498
136.019341,5847.626942,8882.471304,229.828649
136.019662,6513.812290,9252.574275,1608.800546
136.019983,6809.894666,9178.553681,842.705048
136.020304,5847.626942,8512.368333,-536.266849
136.020625,4145.153275,7550.100608,-1915.238745
136.020945,4441.235652,6883.915261,-2068.457845
136.021266,6217.729913,7550.100608,-842.705048
136.021587,5921.647536,8216.285956,919.314598
136.021908,6143.709319,7772.162391,1072.533697
136.022229,6143.709319,7031.956449,306.438199
136.022549,4293.194464,6365.771101,-536.266849
136.022870,3478.967927,6587.832884,-1225.752797
136.023191,4737.318029,7550.100608,-1149.143247
136.023512,6217.729913,9030.512492,-995.924147
136.023833,6365.771101,9918.759623,459.657299
136.024154,6143.709319,9918.759623,689.485948
136.024474,5255.462188,8882.471304,0.000000
136.024795,3701.029710,8438.347739,-1302.362347
136.025116,2960.823768,7698.141797,-2068.457845
136.025437,4145.153275,7698.141797,-1378.971896
136.025758,4959.379811,8290.306550,1072.533697
136.026078,4811.338623,8290.306550,1915.238745
136.026399,4663.297435,8364.327145,1608.800546
136.026720,4515.256246,7772.162391,0.000000
136.027041,3478.967927,6883.915261,-1149.143247
136.027362,3701.029710,6809.894666,-1225.752797
136.027682,5477.523971,9178.553681,229.828649
136.028003,4959.379811,10362.883188,995.924147
136.028324,4663.297435,9770.718434,1149.143247
136.028645,6439.791695,9474.636058,459.657299
136.028966,4737.318029,8364.327145,-689.485948
136.029287,3701.029710,7476.080014,-1915.238745
136.029607,4367.215058,7105.977043,-842.705048
136.029928,5033.400406,7402.059420,0.000000
136.030249,5477.523971,7846.182985,1455.581446
136.030570,6217.729913,8142.265362,1532.190996
136.030891,5255.462188,7698.141797,-383.047749
136.031211,3478.967927,6957.935855,-2068.457845
136.031532,3849.070898,7328.038826,-919.314598
136.031853,6365.771101,7920.203579,-612.876398
136.032174,6587.832884,8364.327145,306.438199
136.032495,5921.647536,8734.430116,153.219100
136.032815,5847.626942,9030.512492,-1072.533697
136.033136,3775.050304,8438.347739,-1302.362347
136.033457,3182.885551,7105.977043,-1225.752797
136.033778,5033.400406,7105.977043,-459.657299
136.034099,6069.688724,7846.182985,229.828649
136.034420,5921.647536,8734.430116,1302.362347
136.034740,5551.544565,7698.141797,919.314598
136.035061,5033.400406,6291.750507,-689.485948
136.035382,4441.235652,6809.894666,-612.876398
136.035703,3923.091493,7031.956449,-766.095498
136.036024,5477.523971,8290.306550,-842.705048
136.036344,6143.709319,9326.594869,536.266849
136.036665,5921.647536,10066.800811,1072.533697
136.036986,5255.462188,9844.739029,766.095498
136.037307,2960.823768,7920.203579,-1302.362347
136.037628,3330.926739,7254.018232,-1685.410096
136.037948,5329.482782,7402.059420,-689.485948
136.038269,5329.482782,8142.265362,459.657299
136.038590,5625.565159,8808.450710,459.657299
136.038911,5255.462188,8734.430116,306.438199
136.039232,4367.215058,7772.162391,383.047749
136.039553,3997.112087,7402.059420,383.047749
136.039873,4737.318029,6957.935855,-536.266849
136.040194,5551.544565,7476.080014,-612.876398
136.040515,5181.441594,8512.368333,0.000000
136.040836,5255.462188,9770.718434,306.438199
136.041157,4811.338623,10584.944971,0.000000
136.041477,4293.194464,9918.759623,-919.314598
136.041798,4071.132681,8290.306550,-1225.752797
136.042119,4293.194464,6957.935855,-383.047749
136.042440,5107.421000,7550.100608,383.047749
136.042761,4811.338623,8068.244768,919.314598
136.043081,4959.379811,7550.100608,842.705048
136.043402,6513.812290,7328.038826,0.000000
136.043723,5699.585753,7179.997637,-842.705048
136.044044,5181.441594,7031.956449,-1225.752797
136.044365,6069.688724,6957.935855,-1149.143247
136.044686,6661.853478,8216.285956,-306.438199
136.045006,6069.688724,9252.574275,689.485948
136.045327,5921.647536,8882.471304,153.219100
136.045648,4811.338623,9030.512492,-1915.238745
136.045969,4219.173869,8734.430116,-2145.067394
136.046290,3849.070898,8142.265362,-995.924147
136.046610,4589.276840,8956.491898,153.219100
136.046931,4959.379811,8808.450710,1225.752797
136.047252,4589.276840,7698.141797,1302.362347
136.047573,3552.988522,7328.038826,689.485948
136.047894,3552.988522,7550.100608,0.000000
136.048214,3256.906145,7624.121203,-76.609550
136.048535,4589.276840,7698.141797,-842.705048
136.048856,6069.688724,8808.450710,-383.047749
136.049177,5699.585753,9474.636058,766.095498
136.049498,4663.297435,9400.615463,1838.629195
136.049819,4589.276840,9178.553681,689.485948
136.050139,3997.112087,7698.141797,-1072.533697
136.050460,4441.235652,6883.915261,-1378.971896
136.050781,6587.832884,7994.224174,-306.438199
136.051102,6957.935855,8660.409521,1072.533697
136.051423,5995.668130,7698.141797,1991.848295
136.051743,6143.709319,6883.915261,459.657299
136.052064,5847.626942,7328.038826,-919.314598
136.052385,4589.276840,6661.853478,-995.924147
136.052706,5551.544565,6143.709319,-689.485948
136.053027,7550.100608,7031.956449,-612.876398
136.053347,5847.626942,8216.285956,383.047749
136.053668,5033.400406,8364.327145,153.219100
136.053989,5403.503377,7994.224174,-766.095498
136.054310,4885.359217,7179.997637,-1685.410096
136.054631,4367.215058,7179.997637,-1378.971896
136.054952,4737.318029,8068.244768,-1225.752797
136.055272,4663.297435,8808.450710,-766.095498
136.055593,4145.153275,9474.636058,612.876398
136.055914,3923.091493,8882.471304,1455.581446
136.056235,4293.194464,8142.265362,0.000000
136.056556,2960.823768,7254.018232,-536.266849
136.056876,2960.823768,7476.080014,-1149.143247
136.057197,4145.153275,9474.636058,-153.219100
136.057518,3923.091493,10436.903782,995.924147
136.057839,4367.215058,9770.718434,1608.800546
136.058160,5181.441594,8882.471304,229.828649
136.058480,3552.988522,8734.430116,-536.266849
136.058801,3034.844362,8586.388927,-1378.971896
136.059122,4293.194464,7994.224174,-1608.800546
136.059443,5477.523971,8956.491898,-153.219100
136.059764,5477.523971,9770.718434,1608.800546
136.060085,5551.544565,8882.471304,1608.800546
136.060405,5477.523971,8438.347739,0.000000
136.060726,4219.173869,8512.368333,-995.924147
136.061047,3775.050304,7624.121203,-1072.533697
136.061368,5773.606348,7550.100608,-689.485948
136.061689,6143.709319,8290.306550,383.047749
136.062009,6661.853478,8808.450710,1608.800546
136.062330,7105.977043,8734.430116,536.266849
136.062651,5255.462188,7772.162391,-1762.019645
136.062972,3997.112087,6587.832884,-2451.505594
136.063293,5773.606348,6661.853478,-1149.143247
136.063613,6661.853478,7550.100608,766.095498
136.063934,6513.812290,7402.059420,1838.629195
136.064255,7698.141797,7105.977043,995.924147
136.064576,5847.626942,7550.100608,-1608.800546
136.064897,3775.050304,7254.018232,-2068.457845
136.065218,5033.400406,6661.853478,-1302.362347
136.065538,7105.977043,7402.059420,-536.266849
136.065859,6365.771101,8068.244768,1225.752797
136.066180,5181.441594,8290.306550,1378.971896
136.066501,4885.359217,7994.224174,-536.266849
136.066822,4145.153275,7846.182985,-1302.362347
136.067142,3552.988522,7105.977043,-383.047749
136.067463,4811.338623,7920.203579,-1302.362347
136.067784,4811.338623,8438.347739,-383.047749
136.068105,3552.988522,8734.430116,459.657299
136.068426,3923.091493,8734.430116,1685.410096
136.068747,3849.070898,8216.285956,1838.629195
136.069067,3330.926739,7476.080014,153.219100
136.069388,4219.173869,7105.977043,-1302.362347
136.069709,4811.338623,8438.347739,-1532.190996
136.070030,5181.441594,9696.697840,306.438199
136.070351,5625.565159,9622.677246,1762.019645
136.070671,5773.606348,8882.471304,612.876398
136.070992,6143.709319,8660.409521,153.219100
136.071313,3923.091493,7772.162391,-1608.800546
136.071634,4441.235652,7698.141797,-1685.410096
136.071955,5995.668130,8142.265362,0.000000
136.072275,6513.812290,8660.409521,1762.019645
136.072596,6735.874072,8290.306550,1915.238745
136.072917,6217.729913,7846.182985,383.047749
136.073238,4737.318029,7328.038826,-1532.190996
136.073559,4145.153275,6957.935855,-995.924147
136.073880,5477.523971,7179.997637,766.095498
136.074200,5847.626942,8586.388927,383.047749
136.074521,5625.565159,7994.224174,842.705048
136.074842,5847.626942,7402.059420,153.219100
136.075163,5847.626942,7624.121203,-536.266849
136.075484,4367.215058,7476.080014,-919.314598
136.075804,3923.091493,7624.121203,-1302.362347
136.076125,5181.441594,8068.244768,-1455.581446
136.076446,5403.503377,8808.450710,-153.219100
136.076767,4959.379811,9252.574275,1762.019645
136.077088,4589.276840,9104.533087,1608.800546
136.077408,3108.864956,7624.121203,0.000000
136.077729,2590.720797,7105.977043,-1685.410096
136.078050,4071.132681,7402.059420,-766.095498
136.078371,4737.318029,7920.203579,153.219100
136.078692,4811.338623,8512.368333,1225.752797
136.079013,4959.379811,10066.800811,995.924147
136.079333,3478.967927,9474.636058,-689.485948
136.079654,3330.926739,7402.059420,-1685.410096
136.079975,4959.379811,6365.771101,-1225.752797
136.080296,5551.544565,7772.162391,-76.609550
136.080617,5551.544565,8956.491898,383.047749
136.080937,5995.668130,8882.471304,612.876398
136.081258,5995.668130,9326.594869,-612.876398
136.081579,5551.544565,8734.430116,-612.876398
136.081900,4737.318029,8290.306550,-842.705048
136.082221,4885.359217,7698.141797,-1455.581446
136.082541,5403.503377,8216.285956,306.438199
136.082862,5625.565159,8882.471304,1532.190996
136.083183,5551.544565,8660.409521,766.095498
136.083504,5329.482782,7846.182985,0.000000
136.083825,4663.297435,7402.059420,-1225.752797
136.084146,4219.173869,7402.059420,-1302.362347
136.084466,5255.462188,7179.997637,-383.047749
136.084787,6217.729913,7772.162391,306.438199
136.085108,5847.626942,7846.182985,919.314598
136.085429,5625.565159,8290.306550,383.047749
136.085750,5773.606348,8290.306550,-229.828649
136.086070,4885.359217,6809.894666,-1762.019645
136.086391,5625.565159,6809.894666,-1991.848295
136.086712,6735.874072,7624.121203,-842.705048
136.087033,6069.688724,8438.347739,229.828649
136.087354,5403.503377,8068.244768,1225.752797
136.087674,5477.523971,7846.182985,-229.828649
136.087995,4441.235652,6809.894666,-1378.971896
136.088316,4219.173869,6291.750507,-383.047749
136.088637,5181.441594,7105.977043,-612.876398
136.088958,5625.565159,8808.450710,76.609550
136.089279,5403.503377,9252.574275,842.705048
136.089599,4737.318029,8290.306550,459.657299
136.089920,4293.194464,7772.162391,-536.266849
136.090241,3627.009116,7624.121203,-689.485948
136.090562,3923.091493,7994.224174,-612.876398
136.090883,4589.276840,8734.430116,-306.438199
136.091203,5181.441594,9474.636058,459.657299
136.091524,5403.503377,9474.636058,1225.752797
136.091845,5033.400406,8734.430116,689.485948
136.092166,3849.070898,8512.368333,-459.657299
136.092487,3182.885551,7476.080014,-1455.581446
136.092807,3923.091493,7328.038826,-995.924147
136.093128,5625.565159,8734.430116,612.876398
136.093449,5773.606348,9178.553681,2374.896044
136.093770,6069.688724,8734.430116,1455.581446
136.094091,5107.421000,8364.327145,-536.266849
136.094412,4071.132681,7846.182985,-1608.800546
136.094732,4885.359217,7179.997637,-689.485948
136.095053,5699.585753,7624.121203,0.000000
136.095374,6217.729913,8734.430116,689.485948
136.095695,6069.688724,9474.636058,919.314598
136.096016,5773.606348,9104.533087,0.000000
136.096337,4959.379811,7402.059420,-1762.019645
136.096657,4441.235652,6217.729913,-1532.190996
136.096978,5181.441594,6365.771101,-306.438199
136.097299,6069.688724,7550.100608,766.095498
136.097620,5699.585753,8586.388927,1149.143247
136.097941,5921.647536,8882.471304,0.000000
136.098262,4811.338623,8512.368333,-689.485948
136.098582,3701.029710,7476.080014,-919.314598
136.098903,3552.988522,6883.915261,-459.657299
136.099224,5181.441594,7179.997637,306.438199
136.099545,5773.606348,8142.265362,612.876398
136.099866,5033.400406,8142.265362,842.705048
136.100187,4811.338623,8586.388927,-76.609550
136.100508,3849.070898,8364.327145,-1072.533697
136.100828,3108.864956,7624.121203,-1532.190996
136.101149,4885.359217,7550.100608,-383.047749
136.101470,6143.709319,7994.224174,76.609550
136.101791,5329.482782,8512.368333,689.485948
136.102112,4737.318029,8512.368333,536.266849
136.102433,5181.441594,8142.265362,-459.657299
136.102753,5033.400406,7550.100608,-1149.143247
136.103074,4737.318029,6439.791695,-766.095498
136.103395,6661.853478,7624.121203,-229.828649
136.103716,6661.853478,8956.491898,842.705048
136.104037,4811.338623,9104.533087,689.485948
136.104358,6143.709319,8438.347739,229.828649
136.104679,5921.647536,7328.038826,-919.314598
136.104999,4811.338623,6957.935855,-1378.971896
136.105320,5107.421000,6291.750507,-995.924147
136.105641,6217.729913,7105.977043,-919.314598
136.105962,5847.626942,8290.306550,0.000000
136.106283,5847.626942,9474.636058,1302.362347
136.106604,5773.606348,9178.553681,-689.485948
136.106924,4737.318029,7772.162391,-1915.238745
136.107245,4071.132681,7328.038826,-995.924147
136.107566,5773.606348,7846.182985,-153.219100
136.107887,5033.400406,8438.347739,536.266849
136.108208,4367.215058,8586.388927,612.876398
136.108529,4959.379811,8734.430116,306.438199
136.108849,4515.256246,8364.327145,-459.657299
136.109170,3182.885551,7402.059420,-919.314598
136.109491,3552.988522,6735.874072,-459.657299
136.109812,4737.318029,7624.121203,-612.876398
136.110133,4885.359217,9400.615463,1455.581446
136.110454,4589.276840,9178.553681,995.924147
136.110775,4737.318029,8364.327145,-536.266849
136.111095,4367.215058,8512.368333,-995.924147
136.111416,2886.803174,8364.327145,-1532.190996
136.111737,4441.235652,8956.491898,-1072.533697
136.112058,6069.688724,9622.677246,536.266849
136.112379,5329.482782,9252.574275,919.314598
136.112700,5255.462188,8290.306550,995.924147
136.113020,4219.173869,8438.347739,-612.876398
136.113341,2960.823768,7920.203579,-1608.800546
136.113662,3775.050304,7402.059420,-383.047749
136.113983,5551.544565,8290.306550,766.095498
136.114304,5699.585753,8808.450710,1072.533697
136.114625,5107.421000,8882.471304,842.705048
136.114946,4219.173869,8512.368333,0.000000
136.115266,3404.947333,8364.327145,-1149.143247
136.115587,4145.153275,7179.997637,-536.266849
136.115908,6809.894666,7105.977043,-306.438199
136.116229,7105.977043,8216.285956,383.047749
136.116550,5255.462188,8956.491898,1072.533697
136.116871,5329.482782,9030.512492,536.266849
136.117191,5107.421000,8734.430116,-306.438199
136.117512,3849.070898,7105.977043,-1532.190996
136.117833,6069.688724,5773.606348,-536.266849
136.118154,6439.791695,5847.626942,-229.828649
136.118475,5625.565159,7402.059420,459.657299
136.118796,5699.585753,7550.100608,919.314598
136.119116,5699.585753,7698.141797,459.657299
136.119437,5625.565159,7402.059420,-689.485948
136.119758,4737.318029,7105.977043,-612.876398
136.120079,4737.318029,7254.018232,-1225.752797
136.120400,6439.791695,8142.265362,-383.047749
136.120721,5403.503377,8734.430116,1149.143247
136.121042,4885.359217,8808.450710,229.828649
136.121362,4589.276840,8364.327145,-919.314598
136.121683,3330.926739,8068.244768,-1455.581446
136.122004,3404.947333,8142.265362,-842.705048
136.122325,4959.379811,7624.121203,459.657299
136.122646,5033.400406,8290.306550,1149.143247
136.122967,4441.235652,8734.430116,612.876398
136.123287,3997.112087,8216.285956,459.657299
136.123608,4367.215058,7994.224174,0.000000
136.123929,4071.132681,7328.038826,-1225.752797
136.124250,4515.256246,7402.059420,-1225.752797
136.124571,5847.626942,8586.388927,-536.266849
136.124892,5773.606348,8956.491898,612.876398
136.125213,5995.668130,9474.636058,1225.752797
136.125533,5625.565159,9030.512492,153.219100
136.125854,4071.132681,7994.224174,-2221.676944
136.126175,4071.132681,6809.894666,-2145.067394
136.126496,5625.565159,7624.121203,-995.924147
136.126817,6143.709319,8512.368333,842.705048
136.127138,6809.894666,8216.285956,1532.190996
136.127458,6143.709319,7624.121203,612.876398
136.127779,4441.235652,7550.100608,-1225.752797
136.128100,3330.926739,7698.141797,-1225.752797
136.128421,4145.153275,7476.080014,-1149.143247
136.128742,6291.750507,8586.388927,-306.438199
136.129063,6735.874072,9178.553681,995.924147
136.129383,5033.400406,8882.471304,1455.581446
136.129704,4885.359217,8586.388927,383.047749
136.130025,3923.091493,8438.347739,-1225.752797
136.130346,2812.782580,7624.121203,-1762.019645
136.130667,4219.173869,7476.080014,-995.924147
136.130988,5551.544565,8142.265362,689.485948
136.131309,6069.688724,8808.450710,1762.019645
136.131629,5699.585753,8956.491898,1302.362347
136.131950,4219.173869,8290.306550,-766.095498
136.132271,2960.823768,7624.121203,-2145.067394
136.132592,4293.194464,7994.224174,-919.314598
136.132913,5477.523971,8882.471304,306.438199
136.133234,5995.668130,9178.553681,1608.800546
136.133554,6365.771101,8882.471304,1225.752797
136.133875,4589.276840,8734.430116,-229.828649
136.134196,3256.906145,7476.080014,-1762.019645
136.134517,3775.050304,6439.791695,-1532.190996
136.134838,5773.606348,6957.935855,-459.657299
136.135159,6735.874072,8438.347739,1072.533697
136.135480,5699.585753,8808.450710,1608.800546
136.135800,5255.462188,8512.368333,-459.657299
136.136121,4885.359217,7994.224174,-995.924147
136.136442,4441.235652,7846.182985,-1072.533697
136.136763,5033.400406,7105.977043,-689.485948
136.137084,6439.791695,7402.059420,0.000000
136.137405,5699.585753,8364.327145,0.000000
136.137725,5255.462188,9474.636058,536.266849
136.138046,4441.235652,9326.594869,536.266849
136.138367,3552.988522,7402.059420,-1072.533697
136.138688,4145.153275,6143.709319,-766.095498
136.139009,5329.482782,7105.977043,-612.876398
136.139330,5255.462188,7772.162391,0.000000
136.139651,4663.297435,8586.388927,995.924147
136.139971,4737.318029,8512.368333,919.314598
136.140292,4441.235652,8216.285956,0.000000
136.140613,3775.050304,7402.059420,-1072.533697
136.140934,4589.276840,7846.182985,-1149.143247
136.141255,5255.462188,8660.409521,-383.047749
136.141576,4959.379811,9474.636058,766.095498
136.141896,4515.256246,9400.615463,612.876398
136.142217,4293.194464,8216.285956,153.219100
136.142538,3997.112087,7920.203579,0.000000
136.142859,4071.132681,7254.018232,0.000000
136.143180,4589.276840,7105.977043,-459.657299
136.143501,5551.544565,7920.203579,-306.438199
136.143821,6069.688724,8512.368333,612.876398
136.144142,6217.729913,8808.450710,1149.143247
136.144463,5921.647536,8512.368333,383.047749
136.144784,5107.421000,7624.121203,-1225.752797
136.145105,5699.585753,7031.956449,-2221.676944
136.145426,5625.565159,7624.121203,-1991.848295
136.145747,5625.565159,9252.574275,-383.047749
136.146067,5847.626942,10288.862594,306.438199
136.146388,5033.400406,9474.636058,766.095498
136.146709,4515.256246,8734.430116,153.219100
136.147030,4071.132681,7920.203579,-459.657299
136.147351,3404.947333,7105.977043,-1072.533697
136.147672,4145.153275,7179.997637,-229.828649
136.147992,4515.256246,8734.430116,1532.190996
136.148313,4737.318029,8142.265362,1915.238745
136.148634,4811.338623,7698.141797,1378.971896
136.148955,4071.132681,7254.018232,-306.438199
136.149276,3034.844362,7031.956449,-2145.067394
136.149597,3997.112087,7698.141797,-1378.971896
136.149918,5773.606348,8512.368333,0.000000
136.150238,6069.688724,9252.574275,1378.971896
136.150559,6069.688724,8808.450710,1608.800546
136.150880,5107.421000,8364.327145,-842.705048
136.151201,4145.153275,8142.265362,-2221.676944
136.151522,3775.050304,7402.059420,-2068.457845
136.151843,5773.606348,6217.729913,-383.047749
136.152163,7179.997637,6217.729913,842.705048
136.152484,6883.915261,7328.038826,1915.238745
136.152805,5477.523971,8512.368333,842.705048
136.153126,3997.112087,8364.327145,-1455.581446
136.153447,3997.112087,7402.059420,-2451.505594
136.153768,5551.544565,6809.894666,-766.095498
136.154088,7179.997637,7254.018232,612.876398
136.154409,6883.915261,8364.327145,995.924147
136.154730,5255.462188,9474.636058,459.657299
136.155051,4737.318029,9474.636058,-995.924147
136.155372,4293.194464,8438.347739,-1608.800546
136.155693,3923.091493,7105.977043,-995.924147
136.156014,5625.565159,7254.018232,0.000000
136.156334,5551.544565,8438.347739,1149.143247
136.156655,5403.503377,8882.471304,1685.410096
136.156976,4589.276840,7476.080014,1455.581446
136.157297,4367.215058,5995.668130,-229.828649
136.157618,4293.194464,7105.977043,-919.314598
136.157939,5107.421000,8216.285956,-766.095498
136.158259,4959.379811,8290.306550,0.000000
136.158580,7328.038826,8956.491898,536.266849
136.158901,7105.977043,8956.491898,1072.533697
136.159222,5329.482782,7920.203579,0.000000
136.159543,3997.112087,7254.018232,-1608.800546
136.159864,4293.194464,6957.935855,-2604.724693
136.160185,5107.421000,7105.977043,-1532.190996
136.160505,6587.832884,8364.327145,459.657299
136.160826,5995.668130,9178.553681,383.047749
136.161147,4737.318029,8808.450710,-612.876398
136.161468,4367.215058,7846.182985,-919.314598
136.161789,3256.906145,6883.915261,-1378.971896
136.162110,3627.009116,7105.977043,-766.095498
136.162430,4219.173869,8142.265362,-153.219100
136.162751,4515.256246,10214.842000,-229.828649
136.163072,4515.256246,10436.903782,383.047749
136.163393,4219.173869,10066.800811,0.000000
136.163714,3701.029710,9178.553681,-1302.362347
136.164035,2516.700203,7772.162391,-1455.581446
136.164355,3552.988522,8512.368333,-383.047749
136.164676,4071.132681,9252.574275,1072.533697
136.164997,4663.297435,9474.636058,1838.629195
136.165318,4737.318029,9178.553681,2068.457845
136.165639,4145.153275,8808.450710,153.219100
136.165960,3034.844362,8142.265362,-1225.752797
136.166281,3627.009116,7476.080014,-995.924147
136.166601,4219.173869,7772.162391,76.609550
136.166922,5403.503377,8734.430116,536.266849
136.167243,5847.626942,9104.533087,1532.190996
136.167564,6217.729913,8290.306550,153.219100
136.167885,6069.688724,7994.224174,-842.705048
136.168206,5847.626942,7476.080014,-1532.190996
136.168526,5773.606348,6957.935855,-1302.362347
136.168847,6513.812290,6661.853478,-383.047749
136.169168,7772.162391,6957.935855,1225.752797
136.169489,8364.327145,6217.729913,1225.752797
136.169810,7254.018232,6069.688724,-459.657299
136.170131,5625.565159,6217.729913,-2451.505594
136.170452,5477.523971,6735.874072,-2298.286494
136.170772,6661.853478,7031.956449,-612.876398
136.171093,7772.162391,7698.141797,919.314598
136.171414,7624.121203,7698.141797,689.485948
136.171735,5699.585753,7846.182985,-1378.971896
136.172056,4145.153275,7772.162391,-1838.629195
136.172377,3256.906145,7846.182985,-1532.190996
136.172697,4367.215058,6735.874072,-383.047749
136.173018,5625.565159,6587.832884,766.095498
136.173339,5329.482782,7698.141797,1685.410096
136.173660,3478.967927,8882.471304,1225.752797
136.173981,2664.741391,8808.450710,0.000000
136.174302,2812.782580,7772.162391,-842.705048
136.174622,4145.153275,7105.977043,-383.047749
136.174943,6143.709319,7846.182985,1072.533697
136.175264,5773.606348,9104.533087,1302.362347
136.175585,4441.235652,10066.800811,0.000000
136.175906,4071.132681,9178.553681,-383.047749
136.176227,4663.297435,8734.430116,-689.485948
136.176548,4737.318029,8290.306550,-1149.143247
136.176868,4737.318029,7994.224174,-1072.533697
136.177189,5403.503377,9178.553681,-842.705048
136.177510,5033.400406,9992.780217,0.000000
136.177831,4219.173869,9030.512492,1455.581446
136.178152,5181.441594,8438.347739,1608.800546
136.178473,5255.462188,7402.059420,0.000000
136.178793,3997.112087,7624.121203,-1302.362347
136.179114,4811.338623,8068.244768,-1225.752797
136.179435,5403.503377,8660.409521,-306.438199
136.179756,5699.585753,8956.491898,842.705048
136.180077,5773.606348,8660.409521,766.095498
136.180398,4589.276840,8882.471304,-689.485948
136.180719,4071.132681,9030.512492,-1762.019645
136.181039,3701.029710,8586.388927,-1225.752797
136.181360,4515.256246,8142.265362,-919.314598
136.181681,5181.441594,8290.306550,612.876398
136.182002,4737.318029,8586.388927,1302.362347
136.182323,4219.173869,8512.368333,689.485948
136.182644,3775.050304,8956.491898,-612.876398
136.182964,3997.112087,7772.162391,-1072.533697
136.183285,4663.297435,7254.018232,-1455.581446
136.183606,5477.523971,7105.977043,153.219100
136.183927,6143.709319,7550.100608,995.924147
136.184248,5773.606348,8660.409521,1149.143247
136.184569,4811.338623,7994.224174,-153.219100
136.184889,3997.112087,7179.997637,-1532.190996
136.185210,5107.421000,6735.874072,-1838.629195
136.185531,5773.606348,7476.080014,-842.705048
136.185852,6143.709319,8142.265362,229.828649
136.186173,6661.853478,8216.285956,1072.533697
136.186494,6735.874072,7994.224174,766.095498
136.186815,4737.318029,7772.162391,0.000000
136.187135,3775.050304,6661.853478,-1302.362347
136.187456,4737.318029,7328.038826,-2221.676944
136.187777,6217.729913,8808.450710,-689.485948
136.188098,5847.626942,9326.594869,919.314598
136.188419,5625.565159,8068.244768,1149.143247
136.188740,4737.318029,7698.141797,766.095498
136.189060,3701.029710,7698.141797,-612.876398
136.189381,2886.803174,7920.203579,-612.876398
136.189702,4145.153275,8512.368333,-919.314598
136.190023,5255.462188,8586.388927,-153.219100
136.190344,5847.626942,9030.512492,1838.629195
136.190665,5477.523971,9326.594869,1532.190996
136.190986,4071.132681,8438.347739,0.000000
136.191306,2516.700203,7254.018232,-2221.676944
136.191627,4293.194464,7402.059420,-1838.629195
136.191948,5625.565159,7846.182985,-689.485948
136.192269,6587.832884,7624.121203,1149.143247
136.192590,7328.038826,7846.182985,1838.629195
136.192911,5625.565159,9474.636058,306.438199
136.193231,3627.009116,9030.512492,-1685.410096
136.193552,3997.112087,7254.018232,-2451.505594
136.193873,6513.812290,6069.688724,-1762.019645
136.194194,7402.059420,6513.812290,689.485948
136.194515,6291.750507,8290.306550,1302.362347
136.194836,5107.421000,8512.368333,0.000000
136.195156,4589.276840,8512.368333,-842.705048
136.195477,4885.359217,7624.121203,-459.657299
136.195798,5181.441594,6883.915261,0.000000
136.196119,5773.606348,7476.080014,-229.828649
136.196440,5403.503377,8956.491898,0.000000
136.196761,5625.565159,9400.615463,612.876398
136.197082,5255.462188,8956.491898,689.485948
136.197402,5107.421000,8068.244768,-459.657299
136.197723,3330.926739,6883.915261,-1838.629195
136.198044,3627.009116,7624.121203,-1149.143247
136.198365,3997.112087,9030.512492,995.924147
136.198686,4367.215058,9918.759623,1378.971896
136.199007,5477.523971,8956.491898,2451.505594
136.199327,4811.338623,7920.203579,383.047749
136.199648,3182.885551,7920.203579,-612.876398
136.199969,3034.844362,7624.121203,-612.876398
136.200290,4663.297435,7772.162391,0.000000
136.200611,5847.626942,7920.203579,1072.533697
136.200932,6291.750507,8512.368333,1608.800546
136.201252,6291.750507,9696.697840,383.047749
136.201573,4515.256246,9474.636058,-1149.143247
136.201894,3330.926739,7772.162391,-2451.505594
136.202215,4737.318029,6143.709319,-1685.410096
136.202536,5625.565159,6069.688724,766.095498
136.202857,6291.750507,7624.121203,1762.019645
136.203177,6439.791695,8512.368333,1072.533697
136.203498,5847.626942,9104.533087,-1149.143247
136.203819,4737.318029,8364.327145,-2298.286494
136.204140,4959.379811,7698.141797,-1991.848295
136.204461,5477.523971,6883.915261,-459.657299
136.204782,6143.709319,8216.285956,1072.533697
136.205102,5995.668130,9178.553681,1838.629195
136.205423,5403.503377,8660.409521,536.266849
136.205744,3997.112087,8068.244768,-995.924147
136.206065,3478.967927,7179.997637,-1915.238745
136.206386,3552.988522,7031.956449,-689.485948
136.206707,4441.235652,7772.162391,766.095498
136.207027,4737.318029,8364.327145,1762.019645
136.207348,4293.194464,7698.141797,1532.190996
136.207669,4737.318029,8142.265362,383.047749
136.207990,4441.235652,7772.162391,-842.705048
136.208311,3849.070898,7402.059420,-1302.362347
136.208632,5329.482782,7402.059420,-766.095498
136.208952,7179.997637,8808.450710,766.095498
136.209273,6217.729913,9326.594869,153.219100
136.209594,5625.565159,8290.306550,-306.438199
136.209915,6291.750507,7994.224174,-1378.971896
136.210236,4737.318029,6957.935855,-2221.676944
136.210557,4737.318029,6439.791695,-1149.143247
136.210877,6069.688724,7105.977043,383.047749
136.211198,5773.606348,7920.203579,766.095498
136.211519,5477.523971,8586.388927,919.314598
136.211840,5107.421000,8660.409521,0.000000
136.212161,3923.091493,7624.121203,-2528.115143
136.212482,3478.967927,7179.997637,-1991.848295
136.212802,4959.379811,7994.224174,0.000000
136.213123,5625.565159,9030.512492,842.705048
136.213444,4811.338623,9548.656652,1072.533697
136.213765,5181.441594,9548.656652,-306.438199
136.214086,3997.112087,9770.718434,-1915.238745
136.214407,3256.906145,8808.450710,-1838.629195
136.214728,3701.029710,7846.182985,-995.924147
136.215048,4737.318029,7920.203579,229.828649
136.215369,4293.194464,9030.512492,1838.629195
136.215690,4071.132681,9844.739029,1149.143247
136.216011,3552.988522,9252.574275,229.828649
136.216332,4145.153275,8438.347739,-383.047749
136.216653,4367.215058,7328.038826,0.000000
136.216973,5477.523971,7476.080014,612.876398
136.217294,5847.626942,8882.471304,689.485948
136.217615,5033.400406,10140.821405,1378.971896
136.217936,5255.462188,9622.677246,536.266849
136.218257,5921.647536,8512.368333,-459.657299
136.218578,5403.503377,7105.977043,-1608.800546
136.218898,5107.421000,7031.956449,-1455.581446
136.219219,5773.606348,7550.100608,-842.705048
136.219540,6069.688724,7994.224174,76.609550
136.219861,6365.771101,7920.203579,1225.752797
136.220182,6809.894666,7772.162391,1149.143247
136.220503,4737.318029,7550.100608,-153.219100
136.220823,3775.050304,6735.874072,-995.924147
136.221144,5699.585753,6661.853478,0.000000
136.221465,6513.812290,7550.100608,229.828649
136.221786,5995.668130,7105.977043,919.314598
136.222107,5773.606348,7328.038826,919.314598
136.222428,5181.441594,7772.162391,-153.219100
136.222748,3997.112087,7328.038826,-612.876398
136.223069,5033.400406,7105.977043,0.000000
136.223390,5625.565159,7105.977043,-536.266849
136.223711,5625.565159,7920.203579,-306.438199
136.224032,5329.482782,7920.203579,153.219100
136.224353,5329.482782,7550.100608,0.000000
136.224673,4737.318029,6661.853478,-459.657299
136.224994,4145.153275,6957.935855,-689.485948
136.225315,4663.297435,7179.997637,-1685.410096
136.225636,4885.359217,9030.512492,-306.438199
136.225957,5255.462188,10140.821405,1225.752797
136.226278,5033.400406,9622.677246,1149.143247
136.226598,4885.359217,8142.265362,766.095498
136.226919,3627.009116,7624.121203,-306.438199
136.227240,3552.988522,6809.894666,-612.876398
136.227561,5033.400406,7328.038826,-536.266849
136.227882,5551.544565,8882.471304,153.219100
136.228203,5403.503377,9400.615463,-76.609550
136.228523,5625.565159,8808.450710,306.438199
136.228844,4959.379811,8290.306550,0.000000
136.229165,4367.215058,7920.203579,-306.438199
136.229486,4737.318029,7846.182985,-689.485948
136.229807,5255.462188,8364.327145,-689.485948
136.230128,5847.626942,9474.636058,-153.219100
136.230448,6365.771101,9844.739029,612.876398
136.230769,5551.544565,9326.594869,0.000000
136.231090,5107.421000,8586.388927,-536.266849
136.231411,4145.153275,8216.285956,-766.095498
136.231732,4885.359217,7328.038826,-536.266849
136.232053,5847.626942,8068.244768,612.876398
136.232373,6291.750507,7772.162391,919.314598
136.232694,6217.729913,7328.038826,1149.143247
136.233015,6439.791695,6513.812290,536.266849
136.233336,6143.709319,5699.585753,-383.047749
136.233657,6587.832884,5773.606348,-1378.971896
136.233978,7994.224174,6143.709319,-766.095498
136.234298,8808.450710,6291.750507,-459.657299
136.234619,9918.759623,6439.791695,1149.143247
136.234940,10066.800811,6365.771101,919.314598
136.235261,9770.718434,5625.565159,-919.314598
136.235582,9104.533087,3627.009116,-1838.629195
136.235903,9770.718434,3478.967927,-1302.362347
136.236224,10732.986159,5921.647536,-459.657299
136.236544,9992.780217,6365.771101,0.000000
136.236865,9696.697840,5699.585753,-459.657299
136.237186,9918.759623,4959.379811,-383.047749
136.237507,7772.162391,4515.256246,-153.219100
136.237828,6735.874072,3256.906145,-383.047749
136.238149,7105.977043,4441.235652,-612.876398
136.238469,7550.100608,6809.894666,0.000000
136.238790,7624.121203,8808.450710,383.047749
136.239111,7846.182985,9178.553681,383.047749
136.239432,7254.018232,8808.450710,-459.657299
136.239753,5625.565159,7550.100608,459.657299
136.240074,4663.297435,5625.565159,919.314598
136.240394,5551.544565,4367.215058,536.266849
136.240715,7402.059420,4737.318029,1532.190996
136.241036,8438.347739,5477.523971,1991.848295
136.241357,9178.553681,6661.853478,766.095498
136.241678,9696.697840,5773.606348,-76.609550
136.241999,10955.047942,4737.318029,-306.438199
136.242319,11621.233289,3627.009116,76.609550
136.242640,12139.377449,2368.659014,229.828649
136.242961,13767.830521,2960.823768,-689.485948
136.243282,14508.036463,4737.318029,-842.705048
136.243603,13767.830521,6513.812290,-2145.067394
136.243924,13397.727550,6513.812290,-2298.286494
136.244244,12139.377449,5921.647536,-2451.505594
136.244565,10881.027347,4737.318029,-766.095498
136.244886,9622.677246,3330.926739,689.485948
136.245207,8808.450710,3627.009116,0.000000
136.245528,8808.450710,4071.132681,-1455.581446
136.245849,8586.388927,5181.441594,-842.705048
136.246169,7698.141797,6883.915261,306.438199
136.246490,7328.038826,8068.244768,1149.143247
136.246811,6883.915261,7698.141797,1608.800546
136.247132,6069.688724,6735.874072,1302.362347
136.247453,5995.668130,5477.523971,1225.752797
136.247774,5995.668130,5255.462188,842.705048
136.248094,6587.832884,5329.482782,-153.219100
136.248415,6883.915261,5699.585753,-612.876398
136.248736,8290.306550,6661.853478,76.609550
136.249057,9696.697840,7698.141797,383.047749
136.249378,10362.883188,7698.141797,229.828649
136.249699,9918.759623,6365.771101,383.047749
136.250019,9770.718434,4367.215058,153.219100
136.250340,9770.718434,2590.720797,229.828649
136.250661,9918.759623,2738.761985,76.609550
136.250982,10214.842000,3404.947333,-842.705048
136.251303,9918.759623,4959.379811,-1838.629195
136.251624,11029.068536,6513.812290,-2604.724693
136.251944,10658.965565,7254.018232,-1838.629195
136.252265,10658.965565,7328.038826,-1378.971896
136.252586,10510.924376,6439.791695,153.219100
136.252907,9104.533087,5181.441594,1378.971896
136.253228,7476.080014,5181.441594,1532.190996
