#time,accel_x,accel_y,accel_z
534.681975,5255.462188,8216.285956,0.000000
534.682295,4885.359217,8438.347739,-689.485948
534.682616,4811.338623,7846.182985,-459.657299
534.682937,4885.359217,8068.244768,153.219100
534.683257,4811.338623,8142.265362,-153.219100
534.683578,4959.379811,8290.306550,-229.828649
534.683899,5033.400406,7994.224174,-383.047749
534.684220,4885.359217,8068.244768,-536.266849
534.684540,5033.400406,7994.224174,-76.609550
534.684861,5181.441594,8068.244768,-76.609550
534.685182,4959.379811,7920.203579,0.000000
534.685502,5107.421000,8216.285956,-306.438199
534.685823,4959.379811,8068.244768,0.000000
534.686144,4885.359217,8142.265362,-383.047749
534.686464,4959.379811,7994.224174,-536.266849
534.686785,4885.359217,8512.368333,0.000000
534.687106,4885.359217,7846.182985,0.000000
534.687426,4959.379811,7994.224174,-76.609550
534.687747,4737.318029,7994.224174,0.000000
534.688068,4885.359217,7994.224174,-229.828649
534.688388,5181.441594,8142.265362,-383.047749
534.688709,5107.421000,8364.327145,-536.266849
534.689030,4737.318029,7920.203579,-229.828649
534.689351,4885.359217,7994.224174,-306.438199
534.689671,4885.359217,8142.265362,-383.047749
534.689992,5107.421000,8290.306550,-612.876398
534.690313,5033.400406,8142.265362,0.000000
534.690633,5107.421000,7772.162391,-306.438199
534.690954,5033.400406,7994.224174,-383.047749
534.691275,5107.421000,7994.224174,76.609550
534.691595,4737.318029,7920.203579,-306.438199
534.691916,4589.276840,7476.080014,-536.266849
534.692237,4219.173869,7624.121203,-306.438199
534.692557,4367.215058,8660.409521,-229.828649
534.692878,4589.276840,9622.677246,-689.485948
534.693199,4441.235652,9918.759623,-1149.143247
534.693520,4515.256246,9696.697840,-1302.362347
534.693840,4071.132681,8882.471304,-536.266849
534.694161,3182.885551,8512.368333,229.828649
534.694482,2664.741391,9178.553681,1149.143247
534.694802,2664.741391,9548.656652,1149.143247
534.695123,2590.720797,9104.533087,76.609550
534.695444,2738.761985,8290.306550,-153.219100
534.695764,2812.782580,8882.471304,-383.047749
534.696085,3108.864956,9474.636058,0.000000
534.696406,2812.782580,9622.677246,0.000000
534.696726,2368.659014,8882.471304,229.828649
534.697047,2664.741391,8734.430116,0.000000
534.697368,2368.659014,9696.697840,-229.828649
534.697688,2146.597232,10955.047942,-842.705048
534.698009,1702.473667,11991.336260,-1532.190996
534.698330,1406.391290,12287.418637,-1302.362347
534.698651,962.267725,11251.130318,-1608.800546
534.698971,74.020594,10658.965565,-1225.752797
534.699292,-370.102971,11769.274478,-1302.362347
534.699613,-1184.329507,12583.501014,-383.047749
534.699933,-1628.453072,12953.603985,383.047749
534.700254,-1702.473667,12065.356855,1072.533697
534.700575,-962.267725,11843.295072,1455.581446
534.700895,-1036.288319,12139.377449,1991.848295
534.701216,-2368.659014,12435.459826,1838.629195
534.701537,-2368.659014,11029.068536,229.828649
534.701857,-1702.473667,9918.759623,-842.705048
534.702178,-962.267725,9474.636058,0.000000
534.702499,-518.144159,9474.636058,1532.190996
534.702819,0.000000,10510.924376,766.095498
534.703140,148.041188,11103.089130,-383.047749
534.703461,888.247130,11769.274478,-1302.362347
534.703782,1702.473667,11177.109724,-1378.971896
534.704102,2220.617826,10436.903782,-153.219100
534.704423,3404.947333,10732.986159,-153.219100
534.704744,2960.823768,10214.842000,-383.047749
534.705064,2072.576638,9252.574275,-2451.505594
534.705385,1850.514855,9326.594869,-2757.943793
534.705706,2368.659014,9844.739029,-1072.533697
534.706026,2146.597232,9844.739029,0.000000
534.706347,1924.535449,10140.821405,-229.828649
534.706668,1554.432478,10510.924376,-306.438199
534.706988,592.164754,11843.295072,0.000000
534.707309,74.020594,10732.986159,459.657299
534.707630,0.000000,9844.739029,689.485948
534.707950,-370.102971,10288.862594,459.657299
534.708271,0.000000,10066.800811,842.705048
534.708592,-222.061783,10584.944971,536.266849
534.708913,-518.144159,10584.944971,612.876398
534.709233,222.061783,11177.109724,842.705048
534.709554,1258.350101,11547.212695,995.924147
534.709875,1258.350101,11251.130318,0.000000
534.710195,1110.308913,10955.047942,-689.485948
534.710516,1628.453072,10658.965565,-995.924147
534.710837,1184.329507,10214.842000,-689.485948
534.711157,1332.370696,9622.677246,-383.047749
534.711478,1702.473667,8956.491898,0.000000
534.711799,1628.453072,9474.636058,306.438199
534.712119,2072.576638,9918.759623,153.219100
534.712440,2146.597232,10510.924376,0.000000
534.712761,2294.638420,10510.924376,-383.047749
534.713081,2738.761985,10362.883188,-459.657299
534.713402,3108.864956,10140.821405,0.000000
534.713723,2812.782580,9474.636058,-919.314598
534.714044,2812.782580,9992.780217,-1225.752797
534.714364,1776.494261,10881.027347,-689.485948
534.714685,1258.350101,11621.233289,-536.266849
534.715006,592.164754,11547.212695,-689.485948
534.715326,962.267725,11251.130318,-1608.800546
534.715647,0.000000,10732.986159,-1838.629195
534.715968,-1406.391290,9770.718434,-1455.581446
534.716288,-1776.494261,9030.512492,-306.438199
534.716609,-1554.432478,8882.471304,1302.362347
534.716930,-888.247130,10584.944971,2068.457845
534.717250,0.000000,12287.418637,1838.629195
534.717571,592.164754,13545.768739,766.095498
534.717892,444.123565,13841.851115,0.000000
534.718213,1702.473667,12953.603985,-306.438199
534.718533,2146.597232,10288.862594,-459.657299
534.718854,1850.514855,8882.471304,-689.485948
534.719175,1258.350101,8512.368333,-306.438199
534.719495,-518.144159,9252.574275,-995.924147
534.719816,-1850.514855,9844.739029,-1915.238745
534.720137,-1480.411884,10955.047942,-1608.800546
534.720457,-296.082377,11843.295072,-995.924147
534.720778,888.247130,13249.686362,0.000000
534.721099,1110.308913,13767.830521,383.047749
534.721419,0.000000,14211.954086,-459.657299
534.721740,-296.082377,13619.789333,-612.876398
534.722061,148.041188,12065.356855,-76.609550
534.722381,222.061783,9696.697840,-459.657299
534.722702,1258.350101,7550.100608,-306.438199
534.723023,2220.617826,7846.182985,-153.219100
534.723344,1258.350101,9474.636058,766.095498
534.723664,0.000000,11029.068536,1149.143247
534.723985,296.082377,11399.171507,842.705048
534.724306,740.205942,9252.574275,459.657299
534.724626,296.082377,8068.244768,383.047749
534.724947,814.226536,9030.512492,842.705048
534.725268,592.164754,10658.965565,-306.438199
534.725588,444.123565,12213.398043,-1915.238745
534.725909,296.082377,12953.603985,-2374.896044
534.726230,592.164754,13249.686362,-2374.896044
534.726550,1036.288319,13175.665768,-1149.143247
534.726871,518.144159,12879.583391,306.438199
534.727192,444.123565,12065.356855,612.876398
534.727512,74.020594,10214.842000,1149.143247
534.727833,222.061783,9252.574275,1608.800546
534.728154,-444.123565,8290.306550,1378.971896
534.728475,-1258.350101,7550.100608,612.876398
534.728795,-1258.350101,8068.244768,612.876398
534.729116,-222.061783,9104.533087,0.000000
534.729437,518.144159,10288.862594,306.438199
534.729757,2072.576638,11991.336260,-153.219100
534.730078,3108.864956,12731.542202,-612.876398
534.730399,2146.597232,11991.336260,-1762.019645
534.730719,1184.329507,10658.965565,-2068.457845
534.731040,1702.473667,8216.285956,-2374.896044
534.731361,2294.638420,7772.162391,0.000000
534.731681,3552.988522,10658.965565,2298.286494
534.732002,1776.494261,12879.583391,0.000000
534.732323,666.185348,13471.748144,-2987.772442
534.732643,814.226536,12139.377449,-3447.429741
534.732964,-222.061783,9474.636058,-1838.629195
534.733285,-962.267725,7105.977043,0.000000
534.733606,-518.144159,6957.935855,1072.533697
534.733926,-666.185348,11251.130318,459.657299
534.734247,-1776.494261,15248.242405,842.705048
534.734568,-2738.761985,16136.489536,0.000000
534.734888,-1480.411884,14359.995275,-1072.533697
534.735209,-296.082377,13471.748144,383.047749
534.735530,-888.247130,11843.295072,1762.019645
534.735850,-1850.514855,9918.759623,689.485948
534.736171,-666.185348,9992.780217,0.000000
534.736492,-962.267725,10362.883188,229.828649
534.736812,-1258.350101,9770.718434,-536.266849
534.737133,148.041188,9474.636058,536.266849
534.737454,1628.453072,9918.759623,1302.362347
534.737774,3034.844362,10881.027347,1378.971896
534.738095,4293.194464,11547.212695,0.000000
534.738416,4589.276840,11251.130318,-1762.019645
534.738737,4959.379811,11103.089130,-1762.019645
534.739057,3923.091493,9992.780217,-2068.457845
534.739378,2368.659014,8364.327145,-2757.943793
534.739699,2294.638420,7179.997637,-2145.067394
534.740019,3034.844362,8808.450710,-689.485948
534.740340,3034.844362,10732.986159,1225.752797
534.740661,2072.576638,11473.192101,153.219100
534.740981,888.247130,10807.006753,-1378.971896
534.741302,-740.205942,10214.842000,-536.266849
534.741623,-1998.556043,9992.780217,383.047749
534.741943,-1776.494261,9622.677246,766.095498
534.742264,666.185348,11103.089130,0.000000
534.742584,666.185348,12731.542202,-689.485948
534.742905,-592.164754,13915.871710,-995.924147
534.743226,-1998.556043,14285.974681,-459.657299
534.743546,-2368.659014,11843.295072,1225.752797
534.743867,-1184.329507,9696.697840,4290.134789
534.744187,888.247130,9770.718434,4443.353888
534.744508,-296.082377,9326.594869,842.705048
534.744828,-296.082377,10066.800811,-1378.971896
534.745149,222.061783,9548.656652,-306.438199
534.745470,1554.432478,7624.121203,1991.848295
534.745790,2886.803174,5477.523971,2528.115143
534.746111,5329.482782,6439.791695,1149.143247
534.746431,4589.276840,11251.130318,-1532.190996
534.746752,3775.050304,13841.851115,-3524.039291
534.747073,5255.462188,12953.603985,-2911.162892
534.747393,6587.832884,9696.697840,-2145.067394
534.747714,5255.462188,6513.812290,-459.657299
534.748034,3256.906145,5699.585753,306.438199
534.748355,1628.453072,8068.244768,-612.876398
534.748676,-222.061783,11695.253884,-2757.943793
534.748996,666.185348,12731.542202,-3524.039291
534.749317,2812.782580,10881.027347,-2911.162892
534.749637,3849.070898,9326.594869,-459.657299
534.749958,1406.391290,9474.636058,2911.162892
534.750279,518.144159,10658.965565,3370.820191
534.750599,-740.205942,11325.150913,1762.019645
534.750920,-666.185348,10881.027347,536.266849
534.751240,592.164754,8660.409521,766.095498
534.751561,3404.947333,6587.832884,2145.067394
534.751882,5625.565159,8438.347739,2834.553343
534.752202,3330.926739,10362.883188,1378.971896
534.752523,2886.803174,9844.739029,-995.924147
534.752843,4071.132681,8512.368333,-1762.019645
534.753164,6217.729913,6217.729913,306.438199
534.753485,7031.956449,4811.338623,1455.581446
534.753805,9326.594869,4959.379811,995.924147
534.754126,10066.800811,7105.977043,-1302.362347
534.754446,8142.265362,8438.347739,-3064.381992
534.754767,8364.327145,8142.265362,-3217.601092
534.755087,10881.027347,7328.038826,-2451.505594
534.755408,10658.965565,7772.162391,-766.095498
534.755729,7698.141797,7624.121203,-766.095498
534.756049,5847.626942,6957.935855,-3524.039291
534.756370,6587.832884,7476.080014,-3677.258390
534.756690,4737.318029,8142.265362,-536.266849
534.757011,2886.803174,7402.059420,689.485948
534.757332,3182.885551,7254.018232,229.828649
534.757652,2886.803174,8364.327145,0.000000
534.757973,2442.679609,10066.800811,995.924147
534.758293,3701.029710,11103.089130,2221.676944
534.758614,3256.906145,10584.944971,2298.286494
534.758935,962.267725,9474.636058,1302.362347
534.759255,2220.617826,9696.697840,1991.848295
534.759576,2368.659014,9548.656652,1762.019645
534.759896,2368.659014,9844.739029,536.266849
534.760217,3997.112087,9992.780217,306.438199
534.760538,2516.700203,10066.800811,-306.438199
534.760858,2886.803174,9918.759623,-459.657299
534.761179,3701.029710,9030.512492,1608.800546
534.761499,3701.029710,6735.874072,1685.410096
534.761820,4737.318029,5181.441594,2145.067394
534.762141,5773.606348,6809.894666,1915.238745
534.762461,4663.297435,8216.285956,-1608.800546
534.762782,6291.750507,8586.388927,-2681.334243
534.763102,8734.430116,8216.285956,-766.095498
534.763423,9622.677246,7994.224174,-536.266849
534.763743,9178.553681,7772.162391,-1225.752797
534.764064,8068.244768,8364.327145,-2834.553343
534.764385,6513.812290,8216.285956,-2834.553343
534.764705,4811.338623,6587.832884,-766.095498
534.765026,6365.771101,4515.256246,995.924147
534.765346,6365.771101,4663.297435,-76.609550
534.765667,4959.379811,7105.977043,-1225.752797
534.765988,3034.844362,9696.697840,-1378.971896
534.766308,2072.576638,9030.512492,-2298.286494
534.766629,4663.297435,6809.894666,-689.485948
534.766949,6513.812290,6143.709319,3294.210641
534.767270,5033.400406,6069.688724,4136.915689
534.767591,3775.050304,7179.997637,3830.477490
534.767911,2146.597232,8956.491898,1762.019645
534.768232,2812.782580,8512.368333,-76.609550
534.768552,5477.523971,7328.038826,-306.438199
534.768873,6365.771101,6365.771101,-536.266849
534.769194,5699.585753,6143.709319,-1608.800546
534.769514,5995.668130,7105.977043,-1378.971896
534.769835,5773.606348,7994.224174,-1378.971896
534.770155,5181.441594,7624.121203,-1915.238745
534.770476,5477.523971,6365.771101,-153.219100
534.770797,6957.935855,6809.894666,459.657299
534.771117,7476.080014,8734.430116,612.876398
534.771438,7328.038826,11177.109724,-383.047749
534.771758,6883.915261,10955.047942,-1762.019645
534.772079,5847.626942,8290.306550,-2451.505594
534.772399,6587.832884,6735.874072,-1532.190996
534.772720,7179.997637,6291.750507,-536.266849
534.773041,5329.482782,7031.956449,-995.924147
534.773361,4219.173869,7476.080014,-842.705048
534.773682,3775.050304,8660.409521,-383.047749
534.774002,3627.009116,8364.327145,536.266849
534.774323,4515.256246,8142.265362,766.095498
534.774644,5329.482782,9326.594869,766.095498
534.774964,2960.823768,10288.862594,-229.828649
534.775285,2072.576638,9992.780217,-1685.410096
534.775605,5329.482782,8364.327145,-1532.190996
534.775926,5921.647536,7476.080014,-306.438199
534.776247,4811.338623,7920.203579,1838.629195
534.776567,4811.338623,9104.533087,1762.019645
534.776888,3108.864956,10140.821405,-2298.286494
534.777208,4071.132681,9918.759623,-2374.896044
534.777529,6513.812290,8660.409521,-383.047749
534.777850,6291.750507,6957.935855,842.705048
534.778170,5477.523971,6883.915261,0.000000
534.778491,5181.441594,8512.368333,-1302.362347
534.778811,3849.070898,8364.327145,-2604.724693
534.779132,5107.421000,7624.121203,-995.924147
534.779453,6661.853478,8142.265362,1455.581446
534.779773,5551.544565,8512.368333,919.314598
534.780094,5625.565159,9104.533087,-383.047749
534.780414,4737.318029,9178.553681,-612.876398
534.780735,5403.503377,8660.409521,-766.095498
534.781056,5477.523971,7698.141797,383.047749
534.781376,4071.132681,5255.462188,-919.314598
534.781697,4589.276840,6809.894666,-1915.238745
534.782017,4589.276840,9400.615463,459.657299
534.782338,3256.906145,9030.512492,536.266849
534.782658,3478.967927,5255.462188,229.828649
534.782979,5403.503377,5403.503377,1378.971896
534.783300,5255.462188,8216.285956,1225.752797
534.783620,4441.235652,9326.594869,383.047749
534.783941,4737.318029,8586.388927,-612.876398
534.784261,6365.771101,7920.203579,-1302.362347
534.784582,7402.059420,7031.956449,1149.143247
534.784903,7402.059420,5847.626942,1915.238745
534.785223,5921.647536,6217.729913,-306.438199
534.785544,5551.544565,7179.997637,-919.314598
534.785864,5921.647536,7920.203579,-1608.800546
534.786185,5995.668130,5995.668130,-995.924147
534.786506,7920.203579,5921.647536,612.876398
534.786826,8364.327145,7476.080014,2528.115143
534.787147,5995.668130,7624.121203,612.876398
534.787467,6883.915261,7994.224174,-1685.410096
534.787788,6365.771101,7328.038826,-1991.848295
534.788109,5329.482782,6291.750507,229.828649
534.788429,6143.709319,6217.729913,2911.162892
534.788750,7031.956449,8216.285956,1532.190996
534.789070,4885.359217,8882.471304,-612.876398
534.789391,5773.606348,8882.471304,-1455.581446
534.789712,5403.503377,6957.935855,-383.047749
534.790032,3478.967927,5995.668130,76.609550
534.790353,4663.297435,6365.771101,1072.533697
534.790673,5551.544565,7698.141797,459.657299
534.790994,3552.988522,7698.141797,-766.095498
534.791314,4663.297435,8142.265362,76.609550
534.791635,5551.544565,8068.244768,0.000000
534.791956,4885.359217,8734.430116,-919.314598
534.792276,5699.585753,9474.636058,0.000000
534.792597,6217.729913,10140.821405,536.266849
534.792917,5329.482782,8512.368333,459.657299
534.793238,5477.523971,7105.977043,0.000000
534.793559,5773.606348,7698.141797,-1225.752797
534.793879,5699.585753,8438.347739,-1455.581446
534.794200,4071.132681,7476.080014,-459.657299
534.794520,4737.318029,6291.750507,-919.314598
534.794841,4589.276840,6069.688724,-536.266849
534.795162,4441.235652,8438.347739,689.485948
534.795482,4293.194464,9992.780217,766.095498
534.795803,2960.823768,9252.574275,-1378.971896
534.796123,3997.112087,7772.162391,-2221.676944
534.796444,6143.709319,8808.450710,-1838.629195
534.796765,4737.318029,9622.677246,-536.266849
534.797085,3775.050304,10362.883188,229.828649
534.797406,3997.112087,8586.388927,-229.828649
534.797726,3923.091493,8364.327145,-1762.019645
534.798047,4589.276840,8142.265362,-689.485948
534.798368,4737.318029,9326.594869,0.000000
534.798688,3404.947333,9474.636058,229.828649
534.799009,3701.029710,8586.388927,76.609550
534.799329,5699.585753,7031.956449,-766.095498
534.799650,5551.544565,6365.771101,-612.876398
534.799970,4737.318029,7994.224174,-153.219100
534.800291,3923.091493,10066.800811,612.876398
534.800612,3849.070898,9770.718434,-1072.533697
534.800932,6513.812290,8808.450710,-766.095498
534.801253,7550.100608,8956.491898,919.314598
534.801573,5551.544565,8734.430116,0.000000
534.801894,4145.153275,9178.553681,-1072.533697
534.802215,4293.194464,8438.347739,-1915.238745
534.802535,6143.709319,7550.100608,-1838.629195
534.802856,6809.894666,6587.832884,1378.971896
534.803176,5921.647536,6587.832884,766.095498
534.803497,4737.318029,8142.265362,0.000000
534.803818,4737.318029,9622.677246,306.438199
534.804138,5477.523971,9104.533087,153.219100
534.804459,5699.585753,6069.688724,76.609550
534.804779,6143.709319,5995.668130,459.657299
534.805100,6143.709319,7994.224174,306.438199
534.805421,4959.379811,8068.244768,-766.095498
534.805741,5995.668130,7328.038826,-1225.752797
534.806062,6513.812290,6513.812290,-612.876398
534.806382,5995.668130,6217.729913,0.000000
534.806703,6143.709319,6587.832884,153.219100
534.807024,6735.874072,7624.121203,-536.266849
534.807344,6069.688724,7031.956449,0.000000
534.807665,6143.709319,6513.812290,153.219100
534.807985,6735.874072,6883.915261,153.219100
534.808306,5625.565159,7624.121203,-689.485948
534.808627,4885.359217,9326.594869,-459.657299
534.808947,6069.688724,9252.574275,612.876398
534.809268,3552.988522,8586.388927,-229.828649
534.809588,3404.947333,7772.162391,76.609550
534.809909,4589.276840,8734.430116,1302.362347
534.810229,2590.720797,8734.430116,1072.533697
534.810550,1924.535449,7994.224174,1378.971896
534.810871,3404.947333,8068.244768,689.485948
534.811191,2516.700203,7920.203579,-1225.752797
534.811512,2368.659014,8956.491898,-766.095498
534.811832,3849.070898,8882.471304,1685.410096
534.812153,3182.885551,7994.224174,1455.581446
534.812474,4071.132681,7550.100608,689.485948
534.812794,4515.256246,9030.512492,-919.314598
534.813115,4293.194464,11177.109724,-1532.190996
534.813435,3849.070898,11103.089130,-153.219100
534.813756,6069.688724,10140.821405,689.485948
534.814077,6661.853478,8142.265362,-383.047749
534.814397,6365.771101,7476.080014,-842.705048
534.814718,4515.256246,7105.977043,-919.314598
534.815038,4145.153275,6809.894666,-766.095498
534.815359,4589.276840,7031.956449,459.657299
534.815680,5921.647536,7105.977043,306.438199
534.816000,7105.977043,7476.080014,-536.266849
534.816321,6217.729913,8882.471304,0.000000
534.816641,5181.441594,9622.677246,-459.657299
534.816962,5773.606348,8438.347739,-995.924147
534.817283,6069.688724,6661.853478,-766.095498
534.817603,5107.421000,6735.874072,-459.657299
534.817924,5033.400406,8660.409521,612.876398
534.818244,3627.009116,10214.842000,-306.438199
534.818565,4737.318029,9770.718434,-2374.896044
534.818885,6661.853478,7772.162391,-1532.190996
534.819206,4959.379811,6291.750507,383.047749
534.819527,4885.359217,6143.709319,76.609550
534.819847,4663.297435,7031.956449,689.485948
534.820168,4589.276840,7920.203579,76.609550
534.820488,6809.894666,8290.306550,919.314598
534.820809,6735.874072,7550.100608,536.266849
534.821130,5403.503377,7105.977043,-1915.238745
534.821450,5921.647536,8438.347739,-1302.362347
534.821771,6069.688724,8660.409521,0.000000
534.822091,6439.791695,8068.244768,153.219100
534.822412,6661.853478,6809.894666,153.219100
534.822733,4737.318029,6957.935855,-1685.410096
534.823053,4737.318029,9104.533087,-2451.505594
534.823374,3923.091493,10066.800811,-766.095498
534.823694,3849.070898,9104.533087,0.000000
534.824015,4737.318029,6439.791695,306.438199
534.824336,4885.359217,6143.709319,536.266849
534.824656,3552.988522,9326.594869,0.000000
534.824977,1776.494261,11399.171507,-536.266849
534.825297,1998.556043,11103.089130,-1149.143247
534.825618,3849.070898,9030.512492,-536.266849
534.825939,5625.565159,7920.203579,612.876398
534.826259,4959.379811,7994.224174,1532.190996
534.826580,1850.514855,9104.533087,76.609550
534.826900,1258.350101,9474.636058,-536.266849
534.827221,2368.659014,8290.306550,-1072.533697
534.827541,4737.318029,7179.997637,153.219100
534.827862,6735.874072,8068.244768,766.095498
534.828183,5773.606348,9918.759623,766.095498
534.828503,3256.906145,9770.718434,0.000000
534.828824,4145.153275,8882.471304,-1072.533697
534.829144,5181.441594,7402.059420,-842.705048
534.829465,5847.626942,7994.224174,76.609550
534.829786,4885.359217,9030.512492,842.705048
534.830106,3552.988522,9400.615463,-1225.752797
534.830427,4737.318029,9918.759623,-1302.362347
534.830747,4959.379811,8956.491898,-383.047749
534.831068,3701.029710,6957.935855,842.705048
534.831389,3849.070898,7105.977043,1149.143247
534.831709,2960.823768,8216.285956,0.000000
534.832030,814.226536,9030.512492,-612.876398
534.832350,4145.153275,8808.450710,0.000000
534.832671,4959.379811,7624.121203,1302.362347
534.832992,3701.029710,7179.997637,1532.190996
534.833312,5107.421000,8068.244768,1072.533697
534.833633,5847.626942,9104.533087,0.000000
534.833953,4145.153275,9252.574275,-1455.581446
534.834274,4737.318029,7550.100608,-383.047749
534.834595,5699.585753,6661.853478,-919.314598
534.834915,7031.956449,6661.853478,-306.438199
534.835236,7105.977043,8068.244768,842.705048
534.835556,6883.915261,8068.244768,-383.047749
534.835877,5847.626942,7031.956449,-2068.457845
534.836198,4959.379811,5403.503377,-459.657299
534.836518,6957.935855,6513.812290,1072.533697
534.836839,7772.162391,8068.244768,2221.676944
534.837159,5625.565159,7698.141797,383.047749
534.837480,6513.812290,6957.935855,-1838.629195
534.837800,5699.585753,6587.832884,-2068.457845
534.838121,5329.482782,7846.182985,-229.828649
534.838442,5033.400406,8216.285956,1225.752797
534.838762,4515.256246,8142.265362,612.876398
534.839083,5107.421000,8364.327145,-536.266849
534.839403,5921.647536,8512.368333,153.219100
534.839724,4293.194464,8734.430116,-919.314598
534.840045,2516.700203,8808.450710,-1225.752797
534.840365,3182.885551,8734.430116,-153.219100
534.840686,4737.318029,8734.430116,76.609550
534.841006,5773.606348,8586.388927,919.314598
534.841327,4145.153275,8956.491898,536.266849
534.841648,3552.988522,8808.450710,-383.047749
534.841968,2886.803174,8734.430116,842.705048
534.842289,4145.153275,8290.306550,1455.581446
534.842610,5107.421000,7772.162391,-689.485948
534.842930,5181.441594,7698.141797,-229.828649
534.843251,3997.112087,8808.450710,-306.438199
534.843571,4959.379811,9252.574275,-1149.143247
534.843892,5477.523971,8364.327145,-1762.019645
534.844213,6513.812290,7476.080014,-842.705048
534.844533,6439.791695,6735.874072,-306.438199
534.844854,5329.482782,7105.977043,459.657299
534.845175,5329.482782,8734.430116,76.609550
534.845495,4737.318029,10362.883188,-1455.581446
534.845816,4959.379811,10066.800811,-2451.505594
534.846136,5033.400406,7994.224174,-1532.190996
534.846457,5477.523971,7402.059420,-536.266849
534.846778,5255.462188,8290.306550,689.485948
534.847098,4145.153275,9326.594869,229.828649
534.847419,2886.803174,7772.162391,-306.438199
534.847740,2590.720797,7328.038826,0.000000
534.848060,4145.153275,7550.100608,1302.362347
534.848381,5255.462188,7994.224174,1685.410096
534.848701,4145.153275,9252.574275,306.438199
534.849022,4293.194464,9104.533087,-459.657299
534.849343,4367.215058,8364.327145,-842.705048
534.849663,3923.091493,6883.915261,-689.485948
534.849984,5329.482782,6883.915261,0.000000
534.850304,6291.750507,8808.450710,1302.362347
534.850625,4441.235652,9474.636058,229.828649
534.850946,4959.379811,9104.533087,-1072.533697
534.851266,7402.059420,8808.450710,-1378.971896
534.851587,6439.791695,8808.450710,-689.485948
534.851908,4959.379811,7698.141797,229.828649
534.852228,5625.565159,5921.647536,306.438199
534.852549,6809.894666,6439.791695,-229.828649
534.852869,7402.059420,7179.997637,459.657299
534.853190,5847.626942,6883.915261,229.828649
534.853511,4811.338623,6883.915261,-689.485948
534.853831,5921.647536,8364.327145,766.095498
534.854152,5995.668130,9844.739029,1378.971896
534.854473,6217.729913,7402.059420,-153.219100
534.854793,6365.771101,5551.544565,-383.047749
534.855114,4885.359217,6661.853478,-612.876398
534.855434,4515.256246,8290.306550,-536.266849
534.855755,4737.318029,8142.265362,-536.266849
534.856076,5255.462188,7920.203579,-1302.362347
534.856396,6143.709319,7402.059420,76.609550
534.856717,5477.523971,7772.162391,1608.800546
534.857038,4737.318029,7772.162391,0.000000
534.857358,4589.276840,7550.100608,-842.705048
534.857679,4589.276840,8290.306550,0.000000
534.857999,5181.441594,8068.244768,229.828649
534.858320,5625.565159,6513.812290,612.876398
534.858641,5921.647536,8290.306550,-536.266849
534.858961,5625.565159,10362.883188,-995.924147
534.859282,3108.864956,9178.553681,-383.047749
534.859602,3330.926739,7105.977043,229.828649
534.859923,5847.626942,5847.626942,919.314598
534.860244,5477.523971,7772.162391,1455.581446
534.860564,4293.194464,10288.862594,0.000000
534.860885,2886.803174,9844.739029,-2451.505594
534.861206,3627.009116,8438.347739,-2834.553343
534.861526,6143.709319,7105.977043,-306.438199
534.861847,7105.977043,7328.038826,1455.581446
534.862167,4885.359217,7624.121203,842.705048
534.862488,3182.885551,8882.471304,-459.657299
534.862809,3997.112087,9178.553681,-689.485948
534.863129,5699.585753,9030.512492,-536.266849
534.863450,6735.874072,7698.141797,229.828649
534.863771,6291.750507,7179.997637,0.000000
534.864091,6069.688724,7698.141797,-612.876398
534.864412,4885.359217,7254.018232,-1072.533697
534.864732,5773.606348,6735.874072,-1915.238745
534.865053,6291.750507,5995.668130,-612.876398
534.865374,6069.688724,6661.853478,1149.143247
534.865694,6143.709319,8438.347739,1225.752797
534.866015,6661.853478,10288.862594,-383.047749
534.866336,7105.977043,10510.924376,-2221.676944
534.866656,6365.771101,8808.450710,-1455.581446
534.866977,5477.523971,6661.853478,-459.657299
534.867297,5255.462188,6513.812290,383.047749
534.867618,5625.565159,7920.203579,536.266849
534.867939,5033.400406,9104.533087,-766.095498
534.868259,3775.050304,9030.512492,-689.485948
534.868580,3701.029710,8290.306550,0.000000
534.868901,4959.379811,7994.224174,1532.190996
534.869221,5107.421000,8068.244768,1762.019645
534.869542,4145.153275,7624.121203,919.314598
534.869862,4589.276840,7624.121203,536.266849
534.870183,3775.050304,6587.832884,-306.438199
534.870504,3775.050304,6143.709319,-919.314598
534.870824,6365.771101,8586.388927,-229.828649
534.871145,5847.626942,9844.739029,459.657299
534.871465,4663.297435,9104.533087,-766.095498
534.871786,6217.729913,7105.977043,-919.314598
534.872107,5995.668130,6809.894666,-995.924147
534.872427,5847.626942,7105.977043,-229.828649
534.872748,5699.585753,7994.224174,153.219100
534.873069,5329.482782,7402.059420,-1149.143247
534.873389,6365.771101,6513.812290,-1608.800546
534.873710,7328.038826,6735.874072,0.000000
534.874030,6143.709319,7328.038826,0.000000
534.874351,3997.112087,7550.100608,0.000000
534.874672,4811.338623,7846.182985,0.000000
534.874992,6587.832884,8216.285956,-306.438199
534.875313,6513.812290,8734.430116,0.000000
534.875634,4959.379811,8068.244768,0.000000
534.875954,4145.153275,9104.533087,-995.924147
534.876275,3256.906145,8956.491898,229.828649
534.876595,3997.112087,7994.224174,612.876398
534.876916,4441.235652,6661.853478,842.705048
534.877237,3552.988522,5847.626942,1225.752797
534.877557,2590.720797,7994.224174,1302.362347
534.877878,3108.864956,9918.759623,-383.047749
534.878199,3775.050304,9844.739029,-1149.143247
534.878519,5329.482782,9030.512492,-383.047749
534.878840,6069.688724,7698.141797,1455.581446
534.879160,5625.565159,7105.977043,1685.410096
534.879481,4589.276840,8216.285956,306.438199
534.879802,4219.173869,8512.368333,-2298.286494
534.880122,5699.585753,8660.409521,-2068.457845
534.880443,6735.874072,8438.347739,-459.657299
534.880763,6735.874072,8290.306550,-306.438199
534.881084,7624.121203,8438.347739,0.000000
534.881405,5847.626942,8808.450710,-536.266849
534.881725,3775.050304,7698.141797,-766.095498
534.882046,4959.379811,6661.853478,-1072.533697
534.882367,5995.668130,6883.915261,-383.047749
534.882687,5625.565159,7772.162391,0.000000
534.883008,5107.421000,8956.491898,306.438199
534.883328,4737.318029,9104.533087,-536.266849
534.883649,4959.379811,9326.594869,-1149.143247
534.883970,5255.462188,8438.347739,-459.657299
534.884290,5403.503377,7550.100608,459.657299
534.884611,4367.215058,7476.080014,689.485948
534.884932,3923.091493,8216.285956,1072.533697
534.885252,3997.112087,7698.141797,0.000000
534.885573,4663.297435,6291.750507,-842.705048
534.885893,4959.379811,6735.874072,919.314598
534.886214,4515.256246,7179.997637,1608.800546
534.886535,4367.215058,7105.977043,229.828649
534.886855,7031.956449,8290.306550,-1455.581446
534.887176,7476.080014,9252.574275,-1762.019645
534.887497,6217.729913,7920.203579,-1149.143247
534.887817,6143.709319,6735.874072,-1072.533697
534.888138,6957.935855,7920.203579,-459.657299
534.888458,6365.771101,9104.533087,-612.876398
534.888779,5551.544565,8290.306550,-1149.143247
534.889100,5625.565159,6957.935855,-1608.800546
534.889420,4663.297435,7179.997637,-1378.971896
534.889741,5699.585753,7994.224174,0.000000
534.890062,5773.606348,9030.512492,842.705048
534.890382,3775.050304,7846.182985,0.000000
534.890703,4737.318029,7624.121203,0.000000
534.891023,4219.173869,8512.368333,0.000000
534.891344,2812.782580,8734.430116,-383.047749
534.891665,3849.070898,9696.697840,-383.047749
534.891985,3701.029710,9326.594869,459.657299
534.892306,4589.276840,9178.553681,766.095498
534.892626,4959.379811,8882.471304,1149.143247
534.892947,2812.782580,8438.347739,-1072.533697
534.893268,2516.700203,9770.718434,-1378.971896
534.893588,1850.514855,9992.780217,229.828649
534.893909,3034.844362,8068.244768,766.095498
534.894230,5995.668130,6809.894666,1225.752797
534.894550,5255.462188,7920.203579,1532.190996
534.894871,3256.906145,9104.533087,0.000000
534.895191,3108.864956,9770.718434,-919.314598
534.895512,3775.050304,9474.636058,-1378.971896
534.895833,6291.750507,8364.327145,-459.657299
534.896153,7698.141797,8068.244768,2068.457845
534.896474,5773.606348,8290.306550,766.095498
534.896795,3701.029710,9030.512492,-689.485948
534.897115,3849.070898,8808.450710,-1915.238745
534.897436,4885.359217,8142.265362,-2298.286494
534.897756,5699.585753,7624.121203,306.438199
534.898077,5181.441594,6587.832884,1378.971896
534.898398,4293.194464,7105.977043,-229.828649
534.898718,4737.318029,8068.244768,-766.095498
534.899039,4145.153275,9696.697840,-153.219100
534.899360,3923.091493,8068.244768,306.438199
534.899680,5181.441594,6735.874072,689.485948
534.900001,5625.565159,7179.997637,1608.800546
534.900321,5477.523971,8734.430116,1225.752797
534.900642,5181.441594,8142.265362,-229.828649
534.900963,4293.194464,7179.997637,-1225.752797
534.901283,5551.544565,6809.894666,-689.485948
534.901604,6883.915261,7031.956449,536.266849
534.901925,7402.059420,7846.182985,153.219100
534.902245,5847.626942,7772.162391,-689.485948
534.902566,4367.215058,7328.038826,-1378.971896
534.902886,5921.647536,6883.915261,-229.828649
534.903207,6883.915261,7328.038826,459.657299
534.903528,5921.647536,7402.059420,1149.143247
534.903848,5625.565159,7846.182985,-229.828649
534.904169,4737.318029,8586.388927,-842.705048
534.904489,4441.235652,8290.306550,-689.485948
534.904810,6291.750507,8068.244768,-306.438199
534.905131,5773.606348,7179.997637,0.000000
534.905451,4367.215058,7550.100608,0.000000
534.905772,4441.235652,8290.306550,-153.219100
534.906093,3552.988522,8364.327145,-1378.971896
534.906413,5181.441594,9030.512492,-1072.533697
534.906734,4737.318029,9844.739029,995.924147
534.907054,3404.947333,9474.636058,689.485948
534.907375,3997.112087,9104.533087,229.828649
534.907696,4071.132681,9326.594869,383.047749
534.908016,3256.906145,8808.450710,-153.219100
534.908337,3552.988522,8808.450710,689.485948
534.908658,3404.947333,9400.615463,76.609550
534.908978,3627.009116,9400.615463,-1225.752797
534.909299,4589.276840,9548.656652,229.828649
534.909619,4885.359217,9696.697840,1225.752797
534.909940,4589.276840,8808.450710,459.657299
534.910261,3478.967927,6883.915261,-536.266849
534.910581,4811.338623,8068.244768,-1455.581446
534.910902,5033.400406,8882.471304,-766.095498
534.911223,4441.235652,9104.533087,229.828649
534.911543,4589.276840,8512.368333,153.219100
534.911864,4663.297435,7920.203579,0.000000
534.912184,5477.523971,9474.636058,0.000000
534.912505,4589.276840,9548.656652,689.485948
534.912826,2812.782580,7994.224174,-612.876398
534.913146,3849.070898,7402.059420,-689.485948
534.913467,5477.523971,7624.121203,383.047749
534.913787,5329.482782,8142.265362,-306.438199
534.914108,4515.256246,7698.141797,-306.438199
534.914429,4441.235652,7846.182985,-766.095498
534.914749,4885.359217,7772.162391,-766.095498
534.915070,5255.462188,7105.977043,612.876398
534.915391,5551.544565,7254.018232,383.047749
534.915711,5403.503377,8364.327145,536.266849
534.916032,4737.318029,8216.285956,229.828649
534.916352,5255.462188,8142.265362,-1378.971896
534.916673,5403.503377,7254.018232,-842.705048
534.916994,4367.215058,6957.935855,0.000000
534.917314,4589.276840,6513.812290,919.314598
534.917635,5403.503377,7328.038826,0.000000
534.917956,5551.544565,7994.224174,-919.314598
534.918276,6217.729913,7550.100608,-1685.410096
534.918597,6069.688724,6883.915261,-459.657299
534.918917,5477.523971,7105.977043,612.876398
534.919238,4811.338623,7402.059420,1149.143247
534.919559,6143.709319,7698.141797,-76.609550
534.919879,5625.565159,7920.203579,-1991.848295
534.920200,4589.276840,7550.100608,-1378.971896
534.920521,5255.462188,8290.306550,-919.314598
534.920841,6439.791695,8882.471304,-229.828649
534.921162,5847.626942,8660.409521,-229.828649
534.921482,6661.853478,8586.388927,153.219100
534.921803,5699.585753,8142.265362,383.047749
534.922124,4071.132681,7031.956449,306.438199
534.922444,5033.400406,7105.977043,229.828649
534.922765,6217.729913,8882.471304,76.609550
534.923086,3997.112087,8290.306550,-229.828649
534.923406,4737.318029,7179.997637,-919.314598
534.923727,6069.688724,6883.915261,-1072.533697
534.924047,4737.318029,9178.553681,-1072.533697
534.924368,4737.318029,10066.800811,0.000000
534.924689,3997.112087,10288.862594,153.219100
534.925009,4663.297435,9400.615463,0.000000
534.925330,6143.709319,9474.636058,2145.067394
534.925650,4811.338623,10288.862594,1149.143247
534.925971,2146.597232,9104.533087,-536.266849
534.926292,2442.679609,9030.512492,-1302.362347
534.926612,3404.947333,8512.368333,-612.876398
534.926933,5033.400406,8290.306550,0.000000
534.927254,4811.338623,7476.080014,1532.190996
534.927574,2368.659014,8364.327145,0.000000
534.927895,1480.411884,9622.677246,0.000000
534.928215,2442.679609,10066.800811,919.314598
534.928536,4811.338623,8660.409521,842.705048
534.928857,4663.297435,6883.915261,459.657299
534.929177,4145.153275,7920.203579,0.000000
534.929498,4071.132681,9696.697840,-842.705048
534.929819,3108.864956,9400.615463,-1532.190996
534.930139,5181.441594,7698.141797,-1225.752797
534.930460,6365.771101,5995.668130,-459.657299
534.930780,5995.668130,5773.606348,536.266849
534.931101,5773.606348,7105.977043,153.219100
534.931422,5477.523971,8734.430116,-842.705048
534.931742,6143.709319,8364.327145,-1991.848295
534.932063,6661.853478,5773.606348,-919.314598
534.932384,7105.977043,5255.462188,383.047749
534.932704,6809.894666,5921.647536,-153.219100
534.933025,5773.606348,7698.141797,-1072.533697
534.933345,4589.276840,8438.347739,-2298.286494
534.933666,5107.421000,8512.368333,-1225.752797
534.933987,6217.729913,7105.977043,919.314598
534.934307,6735.874072,7105.977043,919.314598
534.934628,5699.585753,8290.306550,919.314598
534.934948,2886.803174,8438.347739,-306.438199
534.935269,2368.659014,7254.018232,-919.314598
534.935590,5181.441594,6587.832884,-689.485948
534.935910,6365.771101,7031.956449,612.876398
534.936231,5995.668130,8364.327145,919.314598
534.936552,4589.276840,8882.471304,0.000000
534.936872,4293.194464,9622.677246,-536.266849
534.937193,5107.421000,9474.636058,0.000000
534.937513,5477.523971,8216.285956,459.657299
534.937834,5847.626942,7402.059420,0.000000
534.938155,6143.709319,8364.327145,229.828649
534.938475,5847.626942,9474.636058,0.000000
534.938796,6439.791695,9030.512492,-919.314598
534.939117,6661.853478,7402.059420,-1225.752797
534.939437,5625.565159,5773.606348,153.219100
534.939758,5773.606348,6439.791695,689.485948
534.940078,7031.956449,7550.100608,689.485948
534.940399,5699.585753,7772.162391,-1225.752797
534.940720,6365.771101,7105.977043,-1608.800546
534.941040,7031.956449,6809.894666,-995.924147
534.941361,6513.812290,8068.244768,-536.266849
534.941682,6513.812290,8512.368333,-1302.362347
534.942002,6143.709319,9474.636058,-2145.067394
534.942323,5255.462188,8882.471304,-1991.848295
534.942643,5033.400406,8364.327145,0.000000
534.942964,4367.215058,8364.327145,1149.143247
534.943285,2960.823768,8734.430116,-229.828649
534.943605,2220.617826,9770.718434,-766.095498
534.943926,1332.370696,8956.491898,229.828649
534.944246,2368.659014,8734.430116,1225.752797
534.944567,3849.070898,7476.080014,1532.190996
534.944887,2960.823768,8142.265362,76.609550
534.945208,1776.494261,9474.636058,0.000000
534.945528,1702.473667,9104.533087,842.705048
534.945849,3478.967927,8142.265362,1685.410096
534.946169,5181.441594,7550.100608,1378.971896
534.946490,4737.318029,7920.203579,76.609550
534.946810,4737.318029,9992.780217,-689.485948
534.947131,4663.297435,8364.327145,-1378.971896
534.947452,5403.503377,6439.791695,-1378.971896
534.947772,7846.182985,5847.626942,-689.485948
534.948093,6809.894666,7402.059420,-153.219100
534.948413,4441.235652,7994.224174,-229.828649
534.948734,5107.421000,8512.368333,-919.314598
534.949054,7772.162391,7920.203579,-842.705048
534.949375,7328.038826,6883.915261,-306.438199
534.949695,7031.956449,6661.853478,306.438199
534.950016,6439.791695,7105.977043,0.000000
534.950336,5625.565159,8512.368333,-1302.362347
534.950657,5551.544565,8734.430116,-842.705048
534.950977,5773.606348,7031.956449,-689.485948
534.951298,5329.482782,5921.647536,0.000000
534.951619,5033.400406,6957.935855,1302.362347
534.951939,5255.462188,7994.224174,536.266849
534.952260,4959.379811,8216.285956,0.000000
534.952580,4737.318029,7476.080014,-306.438199
534.952901,4811.338623,6957.935855,0.000000
534.953221,5477.523971,7476.080014,1149.143247
534.953542,5847.626942,7698.141797,536.266849
534.953862,5551.544565,8142.265362,-842.705048
534.954183,5329.482782,7105.977043,-459.657299
534.954503,6365.771101,7179.997637,536.266849
534.954824,6291.750507,8364.327145,459.657299
534.955144,5921.647536,8808.450710,-459.657299
534.955465,5921.647536,8734.430116,-842.705048
534.955786,5699.585753,8364.327145,-842.705048
534.956106,5921.647536,6661.853478,-459.657299
534.956427,5847.626942,6291.750507,-229.828649
534.956747,4589.276840,6957.935855,-1072.533697
534.957068,5625.565159,8586.388927,-383.047749
534.957388,4071.132681,7624.121203,-612.876398
534.957709,3923.091493,6883.915261,-1225.752797
534.958029,6513.812290,8882.471304,-689.485948
534.958350,4959.379811,10807.006753,-383.047749
534.958670,2812.782580,10510.924376,-536.266849
534.958991,5255.462188,9030.512492,-153.219100
534.959311,4811.338623,8438.347739,-229.828649
534.959632,3775.050304,7698.141797,-153.219100
534.959952,2738.761985,7698.141797,306.438199
534.960273,1776.494261,8364.327145,-459.657299
534.960594,3849.070898,8512.368333,-383.047749
534.960914,4663.297435,8808.450710,459.657299
534.961235,3775.050304,7994.224174,-1378.971896
534.961555,2886.803174,7328.038826,-1149.143247
534.961876,3256.906145,8364.327145,919.314598
534.962196,4663.297435,9400.615463,689.485948
534.962517,7031.956449,9326.594869,0.000000
534.962837,5921.647536,7994.224174,-2451.505594
534.963158,5181.441594,8364.327145,-2604.724693
534.963478,5847.626942,9770.718434,-536.266849
534.963799,5329.482782,9326.594869,306.438199
534.964119,5995.668130,7476.080014,-153.219100
534.964440,4959.379811,5847.626942,-689.485948
534.964761,4885.359217,7550.100608,-459.657299
534.965081,4441.235652,8290.306550,689.485948
534.965402,4737.318029,9104.533087,-919.314598
534.965722,5921.647536,9548.656652,-2298.286494
534.966043,4589.276840,8216.285956,-1991.848295
534.966363,4885.359217,7476.080014,383.047749
534.966684,5181.441594,8216.285956,2068.457845
534.967004,4441.235652,8956.491898,1149.143247
534.967325,3997.112087,9400.615463,0.000000
534.967645,4515.256246,9326.594869,-995.924147
534.967966,4737.318029,8808.450710,-612.876398
534.968286,7105.977043,8512.368333,1302.362347
534.968607,6365.771101,7772.162391,1225.752797
534.968928,4737.318029,6439.791695,229.828649
534.969248,3627.009116,4737.318029,229.828649
534.969569,4737.318029,4441.235652,1072.533697
534.969889,7105.977043,6439.791695,1455.581446
534.970210,6809.894666,8142.265362,689.485948
534.970530,6365.771101,8956.491898,-1378.971896
534.970851,7846.182985,8882.471304,-1685.410096
534.971171,8216.285956,7328.038826,-919.314598
534.971492,7698.141797,7328.038826,-612.876398
534.971812,6735.874072,6883.915261,-306.438199
534.972133,5329.482782,7328.038826,-842.705048
534.972453,4515.256246,7254.018232,-995.924147
534.972774,4959.379811,7920.203579,-919.314598
534.973095,5921.647536,7846.182985,-306.438199
534.973415,4441.235652,7624.121203,-612.876398
534.973736,2960.823768,7328.038826,306.438199
534.974056,3627.009116,7994.224174,612.876398
534.974377,4737.318029,7846.182985,766.095498
534.974697,3330.926739,7031.956449,383.047749
534.975018,3404.947333,7328.038826,1072.533697
534.975338,3552.988522,9326.594869,2451.505594
534.975659,3997.112087,10436.903782,689.485948
534.975979,4737.318029,9252.574275,-689.485948
534.976300,5995.668130,7994.224174,-919.314598
534.976620,4663.297435,7624.121203,-153.219100
534.976941,3552.988522,7254.018232,689.485948
534.977261,4811.338623,7772.162391,229.828649
534.977582,5477.523971,8438.347739,-919.314598
534.977903,5477.523971,8068.244768,-919.314598
534.978223,5995.668130,9252.574275,0.000000
534.978544,4737.318029,9030.512492,-919.314598
534.978864,3923.091493,9104.533087,-1072.533697
534.979185,4737.318029,8734.430116,0.000000
534.979505,4885.359217,8586.388927,0.000000
534.979826,4293.194464,8290.306550,229.828649
534.980146,4293.194464,8364.327145,-1225.752797
534.980467,4663.297435,9104.533087,-1838.629195
534.980787,3108.864956,9918.759623,-536.266849
534.981108,2590.720797,7994.224174,459.657299
534.981428,4071.132681,6809.894666,459.657299
534.981749,5329.482782,8512.368333,459.657299
534.982070,3775.050304,9622.677246,153.219100
534.982390,3034.844362,9030.512492,-1608.800546
534.982711,4367.215058,8586.388927,-1838.629195
534.983031,4959.379811,8882.471304,-306.438199
534.983352,5847.626942,8438.347739,1302.362347
534.983672,5699.585753,7476.080014,842.705048
534.983993,5033.400406,8364.327145,0.000000
534.984313,4145.153275,8586.388927,-612.876398
534.984634,5181.441594,7994.224174,-1072.533697
534.984954,7105.977043,7328.038826,-995.924147
534.985275,6883.915261,7105.977043,383.047749
534.985595,6217.729913,7550.100608,1302.362347
534.985916,5773.606348,7550.100608,-153.219100
534.986237,4959.379811,7105.977043,-2604.724693
534.986557,4145.153275,6809.894666,-1532.190996
534.986878,5699.585753,6439.791695,383.047749
534.987198,6069.688724,7476.080014,1149.143247
534.987519,5921.647536,9400.615463,76.609550
534.987839,5477.523971,9992.780217,-1149.143247
534.988160,4885.359217,9400.615463,-1838.629195
534.988480,4515.256246,8142.265362,-612.876398
534.988801,5773.606348,7994.224174,919.314598
534.989121,5847.626942,8216.285956,919.314598
534.989442,4737.318029,8290.306550,0.000000
534.989762,3775.050304,7920.203579,-459.657299
534.990083,3775.050304,7254.018232,612.876398
534.990404,5551.544565,7031.956449,1762.019645
534.990724,5847.626942,7550.100608,1455.581446
534.991045,3849.070898,6957.935855,76.609550
534.991365,4663.297435,7179.997637,689.485948
534.991686,6143.709319,7402.059420,1302.362347
534.992006,5255.462188,6661.853478,1455.581446
534.992327,6217.729913,7920.203579,383.047749
534.992647,6735.874072,9400.615463,-1149.143247
534.992968,4367.215058,9918.759623,-1302.362347
534.993288,5699.585753,8142.265362,-766.095498
534.993609,6365.771101,7031.956449,229.828649
534.993929,6217.729913,6735.874072,-612.876398
534.994250,4367.215058,7105.977043,0.000000
534.994571,3330.926739,7846.182985,-306.438199
534.994891,4737.318029,7920.203579,-1378.971896
534.995212,6069.688724,9030.512492,-306.438199
534.995532,4219.173869,8586.388927,306.438199
534.995853,2590.720797,7179.997637,0.000000
534.996173,3552.988522,8364.327145,306.438199
534.996494,3330.926739,9178.553681,842.705048
534.996814,3552.988522,9400.615463,0.000000
534.997135,3256.906145,7550.100608,-306.438199
534.997455,3256.906145,8068.244768,-766.095498
534.997776,3997.112087,9474.636058,76.609550
534.998096,4515.256246,9844.739029,459.657299
534.998417,4219.173869,8734.430116,0.000000
534.998737,3627.009116,6291.750507,536.266849
534.999058,3330.926739,7846.182985,1915.238745
534.999379,4219.173869,9400.615463,1532.190996
534.999699,3997.112087,9918.759623,-612.876398
535.000020,4885.359217,10140.821405,-1532.190996
535.000340,4737.318029,8660.409521,-842.705048
535.000661,5773.606348,7920.203579,842.705048
535.000981,5921.647536,8068.244768,1072.533697
535.001302,3923.091493,8808.450710,76.609550
535.001622,3627.009116,8512.368333,-536.266849
535.001943,5107.421000,9400.615463,-383.047749
535.002263,5847.626942,9326.594869,229.828649
535.002584,6513.812290,8438.347739,0.000000
535.002904,6439.791695,8142.265362,-995.924147
535.003225,5181.441594,7105.977043,-919.314598
535.003546,4589.276840,6587.832884,0.000000
535.003866,5847.626942,6069.688724,0.000000
535.004187,6513.812290,6883.915261,-536.266849
535.004507,6069.688724,7846.182985,76.609550
535.004828,6439.791695,8438.347739,459.657299
535.005148,6513.812290,7105.977043,0.000000
535.005469,6883.915261,6587.832884,-1072.533697
535.005789,7105.977043,6957.935855,-383.047749
535.006110,5255.462188,6587.832884,-1378.971896
535.006430,5699.585753,7031.956449,-1378.971896
535.006751,6365.771101,8290.306550,-842.705048
535.007071,7254.018232,8438.347739,-1149.143247
535.007392,5181.441594,8364.327145,-536.266849
535.007713,5107.421000,7402.059420,459.657299
535.008033,4589.276840,7624.121203,919.314598
535.008354,4145.153275,7254.018232,536.266849
535.008674,5255.462188,7846.182985,-536.266849
535.008995,3627.009116,6661.853478,-1149.143247
535.009315,2516.700203,5773.606348,-536.266849
535.009636,5033.400406,8734.430116,1455.581446
535.009956,5477.523971,9992.780217,459.657299
535.010277,2886.803174,8734.430116,-2068.457845
535.010597,6439.791695,8216.285956,-1685.410096
535.010918,6365.771101,8068.244768,0.000000
535.011238,4515.256246,8660.409521,306.438199
535.011559,5033.400406,7994.224174,0.000000
535.011880,5921.647536,7846.182985,-536.266849
535.012200,5699.585753,8956.491898,76.609550
535.012521,5699.585753,8660.409521,1608.800546
535.012841,4811.338623,8734.430116,-995.924147
535.013162,4737.318029,8808.450710,-2451.505594
535.013482,4515.256246,9104.533087,383.047749
535.013803,5921.647536,8438.347739,2145.067394
535.014123,7105.977043,8290.306550,1455.581446
535.014444,4959.379811,7920.203579,-383.047749
535.014764,2590.720797,8586.388927,-2068.457845
535.015085,2812.782580,10214.842000,-383.047749
535.015405,3997.112087,10214.842000,1915.238745
535.015726,5181.441594,8808.450710,229.828649
535.016046,5107.421000,8216.285956,-76.609550
535.016367,3923.091493,8956.491898,-229.828649
535.016688,1554.432478,9918.759623,0.000000
535.017008,1480.411884,9770.718434,76.609550
535.017329,3701.029710,9252.574275,0.000000
535.017649,4663.297435,8364.327145,153.219100
535.017970,3627.009116,8364.327145,1838.629195
535.018290,3849.070898,9696.697840,1915.238745
535.018611,3404.947333,9030.512492,229.828649
535.018931,4145.153275,7476.080014,-1225.752797
535.019252,5033.400406,6291.750507,-383.047749
535.019572,5773.606348,5033.400406,1685.410096
535.019893,6587.832884,6217.729913,1685.410096
535.020213,6883.915261,7031.956449,1225.752797
535.020534,5329.482782,6809.894666,-1762.019645
535.020855,8290.306550,6735.874072,-1455.581446
535.021175,7550.100608,4737.318029,0.000000
535.021496,7772.162391,4885.359217,306.438199
535.021816,9474.636058,6957.935855,-229.828649
535.022137,7031.956449,6957.935855,-2221.676944
535.022457,5625.565159,7105.977043,-2145.067394
535.022778,8512.368333,6661.853478,0.000000
535.023098,7402.059420,6365.771101,-689.485948
535.023419,5551.544565,6291.750507,-1149.143247
535.023739,5181.441594,7031.956449,0.000000
535.024060,3849.070898,7254.018232,229.828649
535.024380,3997.112087,7105.977043,383.047749
535.024701,5699.585753,7402.059420,-76.609550
535.025022,5181.441594,7550.100608,-995.924147
535.025342,4145.153275,8216.285956,-383.047749
535.025663,3182.885551,8882.471304,2145.067394
535.025983,3923.091493,9400.615463,1225.752797
535.026304,4663.297435,8586.388927,0.000000
535.026624,3849.070898,7846.182985,-689.485948
535.026945,4811.338623,8808.450710,306.438199
535.027265,4959.379811,9030.512492,1455.581446
535.027586,5403.503377,8512.368333,-153.219100
535.027906,6143.709319,7994.224174,-1762.019645
535.028227,4959.379811,7994.224174,-1149.143247
535.028547,5181.441594,8808.450710,306.438199
535.028868,6217.729913,9326.594869,612.876398
535.029189,6735.874072,9104.533087,-1302.362347
535.029509,6365.771101,8586.388927,-1838.629195
535.029830,5255.462188,7624.121203,-919.314598
535.030150,4737.318029,8364.327145,-229.828649
535.030471,6069.688724,9918.759623,-76.609550
535.030791,5995.668130,9622.677246,-1225.752797
535.031112,4589.276840,8142.265362,-2451.505594
535.031432,4367.215058,7920.203579,-995.924147
535.031753,4441.235652,9844.739029,612.876398
535.032073,3330.926739,10955.047942,306.438199
535.032394,3478.967927,9696.697840,-842.705048
535.032714,4589.276840,8512.368333,-536.266849
535.033035,2738.761985,7550.100608,536.266849
535.033355,2664.741391,7772.162391,1532.190996
535.033676,4145.153275,8512.368333,842.705048
535.033997,3034.844362,8956.491898,-153.219100
535.034317,4515.256246,8438.347739,1072.533697
535.034638,5403.503377,7698.141797,1302.362347
535.034958,5033.400406,7550.100608,76.609550
535.035279,4737.318029,7920.203579,229.828649
535.035599,3997.112087,7624.121203,-306.438199
535.035920,5329.482782,7179.997637,-766.095498
535.036240,7624.121203,6735.874072,612.876398
535.036561,6587.832884,6809.894666,-1072.533697
535.036881,6513.812290,7476.080014,-1991.848295
535.037202,4885.359217,8142.265362,-995.924147
535.037522,4737.318029,8068.244768,-76.609550
535.037843,6365.771101,6217.729913,153.219100
535.038164,6883.915261,6439.791695,306.438199
535.038484,5699.585753,7624.121203,-1225.752797
535.038805,3849.070898,8438.347739,0.000000
535.039125,5033.400406,8586.388927,0.000000
535.039446,6513.812290,7550.100608,-689.485948
535.039766,5773.606348,6291.750507,0.000000
535.040087,4885.359217,6217.729913,766.095498
535.040407,4219.173869,8290.306550,1455.581446
535.040728,3330.926739,8216.285956,1072.533697
535.041048,5033.400406,7476.080014,-229.828649
535.041369,7254.018232,6069.688724,-536.266849
535.041689,5551.544565,6809.894666,612.876398
535.042010,4959.379811,7476.080014,1302.362347
535.042331,5551.544565,7179.997637,306.438199
535.042653,6661.853478,7698.141797,-689.485948
535.042974,6069.688724,7846.182985,0.000000
535.043295,6365.771101,7328.038826,919.314598
535.043615,6365.771101,7476.080014,0.000000
535.043936,5995.668130,8216.285956,-919.314598
535.044257,5699.585753,8290.306550,-766.095498
535.044577,6143.709319,7772.162391,-306.438199
535.044898,5847.626942,7031.956449,153.219100
535.045219,4737.318029,7105.977043,-306.438199
535.045539,4885.359217,8142.265362,-1302.362347
535.045860,4367.215058,9030.512492,-995.924147
535.046181,3034.844362,9696.697840,-919.314598
535.046502,3849.070898,9030.512492,-306.438199
535.046822,4737.318029,9326.594869,-459.657299
535.047143,3627.009116,10066.800811,-536.266849
535.047464,3108.864956,9548.656652,-459.657299
535.047784,3108.864956,10214.842000,0.000000
535.048105,2368.659014,10140.821405,0.000000
535.048426,2960.823768,9696.697840,0.000000
535.048746,4071.132681,9474.636058,919.314598
535.049067,2664.741391,7772.162391,919.314598
535.049388,3330.926739,7402.059420,1072.533697
535.049709,3849.070898,6883.915261,459.657299
535.050029,3627.009116,6587.832884,-919.314598
535.050350,5477.523971,7476.080014,-229.828649
535.050671,6365.771101,9400.615463,766.095498
535.050991,5329.482782,9326.594869,-383.047749
535.051312,7179.997637,8734.430116,-1532.190996
535.051633,7105.977043,7920.203579,-1302.362347
535.051954,5551.544565,7994.224174,-842.705048
535.052274,5699.585753,7846.182985,689.485948
535.052595,5329.482782,8512.368333,153.219100
535.052916,4959.379811,8512.368333,-2451.505594
535.053236,5255.462188,8808.450710,-1762.019645
535.053557,4071.132681,7920.203579,-995.924147
535.053878,3256.906145,6587.832884,-1072.533697
535.054198,3997.112087,6735.874072,689.485948
535.054519,4367.215058,7624.121203,0.000000
535.054840,3997.112087,8290.306550,-612.876398
535.055161,3256.906145,8364.327145,306.438199
535.055481,4885.359217,8660.409521,153.219100
535.055802,5107.421000,9548.656652,459.657299
535.056123,4737.318029,9548.656652,766.095498
535.056443,4885.359217,7846.182985,459.657299
535.056764,4737.318029,6069.688724,536.266849
535.057085,5181.441594,6661.853478,536.266849
535.057405,5329.482782,7402.059420,76.609550
535.057726,4737.318029,7698.141797,-995.924147
535.058047,6291.750507,7328.038826,-612.876398
535.058368,5921.647536,5773.606348,383.047749
535.058688,6661.853478,5033.400406,689.485948
535.059009,7920.203579,6439.791695,536.266849
535.059330,5329.482782,7476.080014,-1225.752797
535.059650,5329.482782,8142.265362,-2068.457845
535.059971,8660.409521,8290.306550,-1532.190996
535.060292,8586.388927,8512.368333,-1072.533697
535.060612,7624.121203,8512.368333,-1225.752797
535.060933,6217.729913,7105.977043,-536.266849
535.061254,4811.338623,7550.100608,-842.705048
535.061575,4811.338623,7031.956449,-306.438199
535.061895,5625.565159,7031.956449,0.000000
535.062216,4885.359217,7179.997637,-1302.362347
535.062537,4071.132681,8142.265362,-766.095498
535.062857,3775.050304,8956.491898,919.314598
535.063178,4293.194464,9326.594869,0.000000
535.063499,3923.091493,7920.203579,689.485948
535.063819,2590.720797,8290.306550,612.876398
535.064140,2590.720797,9252.574275,76.609550
535.064461,2960.823768,9918.759623,842.705048
535.064782,3997.112087,10214.842000,536.266849
535.065102,4663.297435,10140.821405,-689.485948
535.065423,3775.050304,9622.677246,-536.266849
535.065744,2960.823768,9770.718434,153.219100
535.066064,3256.906145,9474.636058,0.000000
535.066385,3701.029710,8734.430116,0.000000
535.066706,2738.761985,8586.388927,-229.828649
535.067027,2960.823768,7254.018232,229.828649
535.067347,4145.153275,9844.739029,1915.238745
535.067668,5107.421000,11399.171507,1762.019645
535.067989,5107.421000,10288.862594,-459.657299
535.068309,6143.709319,8956.491898,-2451.505594
535.068630,5033.400406,7624.121203,-2221.676944
535.068951,3849.070898,7328.038826,76.609550
535.069271,5995.668130,8438.347739,229.828649
535.069592,5255.462188,7994.224174,-229.828649
535.069913,4737.318029,7105.977043,-766.095498
535.070234,6069.688724,7031.956449,-153.219100
535.070554,3775.050304,8216.285956,-766.095498
535.070875,4367.215058,8734.430116,-1149.143247
535.071196,4737.318029,8068.244768,0.000000
535.071516,5995.668130,7105.977043,76.609550
535.071837,6661.853478,7105.977043,842.705048
535.072158,5329.482782,7624.121203,229.828649
535.072478,3108.864956,7698.141797,-1991.848295
535.072799,3330.926739,8290.306550,-766.095498
535.073120,5107.421000,7846.182985,1455.581446
535.073441,7772.162391,7402.059420,1378.971896
535.073761,7105.977043,6735.874072,536.266849
535.074082,4885.359217,6439.791695,-1455.581446
535.074403,3701.029710,6661.853478,-995.924147
535.074723,3627.009116,6957.935855,306.438199
535.075044,5625.565159,6439.791695,306.438199
535.075365,7254.018232,6883.915261,0.000000
535.075685,6439.791695,9548.656652,-612.876398
535.076006,4737.318029,10955.047942,-536.266849
535.076327,4959.379811,9770.718434,-153.219100
535.076648,5477.523971,7402.059420,-842.705048
535.076968,5699.585753,5551.544565,-383.047749
535.077289,6143.709319,5403.503377,1072.533697
535.077610,4737.318029,7550.100608,1302.362347
535.077930,3997.112087,8808.450710,-612.876398
535.078251,5033.400406,9178.553681,-1762.019645
535.078572,6143.709319,7920.203579,-1532.190996
535.078892,5773.606348,7179.997637,229.828649
535.079213,5847.626942,7328.038826,2145.067394
535.079534,4885.359217,7105.977043,153.219100
535.079855,4367.215058,7624.121203,-1378.971896
535.080175,4589.276840,8586.388927,-995.924147
535.080496,5255.462188,8882.471304,-306.438199
535.080817,7254.018232,9474.636058,-76.609550
535.081137,6735.874072,9326.594869,-919.314598
535.081458,5181.441594,9178.553681,-1225.752797
535.081779,4293.194464,7994.224174,-229.828649
535.082100,4145.153275,7476.080014,536.266849
535.082420,4737.318029,8808.450710,383.047749
535.082741,4737.318029,9474.636058,-153.219100
535.083062,4515.256246,10584.944971,-766.095498
535.083382,3775.050304,10140.821405,-612.876398
535.083703,2590.720797,9326.594869,153.219100
535.084024,2664.741391,7772.162391,0.000000
535.084344,3108.864956,8290.306550,0.000000
535.084665,3034.844362,9178.553681,995.924147
535.084986,3478.967927,9326.594869,1225.752797
535.085307,4441.235652,9400.615463,459.657299
535.085627,4071.132681,9252.574275,-153.219100
535.085948,3108.864956,8142.265362,0.000000
535.086269,4737.318029,7402.059420,612.876398
535.086589,4811.338623,7476.080014,306.438199
535.086910,5255.462188,7031.956449,-919.314598
535.087231,5847.626942,5921.647536,-2298.286494
535.087551,5033.400406,6957.935855,-1991.848295
535.087872,5403.503377,8364.327145,229.828649
535.088193,6735.874072,9178.553681,1685.410096
535.088514,7328.038826,8364.327145,0.000000
535.088834,7328.038826,7994.224174,-1455.581446
535.089155,5551.544565,7772.162391,-995.924147
535.089476,4441.235652,7105.977043,-1378.971896
535.089796,5033.400406,7031.956449,-536.266849
535.090117,6957.935855,7994.224174,0.000000
535.090438,6439.791695,7920.203579,0.000000
535.090758,4441.235652,7402.059420,383.047749
535.091079,3256.906145,8068.244768,0.000000
535.091400,3552.988522,8142.265362,995.924147
535.091721,2960.823768,7846.182985,1991.848295
535.092041,4293.194464,7402.059420,1532.190996
535.092362,4441.235652,6735.874072,1302.362347
535.092683,4145.153275,8586.388927,766.095498
535.093003,4367.215058,9770.718434,-306.438199
535.093324,3552.988522,8734.430116,-1608.800546
535.093645,4219.173869,7772.162391,-612.876398
535.093965,5921.647536,6587.832884,1225.752797
535.094286,6217.729913,6587.832884,1685.410096
535.094607,6217.729913,7994.224174,842.705048
535.094928,4811.338623,7920.203579,-1378.971896
535.095248,5329.482782,7254.018232,-2451.505594
535.095569,7105.977043,6735.874072,-1455.581446
535.095890,7698.141797,6661.853478,-383.047749
535.096210,7920.203579,7254.018232,306.438199
535.096531,6513.812290,6809.894666,229.828649
535.096852,5477.523971,7105.977043,-306.438199
535.097173,5995.668130,7772.162391,0.000000
535.097493,6069.688724,8290.306550,-689.485948
535.097814,6365.771101,7994.224174,-1378.971896
535.098135,6217.729913,8068.244768,-536.266849
535.098455,5477.523971,8734.430116,612.876398
535.098776,5033.400406,8290.306550,306.438199
535.099097,4515.256246,7328.038826,-306.438199
535.099417,3923.091493,7328.038826,-536.266849
535.099738,3627.009116,8216.285956,459.657299
535.100059,4145.153275,8882.471304,1225.752797
535.100380,4071.132681,8734.430116,459.657299
535.100700,3701.029710,9178.553681,0.000000
535.101021,3330.926739,8142.265362,306.438199
535.101342,3775.050304,7698.141797,536.266849
535.101662,4885.359217,8512.368333,0.000000
535.101983,5477.523971,9030.512492,-766.095498
535.102304,4663.297435,8734.430116,-1072.533697
535.102624,5107.421000,7698.141797,-1149.143247
535.102945,5551.544565,7846.182985,1225.752797
535.103266,6217.729913,9918.759623,689.485948
535.103587,5477.523971,9770.718434,-1455.581446
535.103907,4737.318029,7772.162391,-2681.334243
535.104228,5625.565159,6735.874072,-1302.362347
535.104549,6143.709319,7105.977043,689.485948
535.104869,5995.668130,8364.327145,383.047749
535.105190,4811.338623,8882.471304,-1762.019645
535.105511,4145.153275,8956.491898,-2221.676944
535.105831,5033.400406,9474.636058,-229.828649
535.106152,4811.338623,9918.759623,842.705048
535.106473,3404.947333,9474.636058,-306.438199
535.106794,3701.029710,9400.615463,-612.876398
535.107114,3330.926739,8956.491898,0.000000
535.107435,3552.988522,8882.471304,1302.362347
535.107756,4663.297435,7920.203579,1455.581446
535.108076,3552.988522,6439.791695,-1072.533697
535.108397,3108.864956,7698.141797,-1149.143247
535.108718,2368.659014,7772.162391,1455.581446
535.109038,3997.112087,6957.935855,1685.410096
535.109359,6513.812290,6957.935855,1378.971896
535.109680,5773.606348,8216.285956,0.000000
535.110001,4959.379811,9770.718434,-1225.752797
535.110321,5699.585753,9548.656652,-995.924147
535.110642,7105.977043,7846.182985,-1455.581446
535.110963,7031.956449,6587.832884,-1225.752797
535.111283,7031.956449,6513.812290,306.438199
535.111604,5847.626942,8438.347739,766.095498
535.111925,4737.318029,8586.388927,0.000000
535.112246,5329.482782,7772.162391,-1072.533697
535.112566,6439.791695,6587.832884,-1302.362347
535.112887,6217.729913,6143.709319,-383.047749
535.113208,5107.421000,6957.935855,1072.533697
535.113528,5329.482782,7105.977043,383.047749
535.113849,5107.421000,6809.894666,-1149.143247
535.114170,5255.462188,7624.121203,-689.485948
535.114490,5107.421000,7550.100608,842.705048
535.114811,4959.379811,8438.347739,842.705048
535.115132,6217.729913,9696.697840,306.438199
535.115453,5773.606348,9104.533087,-919.314598
535.115773,5699.585753,7550.100608,153.219100
535.116094,5921.647536,5921.647536,919.314598
535.116415,5625.565159,6883.915261,0.000000
535.116735,4737.318029,7550.100608,-459.657299
535.117056,4663.297435,8364.327145,-1072.533697
535.117377,5255.462188,7254.018232,-536.266849
535.117697,6365.771101,6809.894666,1225.752797
535.118018,6587.832884,7179.997637,1302.362347
535.118339,5625.565159,8438.347739,-612.876398
535.118660,4367.215058,8438.347739,-1685.410096
535.118980,5181.441594,9104.533087,-842.705048
535.119301,6735.874072,8882.471304,536.266849
535.119622,6365.771101,7402.059420,-689.485948
535.119942,5033.400406,7105.977043,-1378.971896
535.120263,5255.462188,8808.450710,-689.485948
535.120584,3627.009116,9474.636058,-383.047749
535.120904,4219.173869,7698.141797,-1149.143247
535.121225,6735.874072,6883.915261,-1608.800546
535.121546,5995.668130,7476.080014,-842.705048
535.121867,4885.359217,8660.409521,229.828649
535.122187,4737.318029,9178.553681,0.000000
535.122508,5403.503377,8808.450710,-1149.143247
535.122829,5625.565159,7772.162391,-383.047749
535.123149,5847.626942,8364.327145,306.438199
535.123470,3849.070898,8512.368333,459.657299
535.123791,2812.782580,9548.656652,0.000000
535.124111,4219.173869,9770.718434,383.047749
535.124432,5255.462188,8660.409521,-1149.143247
535.124753,5551.544565,7624.121203,766.095498
535.125074,4293.194464,7624.121203,459.657299
535.125394,3775.050304,8956.491898,-1072.533697
535.125715,2516.700203,8734.430116,-1302.362347
535.126036,3330.926739,8142.265362,0.000000
535.126356,5551.544565,7550.100608,1225.752797
535.126677,5403.503377,8290.306550,1838.629195
535.126998,3775.050304,10288.862594,-383.047749
535.127319,3775.050304,10510.924376,-2757.943793
535.127639,4145.153275,8882.471304,-2374.896044
535.127960,4811.338623,8364.327145,153.219100
535.128281,5329.482782,7624.121203,1072.533697
535.128601,5625.565159,8364.327145,0.000000
535.128922,3627.009116,8512.368333,-689.485948
535.129243,3775.050304,7550.100608,-459.657299
535.129563,5033.400406,6587.832884,153.219100
535.129884,5995.668130,6513.812290,306.438199
535.130205,5477.523971,6957.935855,-306.438199
535.130526,5773.606348,7179.997637,-766.095498
535.130846,5625.565159,6809.894666,-76.609550
535.131167,6587.832884,7105.977043,0.000000
535.131488,6291.750507,7994.224174,153.219100
535.131808,4737.318029,7920.203579,-536.266849
535.132129,5477.523971,7105.977043,-612.876398
535.132450,6069.688724,7994.224174,1072.533697
535.132770,6217.729913,7920.203579,1762.019645
535.133091,5551.544565,6513.812290,689.485948
535.133412,5181.441594,6143.709319,-1302.362347
535.133733,4737.318029,7846.182985,0.000000
535.134053,4885.359217,8068.244768,536.266849
535.134374,5995.668130,7550.100608,76.609550
535.134695,5625.565159,7105.977043,-689.485948
535.135015,3849.070898,7476.080014,-689.485948
535.135336,3552.988522,7698.141797,689.485948
535.135657,5181.441594,8734.430116,306.438199
535.135977,4589.276840,9252.574275,-306.438199
535.136298,5255.462188,8956.491898,-995.924147
535.136619,5403.503377,7105.977043,-1149.143247
535.136940,4737.318029,7031.956449,-383.047749
535.137260,5921.647536,8364.327145,1072.533697
535.137581,6143.709319,9474.636058,229.828649
535.137902,4071.132681,8290.306550,-2145.067394
535.138222,5477.523971,6513.812290,-995.924147
535.138543,6513.812290,6587.832884,1685.410096
535.138864,5921.647536,6957.935855,1072.533697
535.139184,6143.709319,7179.997637,-536.266849
535.139505,6365.771101,8734.430116,-1608.800546
535.139826,5773.606348,9400.615463,-1302.362347
535.140147,7179.997637,8438.347739,612.876398
535.140467,5995.668130,8512.368333,0.000000
535.140788,4145.153275,8438.347739,-1149.143247
535.141109,2812.782580,8882.471304,306.438199
535.141429,2886.803174,9104.533087,536.266849
535.141750,4959.379811,9992.780217,-306.438199
535.142071,3627.009116,9622.677246,-612.876398
535.142391,2368.659014,9474.636058,-2298.286494
535.142712,2886.803174,9326.594869,-919.314598
535.143033,2368.659014,9178.553681,1455.581446
535.143354,2960.823768,8068.244768,1608.800546
535.143674,4145.153275,6217.729913,1149.143247
535.143995,3923.091493,8586.388927,1149.143247
535.144316,2368.659014,10140.821405,612.876398
535.144636,3034.844362,9622.677246,-1225.752797
535.144957,6069.688724,7698.141797,-2528.115143
535.145278,5995.668130,7846.182985,-1455.581446
535.145598,5625.565159,7550.100608,306.438199
535.145919,6291.750507,7846.182985,76.609550
535.146240,5699.585753,7846.182985,-306.438199
535.146560,5329.482782,7994.224174,-1072.533697
535.146881,6069.688724,7624.121203,-153.219100
535.147202,6217.729913,7031.956449,0.000000
535.147523,5773.606348,7328.038826,459.657299
535.147843,6365.771101,7550.100608,76.609550
535.148164,6291.750507,7031.956449,-689.485948
535.148485,5181.441594,7179.997637,0.000000
535.148805,4441.235652,7254.018232,383.047749
535.149126,4737.318029,7994.224174,76.609550
535.149447,4589.276840,7994.224174,-306.438199
535.149767,4515.256246,7476.080014,229.828649
535.150088,4737.318029,7846.182985,766.095498
535.150409,4737.318029,6809.894666,536.266849
535.150729,4367.215058,7105.977043,-995.924147
535.151050,4811.338623,8586.388927,-1225.752797
535.151371,4589.276840,9104.533087,-536.266849
535.151691,5329.482782,8660.409521,-76.609550
535.152012,6365.771101,7920.203579,153.219100
535.152333,6217.729913,7105.977043,76.609550
535.152654,5107.421000,7105.977043,0.000000
535.152974,5181.441594,7920.203579,229.828649
535.153295,4811.338623,7550.100608,76.609550
535.153616,5551.544565,7846.182985,229.828649
535.153936,6957.935855,7179.997637,459.657299
535.154257,6957.935855,6513.812290,459.657299
535.154578,5625.565159,6513.812290,76.609550
535.154898,4959.379811,8142.265362,-536.266849
535.155219,4071.132681,8956.491898,-1991.848295
535.155540,4367.215058,7550.100608,-1302.362347
535.155860,6957.935855,7624.121203,919.314598
535.156181,6217.729913,9252.574275,1302.362347
535.156502,3478.967927,9770.718434,-383.047749
535.156822,2590.720797,10140.821405,-1532.190996
535.157143,2886.803174,9992.780217,-1072.533697
535.157464,3256.906145,9326.594869,766.095498
535.157785,3182.885551,8882.471304,1532.190996
535.158105,2738.761985,9326.594869,-306.438199
535.158426,1776.494261,10362.883188,-1685.410096
535.158747,1332.370696,9622.677246,306.438199
535.159067,3108.864956,8512.368333,1455.581446
535.159388,4885.359217,8290.306550,2068.457845
535.159709,3552.988522,8216.285956,766.095498
535.160029,3108.864956,8586.388927,-1378.971896
535.160350,3701.029710,8956.491898,-1685.410096
535.160671,4737.318029,8808.450710,-153.219100
535.160991,7105.977043,8142.265362,536.266849
535.161312,8290.306550,7772.162391,153.219100
535.161633,6069.688724,8512.368333,-1302.362347
535.161954,4663.297435,8512.368333,-1455.581446
535.162274,5255.462188,8142.265362,-459.657299
535.162595,7105.977043,7698.141797,0.000000
535.162916,7105.977043,7031.956449,995.924147
535.163236,7254.018232,6069.688724,0.000000
535.163557,5551.544565,6735.874072,-1302.362347
535.163878,4737.318029,7105.977043,-612.876398
535.164198,4959.379811,7550.100608,0.000000
535.164519,5033.400406,6735.874072,153.219100
535.164840,5477.523971,7550.100608,0.000000
535.165160,4959.379811,8808.450710,306.438199
535.165481,4367.215058,8882.471304,0.000000
535.165802,4367.215058,8808.450710,-536.266849
535.166122,4441.235652,8068.244768,-536.266849
535.166443,3775.050304,6365.771101,-306.438199
535.166764,4737.318029,6365.771101,383.047749
535.167085,5847.626942,6957.935855,306.438199
535.167405,5551.544565,7179.997637,-612.876398
535.167726,5403.503377,7624.121203,-612.876398
535.168047,5995.668130,8068.244768,-689.485948
535.168367,6069.688724,7994.224174,-689.485948
535.168688,6587.832884,7550.100608,76.609550
535.169009,6513.812290,7698.141797,536.266849
535.169329,5773.606348,7402.059420,0.000000
535.169650,5773.606348,7402.059420,0.000000
535.169971,6513.812290,8216.285956,-689.485948
535.170291,6217.729913,8660.409521,-766.095498
535.170612,5255.462188,8734.430116,0.000000
535.170933,4959.379811,7550.100608,995.924147
535.171253,4959.379811,6735.874072,766.095498
535.171574,5403.503377,6587.832884,1149.143247
535.171895,5181.441594,7402.059420,1072.533697
535.172216,4441.235652,7550.100608,-842.705048
535.172536,3627.009116,7105.977043,-153.219100
535.172857,4959.379811,9622.677246,0.000000
535.173178,4737.318029,9992.780217,-536.266849
535.173498,4367.215058,9400.615463,-1378.971896
535.173819,5255.462188,8956.491898,-842.705048
535.174140,3849.070898,8956.491898,-153.219100
535.174460,3182.885551,8216.285956,459.657299
535.174781,4071.132681,7920.203579,766.095498
535.175102,3701.029710,7698.141797,-306.438199
535.175422,4737.318029,8216.285956,-612.876398
535.175743,5107.421000,9178.553681,229.828649
535.176064,4219.173869,7698.141797,-1072.533697
535.176385,4663.297435,7105.977043,-842.705048
535.176705,5477.523971,7179.997637,459.657299
535.177026,5995.668130,8586.388927,0.000000
535.177347,5403.503377,9474.636058,0.000000
535.177667,4885.359217,9326.594869,-1838.629195
535.177988,5847.626942,9696.697840,-2145.067394
535.178309,5255.462188,8734.430116,919.314598
535.178629,4811.338623,7846.182985,995.924147
535.178950,5477.523971,7624.121203,76.609550
535.179271,3701.029710,7920.203579,0.000000
535.179591,3108.864956,7846.182985,-153.219100
535.179912,3478.967927,7920.203579,76.609550
535.180233,4663.297435,8142.265362,0.000000
535.180553,4737.318029,8290.306550,-153.219100
535.180874,4811.338623,8290.306550,306.438199
535.181195,4663.297435,9252.574275,536.266849
535.181516,3997.112087,8808.450710,383.047749
535.181836,4145.153275,7846.182985,-459.657299
535.182157,4145.153275,8512.368333,-1225.752797
535.182478,4367.215058,9400.615463,-919.314598
535.182798,4885.359217,8586.388927,-536.266849
535.183119,6143.709319,8586.388927,76.609550
535.183440,6217.729913,8586.388927,0.000000
535.183760,4663.297435,7328.038826,-536.266849
535.184081,4071.132681,5921.647536,-612.876398
535.184402,4885.359217,6439.791695,306.438199
535.184722,6661.853478,7994.224174,1532.190996
535.185043,5921.647536,8142.265362,536.266849
535.185364,5699.585753,8438.347739,-1072.533697
535.185684,5403.503377,8660.409521,-689.485948
535.186005,5551.544565,7920.203579,536.266849
535.186326,5255.462188,7179.997637,536.266849
535.186647,5477.523971,6661.853478,0.000000
535.186967,5181.441594,7105.977043,-229.828649
535.187288,4737.318029,7994.224174,76.609550
535.187609,5403.503377,8290.306550,-229.828649
535.187929,5181.441594,8512.368333,-383.047749
535.188250,5107.421000,8142.265362,-383.047749
535.188571,5329.482782,6809.894666,842.705048
535.188891,5329.482782,6587.832884,383.047749
535.189212,5255.462188,6513.812290,0.000000
535.189533,4885.359217,6143.709319,-689.485948
535.189853,5995.668130,7031.956449,-919.314598
535.190174,5921.647536,8808.450710,0.000000
535.190495,6365.771101,9326.594869,-306.438199
535.190815,6735.874072,7624.121203,-1455.581446
535.191136,6661.853478,7179.997637,-1915.238745
535.191457,4737.318029,7402.059420,-459.657299
535.191778,4145.153275,6143.709319,229.828649
535.192098,5847.626942,7624.121203,306.438199
535.192419,7031.956449,9104.533087,-229.828649
535.192740,4959.379811,9252.574275,-306.438199
535.193060,5107.421000,8734.430116,-612.876398
535.193381,5255.462188,8512.368333,-612.876398
535.193702,4663.297435,8290.306550,766.095498
535.194022,4071.132681,7179.997637,766.095498
535.194343,5181.441594,7179.997637,0.000000
535.194664,4367.215058,8068.244768,919.314598
535.194984,2886.803174,9178.553681,0.000000
535.195305,4071.132681,9548.656652,-842.705048
535.195626,4145.153275,10362.883188,-1378.971896
535.195947,4515.256246,9622.677246,0.000000
535.196267,4515.256246,7846.182985,1915.238745
535.196588,4515.256246,7179.997637,766.095498
535.196909,3478.967927,9326.594869,0.000000
535.197229,2368.659014,9252.574275,-842.705048
535.197550,3108.864956,9030.512492,-1378.971896
535.197871,6143.709319,9178.553681,-612.876398
535.198191,6513.812290,10066.800811,-383.047749
535.198512,5181.441594,8808.450710,-842.705048
535.198833,4663.297435,8290.306550,-1608.800546
535.199153,4367.215058,8216.285956,-842.705048
535.199474,4737.318029,8512.368333,76.609550
535.199795,5551.544565,8068.244768,76.609550
535.200115,6143.709319,7994.224174,-2068.457845
535.200436,5255.462188,8586.388927,-536.266849
535.200757,4367.215058,9030.512492,612.876398
535.201078,5181.441594,8216.285956,229.828649
535.201398,4811.338623,6957.935855,-306.438199
535.201719,4441.235652,6661.853478,-383.047749
535.202040,5403.503377,7402.059420,1072.533697
535.202360,4441.235652,7698.141797,1455.581446
535.202681,5107.421000,9326.594869,229.828649
535.203002,6291.750507,8586.388927,-995.924147
535.203322,4515.256246,7624.121203,-1225.752797
535.203643,4737.318029,6513.812290,306.438199
535.203964,5773.606348,6809.894666,1072.533697
535.204284,4959.379811,7254.018232,0.000000
535.204605,4885.359217,7772.162391,-1455.581446
535.204926,4959.379811,7476.080014,-2068.457845
535.205246,5551.544565,7254.018232,-76.609550
535.205567,6809.894666,8142.265362,536.266849
535.205888,5551.544565,7550.100608,383.047749
535.206209,4811.338623,6587.832884,-919.314598
535.206529,5773.606348,7105.977043,0.000000
535.206850,6587.832884,7105.977043,536.266849
535.207171,5551.544565,6661.853478,-536.266849
535.207491,6143.709319,7920.203579,-1685.410096
535.207812,6513.812290,8956.491898,-1302.362347
535.208133,4811.338623,7994.224174,-612.876398
535.208453,7698.141797,7402.059420,153.219100
535.208774,7031.956449,7179.997637,0.000000
535.209095,3552.988522,7105.977043,-766.095498
535.209415,4145.153275,7105.977043,306.438199
535.209736,4737.318029,8142.265362,1532.190996
535.210057,5255.462188,7550.100608,153.219100
535.210378,6291.750507,8512.368333,153.219100
535.210698,4515.256246,9326.594869,-612.876398
535.211019,2886.803174,8956.491898,-919.314598
535.211340,3775.050304,9030.512492,1532.190996
535.211660,4811.338623,7846.182985,919.314598
535.211981,5107.421000,8586.388927,-229.828649
535.212302,3330.926739,7846.182985,0.000000
535.212622,2664.741391,9252.574275,-1302.362347
535.212943,4589.276840,9992.780217,-1608.800546
535.213264,3552.988522,9474.636058,-459.657299
535.213584,4367.215058,7624.121203,-1149.143247
535.213905,4885.359217,7105.977043,-766.095498
535.214226,4367.215058,10066.800811,-306.438199
535.214546,4219.173869,11843.295072,-689.485948
535.214867,4589.276840,10288.862594,-2298.286494
535.215188,5329.482782,9770.718434,-1378.971896
535.215509,5625.565159,9548.656652,1455.581446
535.215829,5329.482782,9474.636058,1838.629195
535.216150,4811.338623,9326.594869,0.000000
535.216471,3552.988522,8586.388927,-1991.848295
535.216791,3182.885551,7624.121203,-459.657299
535.217112,3997.112087,8068.244768,459.657299
535.217433,4737.318029,7994.224174,919.314598
535.217753,4663.297435,8142.265362,1149.143247
535.218074,4589.276840,8956.491898,689.485948
535.218395,3552.988522,8216.285956,766.095498
535.218715,3182.885551,7402.059420,689.485948
535.219036,5033.400406,7550.100608,919.314598
535.219357,6217.729913,8290.306550,306.438199
535.219677,5255.462188,8290.306550,-383.047749
535.219998,5847.626942,7846.182985,-459.657299
535.220319,6513.812290,7254.018232,-919.314598
535.220640,5995.668130,6661.853478,-1455.581446
535.220960,4737.318029,5107.421000,-689.485948
535.221281,5773.606348,5033.400406,0.000000
535.221602,6513.812290,6957.935855,0.000000
535.221922,6291.750507,7105.977043,229.828649
535.222243,6809.894666,6735.874072,-1455.581446
535.222564,6587.832884,7550.100608,-1915.238745
535.222884,5773.606348,8808.450710,-306.438199
535.223205,6587.832884,8142.265362,536.266849
535.223526,6957.935855,7105.977043,0.000000
535.223846,6143.709319,6883.915261,-306.438199
535.224167,6069.688724,6735.874072,229.828649
535.224488,3701.029710,7105.977043,689.485948
535.224809,4293.194464,8290.306550,536.266849
535.225129,3923.091493,8142.265362,306.438199
535.225450,4959.379811,6513.812290,-153.219100
535.225771,6143.709319,5773.606348,1378.971896
535.226091,3256.906145,6735.874072,689.485948
535.226412,2886.803174,7846.182985,-459.657299
535.226733,4219.173869,9252.574275,0.000000
535.227053,4515.256246,8882.471304,0.000000
535.227374,6809.894666,9474.636058,1225.752797
535.227695,7254.018232,10140.821405,1072.533697
535.228015,3108.864956,9622.677246,-2145.067394
535.228336,2368.659014,8364.327145,-2911.162892
535.228657,4071.132681,7031.956449,-766.095498
535.228977,7105.977043,7698.141797,153.219100
535.229298,6365.771101,8216.285956,919.314598
535.229619,3775.050304,8364.327145,-1608.800546
535.229940,3775.050304,10510.924376,-2911.162892
535.230260,2960.823768,10881.027347,76.609550
535.230581,4737.318029,9770.718434,1685.410096
535.230902,7624.121203,7698.141797,1072.533697
535.231222,5107.421000,7179.997637,-766.095498
535.231543,2664.741391,8438.347739,-1149.143247
535.231864,2220.617826,10140.821405,-689.485948
535.232184,3330.926739,10436.903782,-1072.533697
535.232505,5033.400406,10066.800811,-536.266849
535.232826,6735.874072,9030.512492,306.438199
535.233146,3627.009116,8882.471304,153.219100
535.233467,2294.638420,9178.553681,689.485948
535.233788,1776.494261,8512.368333,1149.143247
535.234108,3182.885551,7846.182985,306.438199
535.234429,4737.318029,8142.265362,842.705048
535.234750,4885.359217,9844.739029,153.219100
535.235071,4589.276840,10658.965565,-1532.190996
535.235391,3404.947333,9622.677246,-1302.362347
535.235712,3552.988522,7624.121203,-153.219100
535.236033,4811.338623,6143.709319,383.047749
535.236353,5625.565159,5847.626942,1149.143247
535.236674,6217.729913,7105.977043,76.609550
535.236995,6439.791695,8586.388927,-1532.190996
535.237315,5847.626942,8882.471304,-1838.629195
535.237636,7031.956449,7698.141797,-1072.533697
535.237957,8586.388927,6291.750507,-306.438199
535.238277,8660.409521,5181.441594,0.000000
535.238598,6957.935855,5625.565159,0.000000
535.238919,4811.338623,5995.668130,0.000000
535.239240,4959.379811,6217.729913,-306.438199
535.239560,6513.812290,7476.080014,0.000000
535.239881,7031.956449,7698.141797,383.047749
535.240202,6587.832884,8142.265362,0.000000
535.240522,6069.688724,7254.018232,306.438199
535.240843,4589.276840,6883.915261,842.705048
535.241164,5107.421000,6291.750507,1072.533697
535.241484,4811.338623,5699.585753,766.095498
535.241805,4811.338623,6217.729913,0.000000
535.242126,4589.276840,7846.182985,459.657299
535.242446,5477.523971,9622.677246,766.095498
535.242767,4441.235652,9252.574275,306.438199
535.243088,5181.441594,7179.997637,-76.609550
535.243408,6513.812290,6957.935855,-766.095498
535.243729,3701.029710,7105.977043,-612.876398
535.244050,3775.050304,7476.080014,76.609550
535.244371,5033.400406,7994.224174,459.657299
535.244691,5847.626942,8882.471304,76.609550
535.245012,5699.585753,8660.409521,536.266849
535.245333,6143.709319,10066.800811,-383.047749
535.245653,5107.421000,10140.821405,-1762.019645
535.245974,4145.153275,8808.450710,-995.924147
535.246294,3775.050304,7031.956449,0.000000
535.246615,5625.565159,6587.832884,919.314598
535.246936,5107.421000,7846.182985,1149.143247
535.247256,3627.009116,8586.388927,-919.314598
535.247577,4293.194464,9992.780217,-2068.457845
535.247898,4293.194464,10436.903782,-229.828649
535.248218,4663.297435,8808.450710,1455.581446
535.248539,6439.791695,7920.203579,2604.724693
535.248860,5921.647536,7846.182985,1149.143247
535.249180,4737.318029,8808.450710,-536.266849
535.249501,4737.318029,7920.203579,0.000000
535.249822,5773.606348,6809.894666,-229.828649
535.250142,7624.121203,5699.585753,76.609550
535.250463,8734.430116,5625.565159,689.485948
535.250784,8364.327145,5107.421000,-919.314598
535.251104,7994.224174,5699.585753,-1302.362347
535.251425,9030.512492,5995.668130,-766.095498
535.251746,9696.697840,5995.668130,-459.657299
535.252066,10140.821405,6291.750507,-919.314598
535.252387,9696.697840,7031.956449,-1532.190996
535.252708,9992.780217,7328.038826,-1149.143247
535.253028,9918.759623,6883.915261,-1072.533697
535.253349,8734.430116,4959.379811,-1455.581446
535.253670,8882.471304,3923.091493,-1302.362347
535.253990,9030.512492,3330.926739,0.000000
535.254311,7402.059420,4219.173869,536.266849
535.254632,7550.100608,5255.462188,919.314598
535.254952,7772.162391,7105.977043,842.705048
535.255273,7698.141797,6291.750507,383.047749
535.255594,8660.409521,5403.503377,459.657299
535.255914,8956.491898,4293.194464,766.095498
535.256235,8734.430116,4885.359217,-306.438199
535.256556,7920.203579,5773.606348,536.266849
535.256876,8290.306550,5773.606348,536.266849
535.257197,9992.780217,5033.400406,-76.609550
535.257518,11621.233289,4663.297435,-383.047749
535.257838,11251.130318,5329.482782,-153.219100
535.258159,10362.883188,5033.400406,0.000000
535.258480,9918.759623,3108.864956,229.828649
535.258800,12213.398043,1850.514855,153.219100
535.259121,13175.665768,2442.679609,-153.219100
535.259442,12213.398043,4293.194464,-1072.533697
535.259762,12139.377449,6735.874072,-2451.505594
535.260083,11547.212695,6217.729913,-1915.238745
535.260404,11843.295072,4737.318029,-306.438199
535.260724,13175.665768,4219.173869,536.266849
535.261045,11103.089130,5181.441594,0.000000
535.261366,8512.368333,6735.874072,-766.095498
535.261686,6735.874072,6513.812290,-1149.143247
535.262007,7254.018232,4589.276840,-153.219100
535.262328,8956.491898,4145.153275,1378.971896
535.262648,7772.162391,5921.647536,1685.410096
535.262969,5995.668130,9104.533087,-612.876398
535.263290,4959.379811,9696.697840,-1149.143247
535.263610,5625.565159,7179.997637,306.438199
535.263931,7105.977043,4959.379811,2451.505594
535.264252,7402.059420,5329.482782,2911.162892
535.264572,5477.523971,7772.162391,1149.143247
535.264893,5033.400406,8882.471304,-383.047749
535.265213,7550.100608,6143.709319,-612.876398
535.265534,10510.924376,3330.926739,689.485948
535.265855,12361.439231,2812.782580,1378.971896
535.266175,11251.130318,4589.276840,-1455.581446
535.266496,10140.821405,6069.688724,-2987.772442
535.266817,12213.398043,6143.709319,-2374.896044
535.267137,14804.118840,4811.338623,766.095498
535.267458,14211.954086,2960.823768,1149.143247
535.267779,13397.727550,3701.029710,-995.924147
535.268099,10955.047942,6291.750507,-3064.381992
535.268420,9474.636058,6809.894666,-3524.039291
535.268741,9696.697840,4737.318029,-995.924147
535.269061,11177.109724,3182.885551,919.314598
535.269382,9104.533087,3404.947333,842.705048
535.269703,5773.606348,5033.400406,0.000000
535.270023,4367.215058,6661.853478,-1532.190996
535.270344,5255.462188,7328.038826,-1915.238745
535.270665,6291.750507,7994.224174,1072.533697
535.270985,6661.853478,8660.409521,2374.896044
535.271306,6069.688724,9770.718434,1685.410096
535.271627,3997.112087,9548.656652,842.705048
535.271947,2738.761985,7698.141797,153.219100
535.272268,3849.070898,4811.338623,995.924147
535.272589,6883.915261,3627.009116,2068.457845
535.272909,8364.327145,5403.503377,2451.505594
535.273230,8586.388927,7105.977043,1762.019645
535.273551,9178.553681,7624.121203,-229.828649
535.273871,10362.883188,4959.379811,-459.657299
535.274192,11473.192101,1776.494261,-229.828649
535.274513,14137.933492,814.226536,229.828649
535.274833,15396.283594,1924.535449,-842.705048
535.275154,15692.365970,3997.112087,-2451.505594
535.275475,15766.386565,6291.750507,-2451.505594
535.275795,14656.077652,6217.729913,-2451.505594
535.276116,14582.057057,4441.235652,-1149.143247
535.276437,14285.974681,3108.864956,0.000000
535.276757,11547.212695,2590.720797,-306.438199
535.277078,9400.615463,2072.576638,-995.924147
535.277399,8512.368333,2368.659014,-1149.143247
535.277719,8660.409521,3256.906145,-612.876398
535.278040,8882.471304,5477.523971,612.876398
535.278361,8438.347739,7698.141797,995.924147
535.278681,6957.935855,8956.491898,-536.266849
535.279002,5551.544565,7846.182985,-306.438199
535.279323,5107.421000,6587.832884,1302.362347
535.279643,5477.523971,5329.482782,2528.115143
535.279964,5329.482782,5477.523971,2221.676944
535.280285,5847.626942,6587.832884,842.705048
535.280605,6809.894666,7328.038826,-536.266849
535.280926,7031.956449,7254.018232,-383.047749
535.281247,8290.306550,6587.832884,766.095498
535.281567,9918.759623,5403.503377,1532.190996
535.281888,10214.842000,4885.359217,1149.143247
535.282209,10658.965565,3627.009116,0.000000
535.282529,11029.068536,3182.885551,-766.095498
535.282850,11399.171507,3478.967927,-766.095498
535.283170,11991.336260,3404.947333,-995.924147
535.283491,12805.562797,4367.215058,-1991.848295
535.283812,13323.706956,6365.771101,-2911.162892
535.284132,13027.624579,7772.162391,-3447.429741
535.284453,12065.356855,7179.997637,-1991.848295
535.284774,10510.924376,5551.544565,-383.047749
535.285094,9104.533087,5181.441594,612.876398
535.285415,8290.306550,5625.565159,459.657299
535.285736,7328.038826,6513.812290,-612.876398
535.286056,6957.935855,7105.977043,-1149.143247
535.286377,6957.935855,6365.771101,-842.705048
535.286698,7105.977043,5403.503377,153.219100
535.287018,6661.853478,4811.338623,1378.971896
535.287339,5921.647536,5403.503377,1838.629195
535.287660,6217.729913,6587.832884,1225.752797
535.287980,6883.915261,7402.059420,1072.533697
535.288301,7550.100608,7105.977043,1685.410096
535.288622,9030.512492,6291.750507,536.266849
535.288942,9400.615463,6883.915261,0.000000
535.289263,9178.553681,8068.244768,-766.095498
535.289584,9474.636058,8290.306550,-689.485948
535.289904,10214.842000,7254.018232,-766.095498
535.290225,10955.047942,4737.318029,383.047749
535.290546,10807.006753,3256.906145,995.924147
535.290866,9992.780217,2072.576638,1072.533697
535.291187,9992.780217,962.267725,612.876398
535.291508,11177.109724,888.247130,1072.533697
535.291828,12213.398043,962.267725,229.828649
535.292149,12361.439231,2072.576638,-1149.143247
535.292470,12139.377449,3404.947333,-2298.286494
535.292790,12805.562797,5255.462188,-2834.553343
535.293111,13249.686362,6439.791695,-3370.820191
535.293432,12583.501014,6661.853478,-2911.162892
535.293752,12361.439231,6217.729913,-2298.286494
535.294073,10955.047942,5921.647536,-1302.362347
535.294394,9326.594869,5921.647536,306.438199
535.294714,8142.265362,5181.441594,1455.581446
535.295035,7476.080014,4885.359217,1378.971896
535.295356,6883.915261,4663.297435,1225.752797
535.295676,6513.812290,4293.194464,1762.019645
535.295997,6513.812290,4219.173869,2145.067394
535.296318,6365.771101,4071.132681,1838.629195
535.296638,7031.956449,4367.215058,766.095498
535.296959,7550.100608,5847.626942,229.828649
535.297280,8734.430116,7402.059420,306.438199
535.297600,9474.636058,8512.368333,0.000000
535.297921,10510.924376,8808.450710,-229.828649
535.298242,10584.944971,7698.141797,306.438199
535.298562,10362.883188,6957.935855,153.219100
535.298883,10066.800811,5847.626942,76.609550
535.299204,9770.718434,4441.235652,0.000000
535.299524,10584.944971,3330.926739,0.000000
535.299845,10584.944971,2664.741391,0.000000
535.300166,10732.986159,2812.782580,-306.438199
535.300486,10658.965565,4737.318029,-536.266849
535.300807,10807.006753,6957.935855,-536.266849
535.301128,10362.883188,8438.347739,-229.828649
535.301448,9474.636058,8512.368333,689.485948
535.301769,7772.162391,8216.285956,689.485948
535.302089,6365.771101,8142.265362,536.266849
535.302410,4885.359217,8068.244768,0.000000
535.302731,4071.132681,7476.080014,-612.876398
535.303051,4145.153275,7179.997637,-995.924147
535.303372,4293.194464,7328.038826,-995.924147
535.303693,3997.112087,8142.265362,229.828649
535.304013,3182.885551,9844.739029,2068.457845
535.304334,3997.112087,10807.006753,3830.477490
535.304655,4959.379811,11029.068536,3753.867940
535.304975,5403.503377,9622.677246,4443.353888
535.305296,5329.482782,8290.306550,4366.744339
535.305617,4515.256246,7476.080014,3830.477490
535.305937,4515.256246,7402.059420,3830.477490
535.306258,5107.421000,7698.141797,3524.039291
535.306579,6587.832884,8364.327145,3370.820191
535.306899,7254.018232,9252.574275,3294.210641
535.307220,7105.977043,8734.430116,3370.820191
535.307541,7105.977043,7476.080014,4290.134789
535.307861,7105.977043,6735.874072,5056.230287
535.308182,7772.162391,6365.771101,4903.011187
535.308503,8142.265362,7179.997637,3983.696590
535.308823,7994.224174,7772.162391,3140.991542
535.309144,8216.285956,8364.327145,3907.087040
535.309465,8290.306550,8882.471304,5439.278036
535.309785,8290.306550,8956.491898,6435.202183
535.310106,7402.059420,7994.224174,7277.907231
535.310427,6735.874072,6957.935855,7201.297681
535.310747,6291.750507,6809.894666,7277.907231
535.311068,5403.503377,5847.626942,7354.516781
535.311389,5255.462188,5033.400406,7890.783629
535.311709,5625.565159,5921.647536,7660.954980
535.312030,5921.647536,7328.038826,7277.907231
535.312351,5551.544565,8290.306550,7201.297681
535.312671,4811.338623,8512.368333,7354.516781
535.312992,4737.318029,7920.203579,8197.221829
535.313313,4071.132681,7476.080014,8733.488677
535.313633,3627.009116,6513.812290,8580.269578
535.313954,3404.947333,6513.812290,8503.660028
535.314275,2590.720797,6439.791695,7354.516781
535.314595,2516.700203,6513.812290,6894.859482
535.314916,2072.576638,5921.647536,6358.592633
535.315237,2294.638420,5625.565159,6128.763984
535.315557,3182.885551,6291.750507,6588.421283
535.315878,3330.926739,6661.853478,7048.078582
535.316199,3404.947333,6513.812290,7124.688131
535.316519,3627.009116,6735.874072,6435.202183
535.316840,4219.173869,6957.935855,6281.983084
535.317161,3997.112087,7105.977043,5362.668486
535.317481,4071.132681,6661.853478,4826.401637
535.317802,4145.153275,6069.688724,3830.477490
535.318123,3849.070898,5255.462188,3677.258390
535.318443,3849.070898,4959.379811,3753.867940
535.318764,3701.029710,5107.421000,3064.381992
535.319085,3404.947333,5921.647536,1915.238745
535.319405,4811.338623,7105.977043,1991.848295
535.319726,5181.441594,8586.388927,2298.286494
535.320046,5773.606348,9918.759623,2987.772442
535.320367,6661.853478,10732.986159,3677.258390
535.320688,6661.853478,11547.212695,3677.258390
535.321008,5847.626942,11177.109724,5056.230287
535.321329,5403.503377,10214.842000,6588.421283
535.321650,4441.235652,9548.656652,6588.421283
535.321970,3923.091493,8956.491898,6358.592633
535.322291,2960.823768,7772.162391,6435.202183
535.322612,2220.617826,5625.565159,4673.182538
535.322932,2294.638420,3404.947333,2528.115143
535.323253,3330.926739,2516.700203,1378.971896
535.323574,4737.318029,4737.318029,153.219100
535.323894,6735.874072,9178.553681,-1378.971896
535.324215,8734.430116,13767.830521,-2528.115143
535.324536,10807.006753,17542.880825,-2987.772442
535.324856,11325.150913,18801.230927,-1149.143247
535.325177,11325.150913,17394.839637,2145.067394
535.325498,9474.636058,14063.912898,4290.134789
535.325818,7105.977043,9622.677246,5975.544884
535.326139,6735.874072,7698.141797,6741.640382
535.326460,3404.947333,6661.853478,6281.983084
535.326780,1998.556043,6735.874072,4979.620737
535.327101,1850.514855,6809.894666,4903.011187
535.327422,3478.967927,5403.503377,4366.744339
535.327742,3552.988522,4885.359217,4673.182538
535.328063,5773.606348,6661.853478,5515.887586
535.328384,5921.647536,10066.800811,4979.620737
535.328704,5847.626942,13397.727550,3677.258390
535.329025,5921.647536,14656.077652,3140.991542
535.329346,8734.430116,15100.201217,2834.553343
535.329666,9326.594869,14508.036463,3447.429741
535.329987,7031.956449,11103.089130,5209.449386
535.330308,4737.318029,7328.038826,6358.592633
535.330628,3108.864956,4737.318029,7277.907231
535.330949,962.267725,3330.926739,5975.544884
535.331270,2146.597232,3923.091493,5439.278036
535.331590,3627.009116,4811.338623,3983.696590
535.331911,2738.761985,5033.400406,4596.572988
535.332232,4367.215058,5255.462188,7048.078582
535.332552,6365.771101,7105.977043,9422.974625
535.332873,5329.482782,10807.006753,8656.879127
535.333194,2960.823768,12361.439231,5898.935335
535.333514,3404.947333,10955.047942,3447.429741
535.333835,4589.276840,7624.121203,3294.210641
535.334156,4071.132681,3997.112087,6052.154434
535.334476,5033.400406,4737.318029,9422.974625
535.334797,3330.926739,6735.874072,9269.755526
535.335118,-518.144159,8882.471304,6052.154434
535.335438,814.226536,7920.203579,4903.011187
535.335759,3404.947333,4811.338623,6128.763984
535.336080,2664.741391,2220.617826,7737.564530
535.336400,4219.173869,1258.350101,8733.488677
535.336721,6513.812290,5773.606348,8120.612279
535.337042,5255.462188,10732.986159,6281.983084
535.337362,3108.864956,10584.944971,4060.306139
535.337683,5033.400406,7846.182985,3524.039291
535.338004,5625.565159,6217.729913,5975.544884
535.338324,2812.782580,4959.379811,9269.755526
535.338645,4145.153275,5551.544565,10342.289223
535.338965,6735.874072,8882.471304,8886.707777
535.339286,2368.659014,11843.295072,5439.278036
535.339607,2442.679609,12509.480420,3677.258390
535.339927,5255.462188,10510.924376,3907.087040
535.340248,5255.462188,8142.265362,4519.963438
535.340569,3775.050304,5181.441594,6435.202183
535.340889,5699.585753,3997.112087,7201.297681
535.341210,5699.585753,5773.606348,6818.249932
535.341531,2442.679609,7031.956449,6358.592633
535.341851,2368.659014,6587.832884,3677.258390
535.342172,6735.874072,8734.430116,3140.991542
535.342493,4737.318029,11029.068536,5362.668486
535.342813,4885.359217,11695.253884,6588.421283
535.343134,8734.430116,11029.068536,4979.620737
535.343455,7179.997637,9548.656652,1762.019645
535.343775,3552.988522,7031.956449,0.000000
535.344096,4737.318029,5107.421000,1149.143247
535.344417,8068.244768,7328.038826,4290.134789
535.344737,5329.482782,9474.636058,7048.078582
535.345058,5255.462188,10658.965565,6281.983084
535.345378,7105.977043,11769.274478,3983.696590
535.345699,5033.400406,10362.883188,3370.820191
535.346020,4145.153275,8364.327145,4366.744339
535.346340,4737.318029,6661.853478,3217.601092
535.346661,4071.132681,6513.812290,2604.724693
535.346981,3849.070898,7772.162391,4060.306139
535.347302,5107.421000,10066.800811,3983.696590
535.347623,5033.400406,11547.212695,2374.896044
535.347943,4515.256246,12065.356855,1838.629195
535.348264,5329.482782,11769.274478,3830.477490
535.348585,6217.729913,10214.842000,5669.106685
535.348905,6439.791695,9696.697840,6128.763984
535.349226,5847.626942,9474.636058,4749.792088
535.349546,4737.318029,9474.636058,2604.724693
535.349867,3997.112087,8808.450710,3600.648841
535.350188,6291.750507,8142.265362,5898.935335
535.350508,7105.977043,7476.080014,7048.078582
535.350829,5033.400406,6661.853478,5286.058936
535.351149,2812.782580,6587.832884,3217.601092
535.351470,2886.803174,7031.956449,3600.648841
535.351791,4441.235652,7105.977043,4443.353888
535.352111,6143.709319,6809.894666,3830.477490
535.352432,5921.647536,7328.038826,2528.115143
535.352752,4737.318029,8512.368333,2911.162892
535.353073,3552.988522,10436.903782,4596.572988
535.353394,3627.009116,9622.677246,4749.792088
535.353714,3849.070898,7994.224174,3907.087040
535.354035,5329.482782,7772.162391,3294.210641
535.354355,5181.441594,7994.224174,3294.210641
535.354676,3775.050304,8216.285956,4443.353888
535.354997,2294.638420,6217.729913,4749.792088
535.355317,2220.617826,3627.009116,3983.696590
535.355638,2664.741391,2368.659014,4136.915689
535.355959,4663.297435,3552.988522,4136.915689
535.356279,5329.482782,6661.853478,2451.505594
535.356600,4589.276840,8586.388927,766.095498
535.356920,5255.462188,8808.450710,1149.143247
535.357241,6957.935855,7994.224174,2145.067394
535.357562,7920.203579,8216.285956,4213.525239
535.357882,7179.997637,9770.718434,4596.572988
535.358203,5329.482782,9326.594869,2068.457845
535.358523,2146.597232,6883.915261,0.000000
535.358844,3552.988522,4959.379811,2068.457845
535.359165,5403.503377,4293.194464,4749.792088
535.359485,5625.565159,5921.647536,4060.306139
535.359806,4071.132681,8142.265362,919.314598
535.360126,1036.288319,8068.244768,-459.657299
535.360447,2590.720797,5921.647536,995.924147
535.360768,5403.503377,5255.462188,3983.696590
535.361088,5625.565159,6957.935855,3217.601092
535.361409,4071.132681,9918.759623,229.828649
535.361729,3923.091493,11621.233289,-2374.896044
535.362050,4441.235652,10214.842000,-2221.676944
535.362371,6365.771101,8808.450710,0.000000
535.362691,7772.162391,10362.883188,536.266849
535.363012,6809.894666,12361.439231,-919.314598
535.363333,3182.885551,11399.171507,-1378.971896
535.363653,4145.153275,8734.430116,-612.876398
535.363974,6883.915261,7031.956449,842.705048
535.364294,5033.400406,7402.059420,2451.505594
535.364615,3330.926739,8956.491898,1838.629195
535.364936,4293.194464,10362.883188,-689.485948
535.365256,4737.318029,9770.718434,-1685.410096
535.365577,5477.523971,8290.306550,612.876398
535.365897,6587.832884,7846.182985,3140.991542
535.366218,5625.565159,9918.759623,2911.162892
535.366539,3404.947333,10807.006753,-459.657299
535.366859,3923.091493,9178.553681,-4213.525239
535.367180,6957.935855,8438.347739,-3294.210641
535.367500,7846.182985,8586.388927,1225.752797
535.367821,6291.750507,9178.553681,1991.848295
535.368142,5773.606348,8882.471304,-2451.505594
535.368462,5773.606348,8734.430116,-5286.058936
535.368783,6291.750507,8142.265362,-2604.724693
535.369103,8438.347739,8438.347739,1608.800546
535.369424,7772.162391,8438.347739,1991.848295
535.369745,4367.215058,7402.059420,-229.828649
535.370065,5181.441594,7105.977043,-1378.971896
535.370386,6883.915261,7476.080014,-306.438199
535.370706,4737.318029,7031.956449,1302.362347
535.371027,3923.091493,6217.729913,0.000000
535.371348,5847.626942,7328.038826,-2374.896044
535.371668,4663.297435,7624.121203,-1991.848295
535.371989,4219.173869,7179.997637,612.876398
535.372310,6365.771101,7920.203579,842.705048
535.372630,5403.503377,9104.533087,-919.314598
535.372951,2590.720797,8956.491898,-1302.362347
535.373271,4663.297435,7994.224174,-1225.752797
535.373592,5625.565159,7328.038826,-306.438199
535.373913,4515.256246,6661.853478,1302.362347
535.374233,4293.194464,6513.812290,612.876398
535.374554,5033.400406,7550.100608,-1915.238745
535.374874,4145.153275,9104.533087,-612.876398
535.375195,4589.276840,8438.347739,1532.190996
535.375516,7031.956449,6069.688724,1455.581446
535.375836,5255.462188,4885.359217,842.705048
535.376157,4071.132681,5403.503377,766.095498
535.376477,5625.565159,5995.668130,612.876398
535.376798,6143.709319,6143.709319,-1532.190996
535.377119,5921.647536,7402.059420,-2834.553343
535.377439,7031.956449,8808.450710,-3370.820191
535.377760,6513.812290,9622.677246,-2834.553343
535.378080,6365.771101,9178.553681,-1149.143247
535.378401,5921.647536,7624.121203,0.000000
535.378722,5773.606348,7550.100608,-1149.143247
535.379042,4737.318029,8808.450710,-1149.143247
535.379363,3256.906145,8660.409521,-459.657299
535.379684,3775.050304,7328.038826,-229.828649
535.380004,4441.235652,7698.141797,76.609550
535.380325,3923.091493,8068.244768,0.000000
535.380645,3256.906145,8290.306550,-459.657299
535.380966,3775.050304,8586.388927,0.000000
535.381287,3182.885551,9104.533087,766.095498
535.381607,2664.741391,8438.347739,306.438199
535.381928,4071.132681,8438.347739,0.000000
535.382248,5329.482782,9548.656652,612.876398
535.382569,3552.988522,9992.780217,383.047749
535.382890,4071.132681,8586.388927,-1838.629195
535.383210,4737.318029,7179.997637,-3294.210641
535.383531,5181.441594,7550.100608,-1991.848295
535.383851,6217.729913,9178.553681,0.000000
535.384172,6143.709319,8956.491898,-1225.752797
535.384493,5477.523971,7550.100608,-2681.334243
535.384813,7328.038826,8586.388927,-2145.067394
535.385134,7624.121203,9326.594869,0.000000
535.385454,6365.771101,8660.409521,0.000000
535.385775,6513.812290,7328.038826,-1685.410096
535.386096,7105.977043,7624.121203,-3140.991542
535.386416,6513.812290,8290.306550,-1762.019645
535.386737,6217.729913,7624.121203,995.924147
535.387058,7179.997637,7772.162391,229.828649
535.387378,6587.832884,7772.162391,-1532.190996
535.387699,4219.173869,6809.894666,-2834.553343
535.388019,5107.421000,6809.894666,-1532.190996
535.388340,6143.709319,7920.203579,612.876398
535.388661,5625.565159,8734.430116,1072.533697
535.388981,5477.523971,8290.306550,-1838.629195
535.389302,6069.688724,7846.182985,-3217.601092
535.389622,5329.482782,8068.244768,0.000000
535.389943,5403.503377,7624.121203,1991.848295
535.390264,5033.400406,6883.915261,-1149.143247
535.390584,3182.885551,7328.038826,-2757.943793
535.390905,4145.153275,7476.080014,-995.924147
535.391225,5625.565159,7105.977043,612.876398
535.391546,5477.523971,7105.977043,306.438199
535.391867,3775.050304,7328.038826,-1762.019645
535.392187,3997.112087,7550.100608,-2911.162892
535.392508,5033.400406,7254.018232,-2145.067394
535.392828,5625.565159,7994.224174,536.266849
535.393149,6069.688724,8216.285956,0.000000
535.393470,5107.421000,8290.306550,-2604.724693
535.393790,4219.173869,9622.677246,-2451.505594
535.394111,4367.215058,10436.903782,-383.047749
535.394432,5699.585753,9770.718434,76.609550
535.394752,6143.709319,7994.224174,-229.828649
535.395073,3404.947333,6513.812290,-1302.362347
535.395393,3478.967927,7105.977043,-536.266849
535.395714,3849.070898,8808.450710,0.000000
535.396035,3108.864956,7698.141797,-536.266849
535.396355,4071.132681,6439.791695,-1838.629195
535.396676,5773.606348,7254.018232,-1225.752797
535.396996,4293.194464,8808.450710,612.876398
535.397317,4293.194464,10288.862594,919.314598
535.397638,5995.668130,9548.656652,-536.266849
535.397958,4663.297435,8586.388927,-2068.457845
535.398279,4367.215058,8290.306550,-689.485948
535.398599,6143.709319,8734.430116,919.314598
535.398920,4885.359217,7994.224174,306.438199
535.399241,4145.153275,6439.791695,-1378.971896
535.399561,5477.523971,7328.038826,-2451.505594
535.399882,4737.318029,7179.997637,-2528.115143
535.400202,4589.276840,7031.956449,-1225.752797
535.400523,7476.080014,7179.997637,-766.095498
535.400844,5995.668130,7772.162391,-2451.505594
535.401164,4811.338623,8734.430116,-2451.505594
535.401485,6735.874072,9696.697840,-229.828649
535.401806,6661.853478,9474.636058,766.095498
535.402126,6069.688724,7698.141797,0.000000
535.402447,4811.338623,7179.997637,-2451.505594
535.402767,4145.153275,7772.162391,-3217.601092
535.403088,4293.194464,8290.306550,-383.047749
535.403409,6291.750507,8956.491898,1838.629195
535.403729,5625.565159,7476.080014,0.000000
535.404050,3034.844362,7105.977043,-1225.752797
535.404370,3182.885551,7179.997637,229.828649
535.404691,3849.070898,7179.997637,229.828649
535.405012,4589.276840,8068.244768,-612.876398
535.405332,5181.441594,8882.471304,-2221.676944
535.405653,6217.729913,9770.718434,-2834.553343
535.405973,6661.853478,10881.027347,153.219100
535.406294,6143.709319,11251.130318,2604.724693
535.406615,4885.359217,9474.636058,995.924147
535.406935,4515.256246,8512.368333,-1608.800546
535.407256,4589.276840,8660.409521,-383.047749
535.407576,4885.359217,7402.059420,1915.238745
535.407897,6883.915261,6957.935855,2298.286494
535.408218,6735.874072,7772.162391,383.047749
535.408538,4589.276840,8586.388927,-1378.971896
535.408859,3849.070898,8216.285956,-153.219100
535.409180,5625.565159,8512.368333,1838.629195
535.409500,6735.874072,7550.100608,2834.553343
535.409821,6217.729913,7179.997637,1608.800546
535.410141,5847.626942,8068.244768,-612.876398
535.410462,4663.297435,9770.718434,-612.876398
535.410783,4885.359217,9696.697840,612.876398
535.411103,5699.585753,7254.018232,76.609550
535.411424,5699.585753,5995.668130,0.000000
535.411744,4071.132681,5773.606348,1378.971896
535.412065,3182.885551,6883.915261,2221.676944
535.412386,3552.988522,6661.853478,536.266849
535.412706,3478.967927,6661.853478,-689.485948
535.413027,4293.194464,6883.915261,0.000000
535.413347,5107.421000,7328.038826,612.876398
535.413668,3923.091493,7994.224174,689.485948
535.413989,3404.947333,7105.977043,-76.609550
535.414309,3923.091493,6513.812290,-1762.019645
535.414630,3849.070898,6883.915261,-1072.533697
535.414950,3923.091493,7772.162391,153.219100
535.415271,4145.153275,8882.471304,153.219100
535.415592,4219.173869,8808.450710,-1225.752797
535.415912,4071.132681,8142.265362,-1072.533697
535.416233,4293.194464,7476.080014,459.657299
535.416553,4367.215058,7105.977043,1072.533697
535.416874,4441.235652,6217.729913,-919.314598
535.417195,4663.297435,6069.688724,-2757.943793
535.417515,4219.173869,5773.606348,-2911.162892
535.417836,4663.297435,6217.729913,-766.095498
535.418157,7105.977043,8734.430116,1149.143247
535.418477,7179.997637,9696.697840,0.000000
535.418798,6513.812290,10881.027347,-2451.505594
535.419118,7254.018232,11621.233289,-1991.848295
535.419439,6143.709319,10140.821405,-306.438199
535.419760,5995.668130,7846.182985,842.705048
535.420080,7031.956449,6513.812290,612.876398
535.420401,5403.503377,7105.977043,-1532.190996
535.420721,3701.029710,8438.347739,-766.095498
535.421042,5255.462188,9918.759623,0.000000
535.421363,5329.482782,9178.553681,-229.828649
535.421683,5181.441594,8364.327145,153.219100
535.422004,6217.729913,9992.780217,0.000000
535.422324,4441.235652,10362.883188,0.000000
535.422645,3627.009116,10140.821405,-612.876398
535.422966,6069.688724,10510.924376,-459.657299
535.423286,5329.482782,10807.006753,-919.314598
535.423607,3997.112087,10436.903782,0.000000
535.423927,5625.565159,11399.171507,1225.752797
535.424248,4441.235652,10807.006753,1302.362347
535.424569,1850.514855,7402.059420,842.705048
535.424889,3849.070898,6217.729913,0.000000
535.425210,4367.215058,8142.265362,0.000000
535.425531,2442.679609,8216.285956,1072.533697
535.425851,3627.009116,7179.997637,229.828649
535.426172,6365.771101,7624.121203,-995.924147
535.426492,4811.338623,9326.594869,0.000000
535.426813,4515.256246,9622.677246,1532.190996
535.427134,5995.668130,8956.491898,153.219100
535.427454,4811.338623,8068.244768,-612.876398
535.427775,5403.503377,8216.285956,1072.533697
535.428095,6439.791695,8216.285956,842.705048
535.428416,4515.256246,7328.038826,229.828649
535.428737,3182.885551,6735.874072,1302.362347
535.429057,5181.441594,5329.482782,1149.143247
535.429378,5847.626942,4737.318029,0.000000
535.429698,4441.235652,5255.462188,459.657299
535.430019,5551.544565,7402.059420,1225.752797
535.430340,5995.668130,8438.347739,383.047749
535.430660,5181.441594,7846.182985,1302.362347
535.430981,6735.874072,8808.450710,2374.896044
535.431301,7402.059420,9400.615463,2068.457845
535.431622,4367.215058,8290.306550,1685.410096
535.431943,2812.782580,6069.688724,689.485948
535.432263,3997.112087,4885.359217,0.000000
535.432584,3997.112087,5329.482782,1302.362347
535.432905,3256.906145,5847.626942,1302.362347
535.433225,2664.741391,5329.482782,306.438199
535.433546,3256.906145,6291.750507,306.438199
535.433866,4441.235652,7179.997637,1532.190996
535.434187,4737.318029,8216.285956,1149.143247
535.434508,5551.544565,9992.780217,0.000000
535.434828,5107.421000,10881.027347,0.000000
535.435149,4367.215058,8364.327145,229.828649
535.435469,6069.688724,7254.018232,76.609550
535.435790,4737.318029,7698.141797,995.924147
535.436111,2146.597232,7328.038826,0.000000
535.436431,2516.700203,7550.100608,-1225.752797
535.436752,4959.379811,8808.450710,-995.924147
535.437072,4811.338623,9400.615463,0.000000
535.437393,4959.379811,7772.162391,0.000000
535.437714,4589.276840,6957.935855,-1608.800546
535.438034,3775.050304,8216.285956,-1532.190996
535.438355,5477.523971,9918.759623,306.438199
535.438675,8364.327145,10732.986159,229.828649
535.438996,7698.141797,11177.109724,-76.609550
535.439317,6069.688724,10732.986159,1378.971896
535.439637,6291.750507,10510.924376,2298.286494
535.439958,6291.750507,8438.347739,2068.457845
535.440279,4589.276840,6661.853478,1149.143247
535.440599,4663.297435,4885.359217,-689.485948
535.440920,5403.503377,4663.297435,-2451.505594
535.441240,4145.153275,5921.647536,-1225.752797
535.441561,5477.523971,7624.121203,229.828649
535.441882,8882.471304,10510.924376,76.609550
535.442202,6069.688724,9992.780217,-2221.676944
535.442523,4071.132681,9548.656652,-3370.820191
535.442843,7179.997637,10288.862594,-1302.362347
535.443164,8068.244768,10881.027347,459.657299
535.443485,5403.503377,9696.697840,1302.362347
535.443805,4219.173869,8216.285956,-842.705048
535.444126,4145.153275,7994.224174,-2451.505594
535.444446,2590.720797,8068.244768,-306.438199
535.444767,3701.029710,7698.141797,842.705048
535.445088,4515.256246,6661.853478,-1072.533697
535.445408,3997.112087,6809.894666,-689.485948
535.445729,4219.173869,8142.265362,1225.752797
535.446049,4959.379811,8142.265362,2374.896044
535.446370,5255.462188,8808.450710,2528.115143
535.446691,4663.297435,8364.327145,842.705048
535.447011,4737.318029,8438.347739,-1302.362347
535.447332,5255.462188,7698.141797,-2145.067394
535.447653,6883.915261,8216.285956,229.828649
535.447973,7402.059420,9104.533087,1685.410096
535.448294,5181.441594,8660.409521,1072.533697
535.448615,3997.112087,8290.306550,0.000000
535.448935,3182.885551,7031.956449,-459.657299
535.449256,4219.173869,5181.441594,1225.752797
535.449577,5033.400406,3923.091493,2068.457845
535.449897,5773.606348,4959.379811,306.438199
535.450218,5033.400406,7550.100608,-1838.629195
535.450539,4663.297435,8438.347739,-2374.896044
535.450859,5699.585753,8734.430116,-1149.143247
535.451180,6587.832884,8142.265362,306.438199
535.451501,5551.544565,8882.471304,1455.581446
535.451821,4811.338623,8586.388927,995.924147
535.452142,4293.194464,9474.636058,229.828649
535.452463,4441.235652,8734.430116,306.438199
535.452783,3627.009116,7772.162391,383.047749
535.453104,3330.926739,6809.894666,0.000000
535.453425,2664.741391,6217.729913,76.609550
535.453745,2664.741391,6143.709319,995.924147
535.454066,3182.885551,5625.565159,842.705048
535.454387,3923.091493,6143.709319,153.219100
535.454707,4367.215058,7550.100608,689.485948
535.455028,4589.276840,9474.636058,766.095498
535.455349,4959.379811,10584.944971,0.000000
535.455670,4145.153275,10066.800811,-842.705048
535.455990,5477.523971,9918.759623,-306.438199
535.456311,6513.812290,9400.615463,1072.533697
535.456632,5551.544565,8364.327145,995.924147
535.456952,4367.215058,6661.853478,-689.485948
535.457273,4663.297435,6957.935855,-2451.505594
535.457594,5181.441594,7624.121203,-1762.019645
535.457914,5033.400406,7624.121203,0.000000
535.458235,6069.688724,6883.915261,995.924147
535.458556,6587.832884,7179.997637,-153.219100
535.458876,6439.791695,8364.327145,-1991.848295
535.459197,5995.668130,8956.491898,-2528.115143
535.459518,6365.771101,9548.656652,-2145.067394
535.459838,7031.956449,9326.594869,-766.095498
535.460159,7031.956449,8660.409521,76.609550
535.460480,6661.853478,8586.388927,-153.219100
535.460800,4959.379811,9548.656652,-229.828649
535.461121,4293.194464,9918.759623,-612.876398
535.461442,4071.132681,8142.265362,0.000000
535.461762,4293.194464,6587.832884,-689.485948
535.462083,4367.215058,5699.585753,-842.705048
535.462404,4071.132681,7179.997637,306.438199
535.462724,3478.967927,7920.203579,919.314598
535.463045,4589.276840,8364.327145,-1072.533697
535.463366,5255.462188,9104.533087,-2068.457845
535.463686,5403.503377,9474.636058,-1838.629195
535.464007,5551.544565,9622.677246,0.000000
535.464328,5773.606348,9104.533087,1302.362347
535.464648,4811.338623,8290.306550,0.000000
535.464969,4737.318029,7920.203579,-1302.362347
535.465290,4737.318029,8290.306550,-2145.067394
535.465610,3997.112087,7402.059420,-1302.362347
535.465931,5699.585753,7550.100608,0.000000
535.466252,5847.626942,8142.265362,-842.705048
535.466572,4959.379811,7698.141797,-1991.848295
535.466893,5033.400406,8216.285956,-766.095498
535.467214,6365.771101,9104.533087,383.047749
535.467534,5403.503377,7994.224174,1072.533697
535.467855,4663.297435,7994.224174,-689.485948
535.468176,5403.503377,8734.430116,-1762.019645
535.468496,4663.297435,8068.244768,-153.219100
535.468817,4811.338623,6513.812290,1455.581446
535.469138,5847.626942,6587.832884,-229.828649
535.469458,5329.482782,8142.265362,-842.705048
535.469779,4959.379811,8586.388927,153.219100
535.470100,5847.626942,8734.430116,842.705048
535.470420,5181.441594,7402.059420,1455.581446
535.470741,4663.297435,6513.812290,1149.143247
535.471062,5773.606348,5847.626942,0.000000
535.471382,5255.462188,6365.771101,-1915.238745
535.471703,4737.318029,7328.038826,-1915.238745
535.472024,5773.606348,7772.162391,-1378.971896
535.472344,7179.997637,8216.285956,-1762.019645
535.472665,5773.606348,8586.388927,-1532.190996
535.472986,4959.379811,9696.697840,229.828649
535.473306,5625.565159,8882.471304,1072.533697
535.473627,4737.318029,7105.977043,306.438199
535.473948,4293.194464,6439.791695,459.657299
535.474268,4589.276840,6439.791695,-76.609550
535.474589,4293.194464,6883.915261,-229.828649
535.474910,3701.029710,7920.203579,0.000000
535.475230,4367.215058,8438.347739,-1072.533697
535.475551,4663.297435,8142.265362,-1915.238745
535.475872,4737.318029,8882.471304,-383.047749
535.476192,4441.235652,9696.697840,1762.019645
535.476513,3849.070898,9030.512492,2451.505594
535.476834,4885.359217,9178.553681,1225.752797
535.477154,4293.194464,9326.594869,-766.095498
535.477475,3182.885551,8882.471304,-842.705048
535.477796,4663.297435,8660.409521,919.314598
535.478116,5181.441594,8068.244768,2145.067394
535.478437,4071.132681,6957.935855,0.000000
535.478758,4219.173869,6439.791695,-1838.629195
535.479078,4367.215058,6809.894666,-2221.676944
535.479399,4293.194464,7254.018232,-612.876398
535.479720,7105.977043,10214.842000,766.095498
535.480040,8882.471304,12361.439231,306.438199
535.480361,6957.935855,10881.027347,-1225.752797
535.480682,5477.523971,7550.100608,-306.438199
535.481002,6143.709319,6439.791695,1072.533697
535.481323,5107.421000,7031.956449,1225.752797
535.481644,5033.400406,7179.997637,-612.876398
535.481964,4959.379811,7105.977043,-2298.286494
535.482285,4515.256246,6513.812290,-1838.629195
535.482606,5403.503377,7550.100608,1991.848295
535.482926,5551.544565,7920.203579,1532.190996
535.483247,3627.009116,7920.203579,-612.876398
535.483568,3997.112087,7772.162391,-1455.581446
535.483888,4737.318029,7846.182985,-1455.581446
535.484209,5403.503377,7402.059420,-1302.362347
535.484530,6365.771101,8290.306550,689.485948
535.484850,6439.791695,10288.862594,306.438199
535.485171,3849.070898,9622.677246,-2374.896044
535.485492,2442.679609,8142.265362,-3064.381992
535.485813,4589.276840,7105.977043,-1915.238745
535.486133,4441.235652,5107.421000,0.000000
535.486454,3034.844362,4441.235652,689.485948
535.486775,3552.988522,5921.647536,-1838.629195
535.487095,4441.235652,9104.533087,-2145.067394
535.487416,5329.482782,10658.965565,-1302.362347
535.487737,7328.038826,10658.965565,-612.876398
535.488057,7105.977043,11029.068536,-766.095498
535.488378,4441.235652,9326.594869,-842.705048
535.488699,5921.647536,6735.874072,0.000000
535.489019,6957.935855,6365.771101,459.657299
535.489340,4737.318029,7920.203579,0.000000
535.489661,3552.988522,8586.388927,-842.705048
535.489981,4885.359217,9622.677246,-1225.752797
535.490302,4737.318029,9178.553681,-995.924147
535.490623,4737.318029,7624.121203,1072.533697
535.490943,6217.729913,6809.894666,842.705048
535.491264,3923.091493,6587.832884,-612.876398
535.491585,3404.947333,7994.224174,0.000000
535.491905,5403.503377,10214.842000,-153.219100
535.492226,5921.647536,11177.109724,-1532.190996
535.492547,6217.729913,11695.253884,0.000000
535.492867,6809.894666,11399.171507,1455.581446
535.493188,5847.626942,9992.780217,459.657299
535.493509,4071.132681,8512.368333,536.266849
535.493829,3701.029710,6069.688724,-459.657299
535.494150,3552.988522,5181.441594,-612.876398
535.494471,4737.318029,7031.956449,306.438199
535.494791,4071.132681,8068.244768,383.047749
535.495112,5329.482782,8734.430116,-383.047749
535.495433,6809.894666,9030.512492,842.705048
535.495753,4737.318029,8216.285956,995.924147
535.496074,4293.194464,6809.894666,-459.657299
535.496395,5847.626942,7031.956449,-842.705048
535.496715,5329.482782,8438.347739,0.000000
535.497036,4737.318029,7772.162391,1225.752797
535.497357,5995.668130,8734.430116,536.266849
535.497677,5625.565159,9104.533087,-536.266849
535.497998,3701.029710,7994.224174,-306.438199
535.498319,3775.050304,6069.688724,766.095498
535.498639,3627.009116,3552.988522,536.266849
535.498960,3256.906145,3552.988522,-153.219100
535.499281,3849.070898,5477.523971,-1072.533697
535.499601,4737.318029,7772.162391,-1455.581446
535.499922,4441.235652,8142.265362,-1532.190996
535.500243,6291.750507,8660.409521,-842.705048
535.500563,7254.018232,9178.553681,-919.314598
535.500884,6513.812290,8956.491898,-612.876398
535.501205,5551.544565,9178.553681,229.828649
535.501525,5847.626942,9400.615463,995.924147
535.501846,6513.812290,8216.285956,1149.143247
535.502167,5551.544565,7328.038826,-229.828649
535.502487,4441.235652,6217.729913,-1762.019645
535.502808,4145.153275,5107.421000,-1608.800546
535.503129,4737.318029,5699.585753,689.485948
535.503449,5625.565159,7402.059420,229.828649
535.503770,5329.482782,8734.430116,-766.095498
535.504091,5477.523971,10362.883188,-229.828649
535.504411,5255.462188,10881.027347,919.314598
535.504732,5033.400406,9696.697840,2145.067394
