#time,accel_x,accel_y,accel_z
196.965590,5033.400406,7772.162391,0.000000
196.965911,5181.441594,7994.224174,0.000000
196.966231,4959.379811,7920.203579,-153.219100
196.966552,5033.400406,7920.203579,0.000000
196.966873,4959.379811,8142.265362,-612.876398
196.967193,4885.359217,8216.285956,153.219100
196.967514,4811.338623,7920.203579,0.000000
196.967835,4811.338623,8068.244768,-229.828649
196.968156,4811.338623,7994.224174,0.000000
196.968476,4737.318029,8512.368333,-306.438199
196.968797,4959.379811,8142.265362,0.000000
196.969118,4959.379811,7994.224174,-306.438199
196.969438,5033.400406,8216.285956,-153.219100
196.969759,4959.379811,8364.327145,-153.219100
196.970080,4885.359217,8142.265362,153.219100
196.970401,4811.338623,7846.182985,76.609550
196.970721,5255.462188,7846.182985,0.000000
196.971042,4737.318029,8142.265362,0.000000
196.971363,4885.359217,8068.244768,-229.828649
196.971684,4885.359217,8216.285956,153.219100
196.972004,4959.379811,8142.265362,-383.047749
196.972325,5107.421000,7994.224174,0.000000
196.972646,4885.359217,7920.203579,-229.828649
196.972966,5033.400406,8290.306550,76.609550
196.973287,5181.441594,8068.244768,229.828649
196.973608,4959.379811,7994.224174,0.000000
196.973929,5181.441594,7994.224174,0.000000
196.974249,5107.421000,8142.265362,0.000000
196.974570,4885.359217,8216.285956,-153.219100
196.974891,4811.338623,8290.306550,-306.438199
196.975212,5033.400406,8142.265362,-306.438199
196.975532,5181.441594,7994.224174,0.000000
196.975853,5255.462188,8068.244768,-229.828649
196.976174,4811.338623,7624.121203,-229.828649
196.976494,4663.297435,7328.038826,-459.657299
196.976815,3997.112087,7846.182985,-76.609550
196.977136,4367.215058,8364.327145,-306.438199
196.977457,4441.235652,9474.636058,-766.095498
196.977777,4589.276840,10140.821405,-1149.143247
196.978098,4737.318029,9622.677246,-1072.533697
196.978419,4219.173869,9326.594869,-612.876398
196.978739,3627.009116,8586.388927,383.047749
196.979060,3108.864956,8882.471304,995.924147
196.979381,2738.761985,8956.491898,689.485948
196.979702,2294.638420,9770.718434,536.266849
196.980022,2516.700203,8364.327145,-383.047749
196.980343,3108.864956,8142.265362,-689.485948
196.980664,3108.864956,8956.491898,0.000000
196.980985,2960.823768,9400.615463,306.438199
196.981305,2516.700203,9252.574275,536.266849
196.981626,2368.659014,8808.450710,0.000000
196.981947,2516.700203,9474.636058,-229.828649
196.982267,2294.638420,10732.986159,-842.705048
196.982588,1924.535449,11843.295072,-842.705048
196.982909,1924.535449,11843.295072,-1532.190996
196.983230,888.247130,11621.233289,-1225.752797
196.983550,444.123565,11029.068536,-1149.143247
196.983871,-444.123565,11251.130318,-1302.362347
196.984192,-1258.350101,11917.315666,-153.219100
196.984513,-2072.576638,13101.645173,919.314598
196.984833,-1776.494261,12435.459826,1225.752797
196.985154,-1258.350101,11769.274478,1072.533697
196.985475,-1110.308913,12065.356855,1685.410096
196.985795,-1924.535449,12139.377449,1608.800546
196.986116,-2516.700203,11251.130318,1072.533697
196.986437,-1924.535449,10214.842000,-459.657299
196.986758,-1332.370696,9696.697840,-459.657299
196.987078,-962.267725,9918.759623,689.485948
196.987399,-444.123565,10510.924376,612.876398
196.987720,148.041188,11399.171507,-306.438199
196.988041,444.123565,11695.253884,-1455.581446
196.988361,1184.329507,11399.171507,-1532.190996
196.988682,1924.535449,10732.986159,-689.485948
196.989003,2590.720797,10584.944971,766.095498
196.989323,2812.782580,10584.944971,306.438199
196.989644,1776.494261,9548.656652,-1991.848295
196.989965,1776.494261,9400.615463,-2374.896044
196.990286,1850.514855,9622.677246,-1532.190996
196.990606,2072.576638,9992.780217,0.000000
196.990927,1850.514855,9770.718434,306.438199
196.991248,1332.370696,10436.903782,-459.657299
196.991568,888.247130,10658.965565,-383.047749
196.991889,0.000000,11029.068536,612.876398
196.992210,0.000000,10658.965565,995.924147
196.992531,0.000000,10214.842000,919.314598
196.992851,74.020594,10362.883188,1072.533697
196.993172,0.000000,10955.047942,842.705048
196.993493,-592.164754,11029.068536,766.095498
196.993814,0.000000,11103.089130,919.314598
196.994134,962.267725,10955.047942,995.924147
196.994455,1332.370696,10732.986159,536.266849
196.994776,1332.370696,10436.903782,-306.438199
196.995096,1554.432478,10362.883188,-919.314598
196.995417,2220.617826,9918.759623,-995.924147
196.995738,1480.411884,9474.636058,-995.924147
196.996059,1924.535449,8512.368333,-383.047749
196.996379,2442.679609,8882.471304,0.000000
196.996700,2442.679609,9696.697840,0.000000
196.997021,2368.659014,10807.006753,-306.438199
196.997342,2590.720797,11473.192101,-459.657299
196.997662,2960.823768,10881.027347,-1225.752797
196.997983,2812.782580,10214.842000,-919.314598
196.998304,2886.803174,9696.697840,-766.095498
196.998624,2442.679609,9918.759623,-612.876398
196.998945,1998.556043,10362.883188,-919.314598
196.999266,1036.288319,10658.965565,-383.047749
196.999587,1110.308913,10881.027347,0.000000
196.999907,740.205942,10732.986159,-766.095498
197.000228,0.000000,10510.924376,-1149.143247
197.000549,-444.123565,9918.759623,-1685.410096
197.000869,-1628.453072,9104.533087,-689.485948
197.001190,-1776.494261,9252.574275,459.657299
197.001511,-592.164754,10436.903782,1685.410096
197.001832,0.000000,12583.501014,1991.848295
197.002152,0.000000,12953.603985,1455.581446
197.002473,370.102971,13471.748144,919.314598
197.002794,1184.329507,13027.624579,0.000000
197.003115,1702.473667,10955.047942,-536.266849
197.003435,1776.494261,9548.656652,-459.657299
197.003756,814.226536,9178.553681,-995.924147
197.004077,-444.123565,9178.553681,-1762.019645
197.004397,-1480.411884,9474.636058,-2068.457845
197.004718,-1702.473667,9770.718434,-1991.848295
197.005039,-1184.329507,10807.006753,-842.705048
197.005360,740.205942,12361.439231,76.609550
197.005680,518.144159,13693.809927,0.000000
197.006001,444.123565,14211.954086,-536.266849
197.006322,370.102971,14211.954086,-306.438199
197.006643,592.164754,13619.789333,0.000000
197.006963,444.123565,11177.109724,-229.828649
197.007284,1554.432478,8216.285956,-612.876398
197.007605,1702.473667,7698.141797,-612.876398
197.007925,1110.308913,8586.388927,459.657299
197.008246,444.123565,10140.821405,1762.019645
197.008567,0.000000,10732.986159,1302.362347
197.008888,592.164754,10362.883188,766.095498
197.009208,518.144159,9252.574275,536.266849
197.009529,1480.411884,9104.533087,0.000000
197.009850,1850.514855,10436.903782,-459.657299
197.010170,962.267725,12287.418637,-1378.971896
197.010491,814.226536,13175.665768,-1991.848295
197.010812,1110.308913,12435.459826,-1915.238745
197.011133,1332.370696,12879.583391,-1685.410096
197.011453,814.226536,13027.624579,-306.438199
197.011774,148.041188,12657.521608,536.266849
197.012095,0.000000,11103.089130,612.876398
197.012416,296.082377,9770.718434,2145.067394
197.012736,-666.185348,8808.450710,1762.019645
197.013057,-1406.391290,8438.347739,1225.752797
197.013378,-2516.700203,8512.368333,459.657299
197.013698,-1480.411884,9104.533087,0.000000
197.014019,74.020594,9992.780217,153.219100
197.014340,1554.432478,11177.109724,153.219100
197.014661,2220.617826,12583.501014,76.609550
197.014981,2442.679609,13249.686362,-306.438199
197.015302,444.123565,10658.965565,-1378.971896
197.015623,962.267725,7624.121203,-2451.505594
197.015944,2738.761985,6217.729913,-306.438199
197.016264,4293.194464,8882.471304,2221.676944
197.016585,1628.453072,11621.233289,1149.143247
197.016906,740.205942,13027.624579,-2757.943793
197.017226,1998.556043,13175.665768,-4213.525239
197.017547,962.267725,10362.883188,-2604.724693
197.017868,296.082377,7105.977043,-1149.143247
197.018189,666.185348,6439.791695,0.000000
197.018509,0.000000,10066.800811,-459.657299
197.018830,-666.185348,14730.098246,536.266849
197.019151,-1702.473667,16062.468941,459.657299
197.019471,-1702.473667,14878.139434,-612.876398
197.019792,-1480.411884,13915.871710,-229.828649
197.020113,-2368.659014,11917.315666,1532.190996
197.020434,-1776.494261,10214.842000,1608.800546
197.020754,-1332.370696,9770.718434,1532.190996
197.021075,-1110.308913,10436.903782,1072.533697
197.021396,-962.267725,9992.780217,536.266849
197.021717,-296.082377,9696.697840,1149.143247
197.022037,444.123565,9918.759623,536.266849
197.022358,2220.617826,10658.965565,1072.533697
197.022679,3701.029710,11177.109724,995.924147
197.022999,5329.482782,11473.192101,-995.924147
197.023320,5329.482782,10955.047942,-1838.629195
197.023641,4589.276840,10140.821405,-2451.505594
197.023962,2960.823768,9474.636058,-3140.991542
197.024282,2072.576638,8216.285956,-2604.724693
197.024603,2516.700203,9030.512492,-383.047749
197.024924,3775.050304,10732.986159,1378.971896
197.025245,1628.453072,11917.315666,919.314598
197.025565,1184.329507,12953.603985,-1532.190996
197.025886,-370.102971,11029.068536,-2681.334243
197.026207,-2516.700203,9696.697840,-1072.533697
197.026527,-1480.411884,9696.697840,1685.410096
197.026848,-888.247130,9844.739029,1608.800546
197.027169,-444.123565,12287.418637,229.828649
197.027489,-1702.473667,13915.871710,-995.924147
197.027810,-4145.153275,13323.706956,-1149.143247
197.028131,-2960.823768,11991.336260,383.047749
197.028451,-1110.308913,10584.944971,2911.162892
197.028772,370.102971,11103.089130,3983.696590
197.029093,-444.123565,11325.150913,2374.896044
197.029413,-1702.473667,11103.089130,-306.438199
197.029734,-1184.329507,10214.842000,-689.485948
197.030055,888.247130,8586.388927,995.924147
197.030375,2590.720797,6217.729913,1915.238745
197.030696,3627.009116,6291.750507,689.485948
197.031017,3404.947333,9252.574275,-995.924147
197.031337,3552.988522,12361.439231,-1991.848295
197.031658,3552.988522,12583.501014,-2451.505594
197.031979,5403.503377,11325.150913,-2298.286494
197.032299,6217.729913,9252.574275,-1685.410096
197.032620,2738.761985,7624.121203,-1915.238745
197.032940,1258.350101,7550.100608,-2221.676944
197.033261,1480.411884,10066.800811,-1378.971896
197.033582,222.061783,12509.480420,-1225.752797
197.033902,740.205942,12139.377449,-1378.971896
197.034223,444.123565,10362.883188,-1149.143247
197.034544,-148.041188,9992.780217,536.266849
197.034864,-1554.432478,11621.233289,2528.115143
197.035185,-2368.659014,13027.624579,2757.943793
197.035506,-2960.823768,12509.480420,995.924147
197.035826,-2516.700203,11325.150913,612.876398
197.036147,-1036.288319,9992.780217,842.705048
197.036468,-740.205942,10510.924376,1072.533697
197.036788,-1554.432478,12509.480420,1455.581446
197.037109,-1924.535449,14063.912898,842.705048
197.037430,-1258.350101,12583.501014,-689.485948
197.037750,1776.494261,11029.068536,306.438199
197.038071,2072.576638,10362.883188,1378.971896
197.038392,1184.329507,10362.883188,459.657299
197.038712,1036.288319,9474.636058,-383.047749
197.039033,1702.473667,9400.615463,-919.314598
197.039354,3182.885551,8586.388927,-995.924147
197.039674,5625.565159,9548.656652,-306.438199
197.039995,4219.173869,10807.006753,-766.095498
197.040316,2516.700203,10732.986159,-2681.334243
197.040636,2294.638420,9252.574275,-2451.505594
197.040957,3923.091493,9252.574275,-995.924147
197.041278,3552.988522,9770.718434,-995.924147
197.041598,1702.473667,11399.171507,-2221.676944
197.041919,962.267725,13101.645173,-2604.724693
197.042240,-592.164754,13249.686362,-2374.896044
197.042560,-1776.494261,10214.842000,-1608.800546
197.042881,-1258.350101,7772.162391,1685.410096
197.043202,0.000000,11103.089130,4290.134789
197.043522,-3330.926739,14804.118840,2757.943793
197.043843,-4885.359217,15396.283594,-536.266849
197.044164,-1850.514855,13545.768739,-1685.410096
197.044484,-222.061783,12435.459826,1838.629195
197.044805,-1332.370696,11695.253884,5056.230287
197.045126,-2960.823768,10214.842000,4136.915689
197.045446,-4589.276840,10881.027347,1072.533697
197.045767,-2072.576638,11399.171507,2145.067394
197.046088,-740.205942,10584.944971,2374.896044
197.046408,1036.288319,7846.182985,0.000000
197.046729,2960.823768,8290.306550,-1608.800546
197.047050,3701.029710,11547.212695,-536.266849
197.047370,2886.803174,12287.418637,-153.219100
197.047691,4219.173869,9622.677246,0.000000
197.048012,5181.441594,6587.832884,-1608.800546
197.048332,5921.647536,6957.935855,-1608.800546
197.048653,4145.153275,7624.121203,-842.705048
197.048974,5477.523971,8956.491898,-1915.238745
197.049294,6365.771101,11251.130318,-2681.334243
197.049615,5403.503377,11177.109724,-2451.505594
197.049936,3108.864956,8512.368333,-1762.019645
197.050256,2368.659014,5921.647536,-1838.629195
197.050577,2812.782580,8216.285956,0.000000
197.050898,1850.514855,10510.924376,689.485948
197.051218,-1110.308913,9474.636058,-1149.143247
197.051539,296.082377,9400.615463,306.438199
197.051860,888.247130,11843.295072,3677.258390
197.052180,-296.082377,13101.645173,4060.306139
197.052501,-592.164754,11843.295072,229.828649
197.052822,666.185348,10066.800811,-153.219100
197.053142,-814.226536,9696.697840,1149.143247
197.053463,-370.102971,7550.100608,2604.724693
197.053784,2368.659014,6587.832884,1915.238745
197.054104,3034.844362,5921.647536,689.485948
197.054425,2960.823768,7328.038826,229.828649
197.054746,4071.132681,8586.388927,-1072.533697
197.055066,5551.544565,9030.512492,-3600.648841
197.055387,7254.018232,9548.656652,-2221.676944
197.055708,9326.594869,9918.759623,0.000000
197.056028,8808.450710,8142.265362,-1149.143247
197.056349,7550.100608,5847.626942,-3217.601092
197.056670,7179.997637,6957.935855,-4060.306139
197.056990,5255.462188,8660.409521,-3753.867940
197.057311,5107.421000,8734.430116,-1762.019645
197.057632,6513.812290,9770.718434,-2451.505594
197.057952,5773.606348,9548.656652,-3830.477490
197.058273,5403.503377,9030.512492,-2757.943793
197.058594,3256.906145,9178.553681,612.876398
197.058914,1702.473667,10140.821405,1991.848295
197.059235,1480.411884,9326.594869,3294.210641
197.059556,3552.988522,9474.636058,2145.067394
197.059876,3775.050304,8438.347739,-1378.971896
197.060197,2220.617826,9326.594869,383.047749
197.060517,3404.947333,10732.986159,2528.115143
197.060838,4367.215058,10955.047942,1378.971896
197.061159,2442.679609,7846.182985,76.609550
197.061479,5995.668130,6291.750507,842.705048
197.061800,4737.318029,6735.874072,2374.896044
197.062121,2812.782580,6809.894666,1149.143247
197.062441,4589.276840,6809.894666,-1532.190996
197.062762,7624.121203,6735.874072,-2757.943793
197.063083,9622.677246,7846.182985,-1072.533697
197.063403,8956.491898,9252.574275,0.000000
197.063724,7179.997637,7994.224174,-2911.162892
197.064045,6143.709319,7550.100608,-4826.401637
197.064365,5255.462188,7920.203579,-1762.019645
197.064686,6513.812290,8808.450710,383.047749
197.065007,6809.894666,7476.080014,383.047749
197.065327,7254.018232,8290.306550,-1149.143247
197.065648,4959.379811,10807.006753,-1149.143247
197.065969,1406.391290,10214.842000,-459.657299
197.066289,2516.700203,8068.244768,689.485948
197.066610,5181.441594,4367.215058,1608.800546
197.066931,5477.523971,2368.659014,1378.971896
197.067251,4293.194464,3997.112087,1838.629195
197.067572,2664.741391,6143.709319,1608.800546
197.067893,1850.514855,8216.285956,995.924147
197.068213,3775.050304,8660.409521,1302.362347
197.068534,7698.141797,7846.182985,1072.533697
197.068855,8734.430116,8290.306550,689.485948
197.069175,7550.100608,10288.862594,0.000000
197.069496,5847.626942,11029.068536,-2987.772442
197.069817,5403.503377,8290.306550,-2987.772442
197.070137,5625.565159,5181.441594,153.219100
197.070458,8734.430116,6069.688724,3294.210641
197.070779,6883.915261,7476.080014,2451.505594
197.071099,3034.844362,7550.100608,-842.705048
197.071420,2590.720797,7846.182985,-2298.286494
197.071741,4145.153275,6513.812290,76.609550
197.072061,4959.379811,4219.173869,3294.210641
197.072382,6883.915261,4663.297435,3064.381992
197.072703,4959.379811,7254.018232,-1378.971896
197.073023,3552.988522,11177.109724,-2911.162892
197.073344,3775.050304,11251.130318,-2451.505594
197.073665,4071.132681,8808.450710,-2221.676944
197.073985,7105.977043,8216.285956,76.609550
197.074306,7624.121203,9992.780217,2068.457845
197.074627,4293.194464,10436.903782,-689.485948
197.074947,1998.556043,9770.718434,-3217.601092
197.075268,3256.906145,9400.615463,-2298.286494
197.075589,3330.926739,6735.874072,0.000000
197.075909,4367.215058,6291.750507,3677.258390
197.076230,6217.729913,7031.956449,4136.915689
197.076551,3404.947333,7476.080014,766.095498
197.076871,3108.864956,8438.347739,-1149.143247
197.077192,3552.988522,7698.141797,-1762.019645
197.077513,4219.173869,7105.977043,-1302.362347
197.077833,6735.874072,6809.894666,2145.067394
197.078154,7476.080014,9252.574275,1225.752797
197.078475,6217.729913,10066.800811,-2528.115143
197.078795,4589.276840,9918.759623,-4673.182538
197.079116,4441.235652,9474.636058,-5209.449386
197.079437,5551.544565,7179.997637,-2221.676944
197.079757,6957.935855,7031.956449,76.609550
197.080078,6957.935855,7994.224174,536.266849
197.080399,5995.668130,10807.006753,0.000000
197.080719,4885.359217,11547.212695,-459.657299
197.081040,3775.050304,10066.800811,-1072.533697
197.081361,4515.256246,7698.141797,-1072.533697
197.081681,4811.338623,7179.997637,459.657299
197.082002,3108.864956,6661.853478,1762.019645
197.082323,3478.967927,6883.915261,2604.724693
197.082643,3478.967927,7846.182985,1838.629195
197.082964,2368.659014,8142.265362,-689.485948
197.083285,4663.297435,9548.656652,-1455.581446
197.083605,4293.194464,11251.130318,-766.095498
197.083926,5403.503377,10955.047942,0.000000
197.084247,8364.327145,9696.697840,842.705048
197.084567,7105.977043,8438.347739,-153.219100
197.084888,3997.112087,7328.038826,-1991.848295
197.085209,3997.112087,8956.491898,-1455.581446
197.085529,4367.215058,8216.285956,306.438199
197.085850,4885.359217,7624.121203,1532.190996
197.086171,6217.729913,7179.997637,3064.381992
197.086491,5847.626942,7179.997637,612.876398
197.086812,5255.462188,7550.100608,-689.485948
197.087133,5107.421000,5477.523971,-919.314598
197.087453,4293.194464,2812.782580,-995.924147
197.087774,3849.070898,962.267725,919.314598
197.088095,6883.915261,4663.297435,1762.019645
197.088415,7550.100608,7698.141797,459.657299
197.088736,7994.224174,9252.574275,-1149.143247
197.089056,9918.759623,9400.615463,-2528.115143
197.089377,8956.491898,7550.100608,-2834.553343
197.089698,8512.368333,5921.647536,-919.314598
197.090018,8882.471304,6069.688724,995.924147
197.090339,8068.244768,4737.318029,-689.485948
197.090660,6365.771101,5255.462188,-2374.896044
197.090980,5995.668130,6439.791695,-2911.162892
197.091301,4811.338623,7328.038826,-2145.067394
197.091622,4737.318029,7846.182985,2068.457845
197.091942,4219.173869,7105.977043,4060.306139
197.092263,3701.029710,6069.688724,2298.286494
197.092584,2812.782580,6291.750507,842.705048
197.092904,1776.494261,6957.935855,-766.095498
197.093225,1702.473667,8290.306550,-689.485948
197.093546,5625.565159,8956.491898,459.657299
197.093866,6143.709319,11103.089130,1149.143247
197.094187,5773.606348,11843.295072,0.000000
197.094508,4737.318029,12361.439231,-1225.752797
197.094828,3256.906145,10881.027347,-306.438199
197.095149,2368.659014,10066.800811,-919.314598
197.095470,4885.359217,8290.306550,-612.876398
197.095790,4441.235652,8068.244768,0.000000
197.096111,4367.215058,9252.574275,306.438199
197.096432,2664.741391,9622.677246,689.485948
197.096752,1702.473667,8808.450710,-842.705048
197.097073,3034.844362,8512.368333,-536.266849
197.097394,4071.132681,7920.203579,1915.238745
197.097714,4145.153275,8068.244768,1608.800546
197.098035,4737.318029,9252.574275,0.000000
197.098356,4589.276840,9770.718434,-1762.019645
197.098676,3478.967927,10288.862594,-3064.381992
197.098997,5773.606348,10066.800811,-1608.800546
197.099318,6143.709319,10140.821405,-842.705048
197.099638,3997.112087,9548.656652,-1225.752797
197.099959,4145.153275,9474.636058,-612.876398
197.100280,3404.947333,9104.533087,536.266849
197.100600,3034.844362,8290.306550,383.047749
197.100921,3849.070898,7105.977043,-153.219100
197.101242,4293.194464,5403.503377,-2145.067394
197.101562,4737.318029,4885.359217,-459.657299
197.101883,4589.276840,7550.100608,2834.553343
197.102204,4737.318029,8142.265362,2451.505594
197.102524,5477.523971,7179.997637,-536.266849
197.102845,7179.997637,5551.544565,-1532.190996
197.103166,7772.162391,5847.626942,-1302.362347
197.103486,7920.203579,6513.812290,0.000000
197.103807,7105.977043,7254.018232,-383.047749
197.104128,7328.038826,8290.306550,-1455.581446
197.104448,7402.059420,8364.327145,-2298.286494
197.104769,8068.244768,7402.059420,-1762.019645
197.105090,6587.832884,6365.771101,-2681.334243
197.105410,5773.606348,6513.812290,-2757.943793
197.105731,6365.771101,7846.182985,-536.266849
197.106052,4663.297435,7105.977043,1302.362347
197.106372,5477.523971,7698.141797,1608.800546
197.106693,6439.791695,8216.285956,1378.971896
197.107014,4589.276840,6587.832884,-229.828649
197.107334,2738.761985,5033.400406,459.657299
197.107655,4441.235652,4515.256246,1991.848295
197.107976,6143.709319,7920.203579,2604.724693
197.108296,7328.038826,9252.574275,1608.800546
197.108617,7550.100608,9844.739029,-689.485948
197.108938,6809.894666,9178.553681,-1915.238745
197.109258,5255.462188,8216.285956,-2068.457845
197.109579,6291.750507,7772.162391,-1838.629195
197.109900,6957.935855,8068.244768,-306.438199
197.110220,5847.626942,7698.141797,-229.828649
197.110541,6217.729913,9844.739029,-459.657299
197.110862,4367.215058,10955.047942,-1225.752797
197.111182,2442.679609,9178.553681,-2451.505594
197.111503,2812.782580,6957.935855,153.219100
197.111824,4367.215058,7105.977043,2604.724693
197.112144,4515.256246,7402.059420,3907.087040
197.112465,3849.070898,7402.059420,2757.943793
197.112786,3404.947333,7994.224174,-383.047749
197.113106,3256.906145,8882.471304,-153.219100
197.113427,4367.215058,7994.224174,842.705048
197.113748,4737.318029,6809.894666,-76.609550
197.114068,5699.585753,7328.038826,-1149.143247
197.114389,5699.585753,10658.965565,-536.266849
197.114710,4367.215058,11103.089130,-995.924147
197.115030,2220.617826,8956.491898,-3064.381992
197.115351,2368.659014,7105.977043,-3370.820191
197.115672,3034.844362,7772.162391,-1378.971896
197.115992,2294.638420,9474.636058,995.924147
197.116313,2294.638420,10881.027347,1762.019645
197.116633,3404.947333,10584.944971,612.876398
197.116954,3330.926739,10658.965565,-536.266849
197.117275,2590.720797,9918.759623,-383.047749
197.117595,3034.844362,9474.636058,1455.581446
197.117916,3256.906145,8882.471304,1608.800546
197.118237,3108.864956,8512.368333,1991.848295
197.118557,3849.070898,7105.977043,1532.190996
197.118878,4589.276840,6661.853478,153.219100
197.119199,5625.565159,9178.553681,459.657299
197.119519,3256.906145,8290.306550,-1225.752797
197.119840,2886.803174,4367.215058,-1838.629195
197.120161,5847.626942,4441.235652,459.657299
197.120481,7031.956449,6735.874072,1915.238745
197.120802,5699.585753,7550.100608,306.438199
197.121123,8364.327145,6809.894666,-3294.210641
197.121443,9326.594869,9178.553681,-3217.601092
197.121764,8882.471304,10584.944971,-536.266849
197.122085,8956.491898,7846.182985,153.219100
197.122405,10140.821405,6365.771101,-153.219100
197.122726,8512.368333,5551.544565,0.000000
197.123047,6957.935855,6957.935855,76.609550
197.123367,6069.688724,5181.441594,-1991.848295
197.123688,4885.359217,5921.647536,-3294.210641
197.124009,5921.647536,7105.977043,919.314598
197.124329,3701.029710,6957.935855,3140.991542
197.124650,2516.700203,5403.503377,2374.896044
197.124971,3256.906145,5181.441594,689.485948
197.125291,3997.112087,9178.553681,0.000000
197.125612,3478.967927,11621.233289,-536.266849
197.125932,3997.112087,10955.047942,-1149.143247
197.126253,5773.606348,9548.656652,-459.657299
197.126573,5107.421000,8660.409521,1072.533697
197.126894,3627.009116,8586.388927,1838.629195
197.127214,3034.844362,8660.409521,-995.924147
197.127535,4367.215058,8660.409521,-2451.505594
197.127855,4811.338623,7772.162391,-1378.971896
197.128176,5921.647536,6883.915261,76.609550
197.128497,5847.626942,7254.018232,1838.629195
197.128817,5329.482782,7328.038826,1532.190996
197.129138,3404.947333,6439.791695,-612.876398
197.129458,6291.750507,6217.729913,-2757.943793
197.129779,7105.977043,8068.244768,-2451.505594
197.130099,7031.956449,10881.027347,-1455.581446
197.130420,7105.977043,11547.212695,-1302.362347
197.130740,6069.688724,10807.006753,-1455.581446
197.131061,4663.297435,9622.677246,-766.095498
197.131381,4441.235652,8512.368333,0.000000
197.131702,4219.173869,9178.553681,-536.266849
197.132022,2590.720797,8956.491898,-2528.115143
197.132343,1258.350101,7920.203579,-766.095498
197.132663,3034.844362,7105.977043,2604.724693
197.132984,3923.091493,7105.977043,3140.991542
197.133304,518.144159,7402.059420,1455.581446
197.133625,1628.453072,8882.471304,-766.095498
197.133946,3034.844362,8956.491898,-306.438199
197.134266,3997.112087,10510.924376,842.705048
197.134587,6883.915261,11251.130318,1685.410096
197.134907,6661.853478,10584.944971,459.657299
197.135228,2590.720797,8290.306550,-1532.190996
197.135548,4737.318029,10140.821405,-229.828649
197.135869,5477.523971,9400.615463,919.314598
197.136189,3330.926739,7105.977043,-1762.019645
197.136510,6883.915261,8512.368333,-1225.752797
197.136830,6513.812290,9400.615463,536.266849
197.137151,3034.844362,7105.977043,1455.581446
197.137471,3923.091493,3256.906145,1915.238745
197.137792,6069.688724,3330.926739,-306.438199
197.138112,5773.606348,4959.379811,689.485948
197.138433,6661.853478,8216.285956,1378.971896
197.138753,8142.265362,8438.347739,-1225.752797
197.139074,7624.121203,7328.038826,-2604.724693
197.139394,7698.141797,7105.977043,0.000000
197.139715,7624.121203,8068.244768,1685.410096
197.140036,6069.688724,7179.997637,0.000000
197.140356,5551.544565,7846.182985,-1915.238745
197.140677,6809.894666,9400.615463,-2911.162892
197.140997,5773.606348,8586.388927,-1225.752797
197.141318,3701.029710,5847.626942,1455.581446
197.141638,3627.009116,4441.235652,1915.238745
197.141959,3701.029710,4589.276840,383.047749
197.142279,3923.091493,5995.668130,459.657299
197.142600,3108.864956,7179.997637,229.828649
197.142920,4367.215058,9474.636058,229.828649
197.143241,6217.729913,11103.089130,766.095498
197.143561,5625.565159,10955.047942,1685.410096
197.143882,4219.173869,8660.409521,1149.143247
197.144202,5107.421000,7994.224174,1072.533697
197.144523,3923.091493,7105.977043,0.000000
197.144843,2738.761985,6365.771101,-2145.067394
197.145164,4663.297435,7402.059420,-1302.362347
197.145485,5181.441594,9696.697840,229.828649
197.145805,3775.050304,11547.212695,-229.828649
197.146126,2294.638420,8142.265362,-612.876398
197.146446,4293.194464,4737.318029,-842.705048
197.146767,5329.482782,5107.421000,1378.971896
197.147087,4071.132681,8142.265362,536.266849
197.147408,4515.256246,9918.759623,-2911.162892
197.147728,6439.791695,10732.986159,-3983.696590
197.148049,5107.421000,8808.450710,-1532.190996
197.148369,6957.935855,8882.471304,1915.238745
197.148690,6883.915261,8438.347739,1685.410096
197.149010,2886.803174,9918.759623,-2834.553343
197.149331,6069.688724,11399.171507,-4366.744339
197.149651,6957.935855,10658.965565,-2221.676944
197.149972,5847.626942,7772.162391,383.047749
197.150292,5403.503377,5551.544565,1608.800546
197.150613,4071.132681,6143.709319,1838.629195
197.150933,1480.411884,8068.244768,-306.438199
197.151254,3478.967927,8512.368333,0.000000
197.151575,5107.421000,8512.368333,-306.438199
197.151895,4737.318029,7920.203579,-1149.143247
197.152216,4959.379811,9992.780217,1455.581446
197.152536,3108.864956,11029.068536,1991.848295
197.152857,2146.597232,10362.883188,-612.876398
197.153177,5773.606348,9770.718434,-1225.752797
197.153498,5403.503377,9622.677246,-3064.381992
197.153818,3182.885551,9030.512492,-2298.286494
197.154139,3997.112087,9548.656652,1762.019645
197.154459,6217.729913,11103.089130,2987.772442
197.154780,6069.688724,9252.574275,2374.896044
197.155100,5329.482782,6513.812290,689.485948
197.155421,4885.359217,5033.400406,-536.266849
197.155741,4219.173869,3701.029710,-459.657299
197.156062,5181.441594,3552.988522,76.609550
197.156382,7328.038826,4737.318029,842.705048
197.156703,8216.285956,6365.771101,995.924147
197.157024,8216.285956,9030.512492,766.095498
197.157344,6809.894666,7105.977043,-919.314598
197.157665,6365.771101,6735.874072,-2681.334243
197.157985,8586.388927,7328.038826,-1302.362347
197.158306,6513.812290,8586.388927,-842.705048
197.158626,7698.141797,8586.388927,-766.095498
197.158947,7624.121203,8512.368333,-1838.629195
197.159267,7031.956449,8512.368333,-1455.581446
197.159588,4293.194464,7031.956449,153.219100
197.159908,3627.009116,6809.894666,1072.533697
197.160229,3997.112087,6069.688724,1072.533697
197.160549,1850.514855,3404.947333,1455.581446
197.160870,4071.132681,3997.112087,3294.210641
197.161190,6513.812290,7772.162391,3064.381992
197.161511,740.205942,9104.533087,-383.047749
197.161831,740.205942,9918.759623,-3447.429741
197.162152,4663.297435,10658.965565,-2528.115143
197.162472,4367.215058,10584.944971,919.314598
197.162793,4737.318029,9770.718434,4060.306139
197.163114,3701.029710,7994.224174,76.609550
197.163434,2072.576638,7698.141797,-4213.525239
197.163755,1850.514855,8882.471304,-1915.238745
197.164075,4071.132681,8142.265362,229.828649
197.164396,6291.750507,6587.832884,-536.266849
197.164716,6513.812290,7550.100608,306.438199
197.165037,6217.729913,7105.977043,1072.533697
197.165357,6365.771101,6143.709319,-689.485948
197.165678,8068.244768,5773.606348,-76.609550
197.165998,6809.894666,7105.977043,-1149.143247
197.166319,6513.812290,8586.388927,0.000000
197.166639,7105.977043,9548.656652,536.266849
197.166960,5995.668130,10066.800811,-919.314598
197.167280,5477.523971,8808.450710,-2528.115143
197.167601,6143.709319,9770.718434,-2604.724693
197.167921,4145.153275,10584.944971,-2374.896044
197.168242,1406.391290,9474.636058,-2374.896044
197.168562,3108.864956,8882.471304,0.000000
197.168883,4071.132681,8364.327145,76.609550
197.169204,888.247130,8512.368333,459.657299
197.169524,1110.308913,9992.780217,919.314598
197.169845,3627.009116,11103.089130,689.485948
197.170165,4515.256246,11547.212695,689.485948
197.170486,5181.441594,9844.739029,2528.115143
197.170806,4663.297435,7402.059420,1991.848295
197.171127,5477.523971,7920.203579,1149.143247
197.171447,3627.009116,7105.977043,229.828649
197.171768,4737.318029,5551.544565,-2221.676944
197.172088,9474.636058,6513.812290,-1225.752797
197.172409,7772.162391,8956.491898,-919.314598
197.172729,5255.462188,8808.450710,-2068.457845
197.173050,5477.523971,7698.141797,-2451.505594
197.173370,5847.626942,5551.544565,-2221.676944
197.173691,8142.265362,5403.503377,1149.143247
197.174011,9030.512492,7105.977043,919.314598
197.174332,6883.915261,7920.203579,-3217.601092
197.174653,5847.626942,9178.553681,-3830.477490
197.174973,6143.709319,8068.244768,-229.828649
197.175294,7105.977043,6957.935855,2221.676944
197.175614,7105.977043,5255.462188,1838.629195
197.175935,5329.482782,5255.462188,-536.266849
197.176255,3775.050304,6217.729913,-2911.162892
197.176576,3034.844362,6809.894666,-995.924147
197.176896,4367.215058,6365.771101,76.609550
197.177217,3627.009116,5625.565159,-536.266849
197.177537,5255.462188,7550.100608,612.876398
197.177858,3404.947333,8956.491898,1149.143247
197.178178,3552.988522,9696.697840,1378.971896
197.178499,6217.729913,9548.656652,842.705048
197.178819,4959.379811,8512.368333,-1225.752797
197.179140,4589.276840,7624.121203,-536.266849
197.179460,5921.647536,8142.265362,383.047749
197.179781,4737.318029,7105.977043,229.828649
197.180101,6069.688724,7772.162391,536.266849
197.180422,5921.647536,9178.553681,766.095498
197.180743,4959.379811,8438.347739,76.609550
197.181063,3478.967927,6587.832884,-229.828649
197.181384,6217.729913,6883.915261,0.000000
197.181704,5403.503377,8808.450710,-536.266849
197.182025,4071.132681,9844.739029,-383.047749
197.182345,5403.503377,9844.739029,-383.047749
197.182666,5403.503377,8808.450710,-1532.190996
197.182986,4663.297435,7624.121203,76.609550
197.183307,3775.050304,7105.977043,919.314598
197.183627,3256.906145,9030.512492,-383.047749
197.183948,2960.823768,11325.150913,-229.828649
197.184268,2960.823768,10584.944971,-306.438199
197.184589,6735.874072,7994.224174,-153.219100
197.184909,5107.421000,7476.080014,153.219100
197.185230,2220.617826,8438.347739,-76.609550
197.185550,2368.659014,8882.471304,76.609550
197.185871,3775.050304,7105.977043,689.485948
197.186192,7254.018232,8364.327145,995.924147
197.186512,8956.491898,9326.594869,1225.752797
197.186833,3330.926739,7994.224174,-1838.629195
197.187153,1924.535449,6439.791695,-3064.381992
197.187474,3701.029710,7846.182985,76.609550
197.187794,7105.977043,8290.306550,2834.553343
197.188115,7698.141797,7179.997637,2145.067394
197.188435,6513.812290,8512.368333,-1685.410096
197.188756,2886.803174,10288.862594,-2834.553343
197.189076,1850.514855,9548.656652,-995.924147
197.189397,3404.947333,5921.647536,842.705048
197.189717,5699.585753,3849.070898,153.219100
197.190038,6291.750507,5551.544565,306.438199
197.190358,3256.906145,8216.285956,-766.095498
197.190679,1850.514855,9770.718434,-3140.991542
197.190999,4219.173869,10881.027347,-919.314598
197.191320,4959.379811,10066.800811,1762.019645
197.191640,6957.935855,8660.409521,2068.457845
197.191961,8142.265362,9474.636058,1072.533697
197.192282,3404.947333,6513.812290,-2757.943793
197.192602,2516.700203,3849.070898,-2681.334243
197.192923,6587.832884,5107.421000,-153.219100
197.193243,7550.100608,5403.503377,1378.971896
197.193564,7698.141797,6735.874072,1072.533697
197.193884,7772.162391,7402.059420,-1378.971896
197.194205,7179.997637,9622.677246,-2145.067394
197.194525,5477.523971,8216.285956,0.000000
197.194846,5551.544565,5255.462188,-995.924147
197.195166,6513.812290,3997.112087,-2911.162892
197.195487,8734.430116,6439.791695,-306.438199
197.195807,6661.853478,9326.594869,536.266849
197.196128,3478.967927,11251.130318,-842.705048
197.196448,4737.318029,13915.871710,-2221.676944
197.196769,5477.523971,13693.809927,-2221.676944
197.197089,4737.318029,8364.327145,-306.438199
197.197410,6069.688724,4737.318029,919.314598
197.197731,3701.029710,4293.194464,2528.115143
197.198051,444.123565,6587.832884,1149.143247
197.198372,296.082377,8882.471304,-689.485948
197.198692,2664.741391,8586.388927,-612.876398
197.199013,6883.915261,7994.224174,306.438199
197.199333,7550.100608,9400.615463,459.657299
197.199654,4145.153275,9104.533087,-383.047749
197.199974,2368.659014,8734.430116,-1378.971896
197.200295,4663.297435,10584.944971,612.876398
197.200615,5625.565159,9474.636058,1072.533697
197.200936,7402.059420,9770.718434,76.609550
197.201256,6069.688724,10584.944971,-995.924147
197.201577,2886.803174,12731.542202,-1685.410096
197.201897,3404.947333,11621.233289,0.000000
197.202218,5329.482782,7624.121203,-612.876398
197.202538,6587.832884,4293.194464,-766.095498
197.202859,4145.153275,2886.803174,1149.143247
197.203179,1628.453072,5107.421000,1072.533697
197.203500,1850.514855,7402.059420,1302.362347
197.203821,3627.009116,8068.244768,2068.457845
197.204141,7105.977043,6587.832884,1608.800546
197.204462,9474.636058,6587.832884,76.609550
197.204782,7476.080014,8882.471304,-1302.362347
197.205103,4219.173869,9770.718434,-2068.457845
197.205423,4663.297435,9326.594869,-2834.553343
197.205744,6735.874072,6513.812290,-2374.896044
197.206064,7624.121203,5921.647536,-689.485948
197.206385,7402.059420,7698.141797,0.000000
197.206705,4589.276840,10362.883188,-612.876398
197.207026,2590.720797,11843.295072,-1302.362347
197.207346,3108.864956,10510.924376,0.000000
197.207667,3775.050304,7105.977043,536.266849
197.207987,3108.864956,3997.112087,842.705048
197.208308,4367.215058,4663.297435,2221.676944
197.208628,2812.782580,7105.977043,1991.848295
197.208949,814.226536,7031.956449,1302.362347
197.209270,3330.926739,8068.244768,919.314598
197.209590,6513.812290,9030.512492,1149.143247
197.209911,5477.523971,8808.450710,612.876398
197.210231,5773.606348,7476.080014,229.828649
197.210552,5847.626942,7328.038826,-1378.971896
197.210872,5033.400406,8364.327145,-2604.724693
197.211193,7105.977043,10066.800811,-1532.190996
197.211513,8956.491898,10362.883188,-2145.067394
197.211834,6069.688724,8734.430116,-2068.457845
197.212154,6439.791695,8438.347739,0.000000
197.212475,4959.379811,7698.141797,1302.362347
197.212795,4737.318029,7624.121203,919.314598
197.213116,4663.297435,7846.182985,1991.848295
197.213436,5255.462188,9548.656652,2298.286494
197.213757,4219.173869,7624.121203,2374.896044
197.214077,3256.906145,7031.956449,2145.067394
197.214398,3404.947333,6735.874072,1072.533697
197.214718,4145.153275,6365.771101,-76.609550
197.215039,4737.318029,6143.709319,306.438199
197.215360,4959.379811,5551.544565,-689.485948
197.215680,6291.750507,6883.915261,-1378.971896
197.216001,7105.977043,9400.615463,-306.438199
197.216321,6587.832884,10288.862594,-2298.286494
197.216642,5995.668130,10584.944971,-3753.867940
197.216962,7179.997637,8586.388927,-2145.067394
197.217283,7772.162391,7105.977043,-459.657299
197.217603,7624.121203,8512.368333,383.047749
197.217924,4737.318029,9622.677246,0.000000
197.218244,2368.659014,9474.636058,-1991.848295
197.218565,3256.906145,7179.997637,-612.876398
197.218885,4737.318029,6587.832884,1915.238745
197.219206,5107.421000,7920.203579,4290.134789
197.219526,2220.617826,8808.450710,2757.943793
197.219847,814.226536,10510.924376,-1072.533697
197.220167,1406.391290,8290.306550,-919.314598
197.220488,2146.597232,6217.729913,76.609550
197.220809,4663.297435,5699.585753,1991.848295
197.221129,3997.112087,7179.997637,1072.533697
197.221450,2294.638420,9696.697840,-1072.533697
197.221770,3627.009116,12361.439231,-1225.752797
197.222091,5699.585753,12287.418637,-1455.581446
197.222411,5847.626942,8882.471304,-1225.752797
197.222732,7994.224174,6439.791695,-1532.190996
197.223052,6809.894666,6217.729913,-2374.896044
197.223373,3627.009116,6365.771101,-2221.676944
197.223693,4589.276840,6809.894666,-689.485948
197.224014,7994.224174,8216.285956,689.485948
197.224334,7031.956449,7772.162391,306.438199
197.224655,6735.874072,7772.162391,153.219100
197.224975,6069.688724,6439.791695,0.000000
197.225296,3256.906145,4515.256246,-842.705048
197.225616,5181.441594,5329.482782,1455.581446
197.225937,7105.977043,7994.224174,306.438199
197.226257,5773.606348,10140.821405,-1225.752797
197.226578,5181.441594,10362.883188,-689.485948
197.226899,5033.400406,10510.924376,-1302.362347
197.227219,4219.173869,9474.636058,-1532.190996
197.227540,3256.906145,7772.162391,-383.047749
197.227860,4515.256246,7476.080014,76.609550
197.228181,4219.173869,8068.244768,-536.266849
197.228501,3552.988522,9548.656652,229.828649
197.228822,3034.844362,9918.759623,229.828649
197.229142,4367.215058,9770.718434,-306.438199
197.229463,4293.194464,9696.697840,1991.848295
197.229783,3775.050304,6661.853478,1532.190996
197.230104,5847.626942,5699.585753,1302.362347
197.230424,6291.750507,6809.894666,1685.410096
197.230745,3701.029710,7179.997637,1149.143247
197.231065,5625.565159,9104.533087,-766.095498
197.231386,7550.100608,10510.924376,-2451.505594
197.231706,7698.141797,9030.512492,-1991.848295
197.232027,8216.285956,5477.523971,306.438199
197.232347,8734.430116,4441.235652,0.000000
197.232668,6587.832884,5181.441594,-1762.019645
197.232989,5329.482782,6291.750507,-3140.991542
197.233309,7402.059420,8808.450710,-3600.648841
197.233630,8364.327145,9548.656652,-2374.896044
197.233950,6957.935855,8364.327145,842.705048
197.234271,8216.285956,6365.771101,2145.067394
197.234591,6587.832884,6365.771101,1225.752797
197.234912,2590.720797,7624.121203,0.000000
197.235232,2886.803174,7105.977043,-383.047749
197.235553,4219.173869,6735.874072,-1149.143247
197.235873,4367.215058,7476.080014,306.438199
197.236194,4663.297435,9474.636058,2068.457845
197.236514,3108.864956,10584.944971,842.705048
197.236835,1702.473667,11325.150913,-689.485948
197.237155,1480.411884,10955.047942,229.828649
197.237476,2812.782580,8068.244768,612.876398
197.237796,1850.514855,4885.359217,229.828649
197.238117,2220.617826,5773.606348,995.924147
197.238437,2220.617826,9326.594869,612.876398
197.238758,2738.761985,11399.171507,689.485948
197.239079,6291.750507,12879.583391,842.705048
197.239399,8068.244768,10807.006753,1302.362347
197.239720,5551.544565,6587.832884,612.876398
197.240040,4293.194464,4367.215058,229.828649
197.240361,5255.462188,4959.379811,229.828649
197.240681,4737.318029,6513.812290,1149.143247
197.241002,7550.100608,6809.894666,-612.876398
197.241322,9696.697840,5773.606348,-3064.381992
197.241643,8290.306550,7624.121203,-3524.039291
197.241963,5847.626942,9918.759623,-995.924147
197.242284,5551.544565,9474.636058,306.438199
197.242604,5551.544565,6883.915261,-383.047749
197.242925,6587.832884,4737.318029,-229.828649
197.243245,7254.018232,6587.832884,-842.705048
197.243566,4145.153275,8216.285956,-3140.991542
197.243886,2886.803174,10807.006753,-3907.087040
197.244207,2812.782580,12731.542202,-1302.362347
197.244527,4145.153275,12435.459826,2221.676944
197.244848,3108.864956,9030.512492,3447.429741
197.245169,3034.844362,6957.935855,2298.286494
197.245489,444.123565,6587.832884,-612.876398
197.245810,-1110.308913,7031.956449,-1455.581446
197.246130,2220.617826,6513.812290,-383.047749
197.246451,4441.235652,8142.265362,842.705048
197.246771,5107.421000,9696.697840,3294.210641
197.247092,6809.894666,11473.192101,3524.039291
197.247412,5255.462188,11103.089130,995.924147
197.247733,4959.379811,9178.553681,-1225.752797
197.248053,7105.977043,7846.182985,-2374.896044
197.248374,9400.615463,6513.812290,-1915.238745
197.248694,8438.347739,7624.121203,0.000000
197.249015,6365.771101,7550.100608,689.485948
197.249335,5995.668130,6883.915261,-1149.143247
197.249656,6143.709319,7105.977043,-2681.334243
197.249976,6513.812290,7328.038826,-1378.971896
197.250297,6069.688724,6513.812290,-919.314598
197.250617,7772.162391,5255.462188,459.657299
197.250938,6735.874072,4737.318029,1455.581446
197.251259,4959.379811,4737.318029,1532.190996
197.251579,5403.503377,6217.729913,-536.266849
197.251900,6957.935855,9030.512492,-2834.553343
197.252220,6217.729913,9474.636058,-3370.820191
197.252541,8364.327145,10288.862594,-1302.362347
197.252861,8290.306550,11103.089130,383.047749
197.253182,5699.585753,9992.780217,1532.190996
197.253502,1924.535449,6661.853478,306.438199
197.253823,3552.988522,5847.626942,-1149.143247
197.254143,3552.988522,5995.668130,-1225.752797
197.254464,2738.761985,7772.162391,-459.657299
197.254784,3701.029710,7920.203579,1072.533697
197.255105,3923.091493,8068.244768,536.266849
197.255425,3478.967927,7105.977043,995.924147
197.255746,3627.009116,7550.100608,2068.457845
197.256066,3627.009116,7402.059420,76.609550
197.256387,4515.256246,9474.636058,-612.876398
197.256707,2960.823768,10807.006753,-1608.800546
197.257028,4663.297435,11621.233289,-536.266849
197.257348,6957.935855,11103.089130,1455.581446
197.257669,5477.523971,9844.739029,842.705048
197.257990,3256.906145,9030.512492,-1762.019645
197.258310,2220.617826,8364.327145,-3524.039291
197.258631,3552.988522,7994.224174,-1685.410096
197.258951,4145.153275,7476.080014,229.828649
197.259272,5181.441594,5921.647536,1762.019645
197.259592,4737.318029,6513.812290,689.485948
197.259913,3478.967927,7179.997637,-995.924147
197.260233,2368.659014,7550.100608,-1072.533697
197.260554,4071.132681,9030.512492,-1532.190996
197.260874,5255.462188,9696.697840,-1378.971896
197.261195,7105.977043,11695.253884,153.219100
197.261515,7328.038826,11325.150913,1149.143247
197.261836,6661.853478,10510.924376,306.438199
197.262156,4663.297435,8808.450710,153.219100
197.262477,4515.256246,7402.059420,-612.876398
197.262797,4737.318029,6513.812290,-612.876398
197.263118,5255.462188,6291.750507,995.924147
197.263438,5403.503377,5477.523971,1302.362347
197.263759,5625.565159,4737.318029,229.828649
197.264080,4737.318029,3997.112087,-306.438199
197.264400,5403.503377,4515.256246,0.000000
197.264721,4959.379811,5773.606348,-229.828649
197.265041,4959.379811,7402.059420,-536.266849
197.265362,7105.977043,11177.109724,-1378.971896
197.265682,8142.265362,12139.377449,-689.485948
197.266003,6217.729913,10066.800811,-1149.143247
197.266323,8142.265362,8216.285956,-1072.533697
197.266644,5255.462188,6143.709319,-612.876398
197.266964,4441.235652,6735.874072,-1302.362347
197.267285,4367.215058,7105.977043,-919.314598
197.267605,3923.091493,6735.874072,-229.828649
197.267926,4219.173869,5329.482782,-76.609550
197.268246,6735.874072,6439.791695,383.047749
197.268567,3330.926739,5847.626942,-1302.362347
197.268887,2590.720797,6143.709319,-1149.143247
197.269208,4441.235652,8808.450710,383.047749
197.269528,5181.441594,12805.562797,0.000000
197.269849,4219.173869,13027.624579,689.485948
197.270170,6513.812290,11029.068536,-689.485948
197.270490,5921.647536,11473.192101,-766.095498
197.270811,2960.823768,10140.821405,766.095498
197.271131,2664.741391,8290.306550,1685.410096
197.271452,4071.132681,7550.100608,459.657299
197.271772,2812.782580,7105.977043,689.485948
197.272093,3478.967927,7550.100608,689.485948
197.272413,3404.947333,5403.503377,-1455.581446
197.272734,4885.359217,6513.812290,-536.266849
197.273054,4441.235652,6735.874072,1378.971896
197.273375,4885.359217,7031.956449,2221.676944
197.273695,7994.224174,9104.533087,153.219100
197.274016,6735.874072,11251.130318,-1838.629195
197.274336,6217.729913,11695.253884,-2987.772442
197.274657,8216.285956,11251.130318,-2221.676944
197.274977,7031.956449,11621.233289,-1685.410096
197.275298,5699.585753,9474.636058,-766.095498
197.275618,5477.523971,7476.080014,-842.705048
197.275939,5255.462188,7254.018232,-1685.410096
197.276260,888.247130,6957.935855,-995.924147
197.276580,444.123565,6809.894666,842.705048
197.276901,5107.421000,5403.503377,2528.115143
197.277221,5551.544565,5181.441594,2528.115143
197.277542,3775.050304,6365.771101,2911.162892
197.277862,2664.741391,9622.677246,383.047749
197.278183,2442.679609,8956.491898,-2451.505594
197.278503,4811.338623,7476.080014,-612.876398
197.278824,8882.471304,7698.141797,1762.019645
197.279144,8586.388927,9474.636058,766.095498
197.279465,5625.565159,9770.718434,-1762.019645
197.279785,3849.070898,10510.924376,-2221.676944
197.280106,4589.276840,8438.347739,-2528.115143
197.280426,5995.668130,5033.400406,-1608.800546
197.280747,9474.636058,6069.688724,919.314598
197.281067,5181.441594,5847.626942,-229.828649
197.281388,2590.720797,6957.935855,-995.924147
197.281708,2590.720797,6143.709319,1149.143247
197.282029,4811.338623,6883.915261,995.924147
197.282350,5995.668130,7846.182985,1378.971896
197.282670,5847.626942,7772.162391,-1149.143247
197.282991,5625.565159,9474.636058,-2757.943793
197.283311,3997.112087,9252.574275,-995.924147
197.283632,3256.906145,7920.203579,1225.752797
197.283952,5995.668130,7254.018232,995.924147
197.284273,5995.668130,9326.594869,-2068.457845
197.284593,3701.029710,10584.944971,-3294.210641
197.284914,3256.906145,10955.047942,-2298.286494
197.285234,5625.565159,10140.821405,0.000000
197.285555,3775.050304,7105.977043,1685.410096
197.285875,3182.885551,4811.338623,1762.019645
197.286196,4515.256246,7328.038826,1608.800546
197.286516,3923.091493,10140.821405,0.000000
197.286837,1998.556043,10214.842000,-995.924147
197.287157,5921.647536,9474.636058,-383.047749
197.287478,6809.894666,9400.615463,842.705048
197.287798,5551.544565,9178.553681,2681.334243
197.288119,3775.050304,7402.059420,2528.115143
197.288439,3701.029710,6883.915261,-536.266849
197.288760,3997.112087,7550.100608,-1608.800546
197.289081,4071.132681,8808.450710,0.000000
197.289401,5773.606348,7031.956449,-1302.362347
197.289722,6291.750507,5477.523971,-1915.238745
197.290042,6587.832884,5847.626942,0.000000
197.290363,5699.585753,8660.409521,459.657299
197.290683,5033.400406,9622.677246,153.219100
197.291004,5921.647536,9030.512492,-1302.362347
197.291324,8808.450710,8512.368333,-2068.457845
197.291645,7550.100608,8364.327145,-766.095498
197.291965,6735.874072,6735.874072,153.219100
197.292286,5255.462188,5773.606348,-383.047749
197.292606,4219.173869,5107.421000,-1838.629195
197.292927,4663.297435,6587.832884,-2451.505594
197.293247,5255.462188,8290.306550,-842.705048
197.293568,3552.988522,7994.224174,-612.876398
197.293888,5847.626942,6957.935855,1302.362347
197.294209,5773.606348,7328.038826,2604.724693
197.294529,3182.885551,6957.935855,1378.971896
197.294850,2738.761985,7105.977043,1455.581446
197.295171,5995.668130,7846.182985,536.266849
197.295491,5847.626942,11103.089130,-1225.752797
197.295812,5181.441594,11695.253884,-919.314598
197.296132,3552.988522,9918.759623,-2068.457845
197.296453,5477.523971,8142.265362,-1378.971896
197.296773,3997.112087,8882.471304,612.876398
197.297094,3775.050304,9844.739029,2145.067394
197.297414,1776.494261,8660.409521,76.609550
197.297735,1702.473667,8438.347739,-2068.457845
197.298055,1702.473667,7698.141797,0.000000
197.298376,2664.741391,7402.059420,1685.410096
197.298696,3997.112087,8808.450710,2068.457845
197.299017,4441.235652,9696.697840,76.609550
197.299337,3849.070898,9104.533087,-2068.457845
197.299658,5403.503377,7920.203579,-2757.943793
197.299978,5403.503377,9104.533087,-995.924147
197.300299,6439.791695,9992.780217,1762.019645
197.300619,7846.182985,10955.047942,2681.334243
197.300940,6661.853478,9474.636058,842.705048
197.301261,6069.688724,7920.203579,-766.095498
197.301581,6365.771101,7328.038826,-306.438199
197.301902,5255.462188,4737.318029,-1225.752797
197.302222,3775.050304,3478.967927,-1302.362347
197.302543,4737.318029,4811.338623,842.705048
197.302863,6809.894666,7402.059420,1838.629195
197.303184,5329.482782,7402.059420,1455.581446
197.303504,6143.709319,6217.729913,76.609550
197.303825,7402.059420,8882.471304,-1762.019645
197.304145,4293.194464,10436.903782,-1915.238745
197.304466,5995.668130,8142.265362,0.000000
197.304786,7254.018232,7105.977043,1532.190996
197.305107,6365.771101,6661.853478,1532.190996
197.305427,4071.132681,7624.121203,766.095498
197.305748,3034.844362,7476.080014,-2451.505594
197.306068,2220.617826,6957.935855,-5362.668486
197.306389,5477.523971,7772.162391,-1762.019645
197.306709,5921.647536,5551.544565,1762.019645
197.307030,4589.276840,4737.318029,2528.115143
197.307351,4145.153275,5181.441594,3140.991542
197.307671,2368.659014,8216.285956,229.828649
197.307992,3627.009116,9400.615463,-2604.724693
197.308312,6143.709319,8882.471304,-2604.724693
197.308633,7476.080014,9844.739029,-1455.581446
197.308953,7550.100608,9252.574275,306.438199
197.309274,5995.668130,9992.780217,689.485948
197.309594,4071.132681,9326.594869,-1455.581446
197.309915,4737.318029,8586.388927,-1149.143247
197.310235,5625.565159,7402.059420,-229.828649
197.310556,5625.565159,5921.647536,-536.266849
197.310876,5329.482782,5403.503377,1149.143247
197.311197,5551.544565,7254.018232,1838.629195
197.311517,5847.626942,7772.162391,1685.410096
197.311838,4515.256246,7105.977043,0.000000
197.312158,5699.585753,7624.121203,-1302.362347
197.312479,5847.626942,9622.677246,-1149.143247
197.312799,5329.482782,11251.130318,-766.095498
197.313120,5625.565159,11399.171507,229.828649
197.313440,5551.544565,10955.047942,842.705048
197.313761,4737.318029,9696.697840,1378.971896
197.314082,4515.256246,9030.512492,689.485948
197.314402,3478.967927,6661.853478,-1378.971896
197.314723,2368.659014,5699.585753,-2221.676944
197.315043,2812.782580,7105.977043,536.266849
197.315364,5255.462188,8512.368333,1991.848295
197.315684,5403.503377,6661.853478,1838.629195
197.316005,6809.894666,6365.771101,0.000000
197.316325,5847.626942,7031.956449,-1762.019645
197.316646,3701.029710,7698.141797,-3064.381992
197.316966,5329.482782,7846.182985,-612.876398
197.317287,7402.059420,9918.759623,919.314598
197.317607,7698.141797,10807.006753,1455.581446
197.317928,6513.812290,10288.862594,536.266849
197.318248,3923.091493,10214.842000,-1991.848295
197.318569,222.061783,7179.997637,-2757.943793
197.318889,1776.494261,5033.400406,-1225.752797
197.319210,4589.276840,4145.153275,-1072.533697
197.319530,4737.318029,5181.441594,766.095498
197.319851,3404.947333,6957.935855,2528.115143
197.320172,3701.029710,8512.368333,1838.629195
197.320492,4367.215058,9178.553681,-229.828649
197.320813,5847.626942,9104.533087,-536.266849
197.321133,5477.523971,8216.285956,-1149.143247
197.321454,6291.750507,7031.956449,-1225.752797
197.321774,6809.894666,7550.100608,1225.752797
197.322095,6513.812290,9548.656652,1378.971896
197.322415,5033.400406,9622.677246,-153.219100
197.322736,4959.379811,8142.265362,-2221.676944
197.323056,4663.297435,7772.162391,-3140.991542
197.323377,5181.441594,7254.018232,229.828649
197.323697,5773.606348,5699.585753,2987.772442
197.324018,6735.874072,6217.729913,2528.115143
197.324338,4737.318029,6957.935855,766.095498
197.324659,3627.009116,7105.977043,-1302.362347
197.324979,4737.318029,9104.533087,-1225.752797
197.325300,5329.482782,9252.574275,-612.876398
197.325620,7105.977043,9252.574275,229.828649
197.325941,7624.121203,8808.450710,459.657299
197.326262,6735.874072,10066.800811,-383.047749
197.326582,5847.626942,10214.842000,919.314598
197.326903,4737.318029,7105.977043,919.314598
197.327223,5329.482782,5107.421000,76.609550
197.327544,4737.318029,4663.297435,766.095498
197.327864,6069.688724,7550.100608,306.438199
197.328185,5625.565159,8216.285956,383.047749
197.328505,7105.977043,6365.771101,-229.828649
197.328826,7994.224174,5255.462188,-919.314598
197.329146,4737.318029,4885.359217,-1838.629195
197.329467,3923.091493,6957.935855,-2757.943793
197.329788,6661.853478,9400.615463,-1225.752797
197.330108,6587.832884,9992.780217,-1378.971896
197.330429,7550.100608,11029.068536,0.000000
197.330749,7698.141797,12435.459826,536.266849
197.331070,3256.906145,11029.068536,-919.314598
197.331390,1036.288319,8216.285956,-1302.362347
197.331711,1998.556043,5107.421000,0.000000
197.332031,2960.823768,5181.441594,0.000000
197.332352,3108.864956,4959.379811,2221.676944
197.332672,3256.906145,6661.853478,2145.067394
197.332993,2812.782580,10066.800811,459.657299
197.333314,3256.906145,10658.965565,153.219100
197.333634,3404.947333,9178.553681,-229.828649
197.333955,3701.029710,7920.203579,-1532.190996
197.334275,4959.379811,10140.821405,76.609550
197.334596,5477.523971,12435.459826,919.314598
197.334916,4663.297435,12213.398043,-1149.143247
197.335237,4811.338623,11695.253884,-1762.019645
197.335557,3404.947333,9474.636058,-1378.971896
197.335878,1702.473667,7772.162391,-1532.190996
197.336198,2812.782580,6957.935855,0.000000
197.336519,4737.318029,7105.977043,842.705048
197.336840,5625.565159,6069.688724,1455.581446
197.337160,6217.729913,6217.729913,1072.533697
197.337481,5477.523971,8068.244768,-229.828649
197.337801,4663.297435,8068.244768,-306.438199
197.338122,6735.874072,7550.100608,1149.143247
197.338442,8438.347739,7698.141797,-383.047749
197.338763,8586.388927,8364.327145,-1838.629195
197.339083,8216.285956,9696.697840,-1762.019645
197.339404,7476.080014,9474.636058,-1225.752797
197.339725,5255.462188,7624.121203,-306.438199
197.340045,4737.318029,5773.606348,842.705048
197.340366,6069.688724,7254.018232,459.657299
197.340686,4737.318029,7402.059420,0.000000
197.341007,3256.906145,5847.626942,0.000000
197.341327,7031.956449,5477.523971,153.219100
197.341648,5847.626942,4663.297435,919.314598
197.341968,4071.132681,4885.359217,766.095498
197.342289,5181.441594,5847.626942,229.828649
197.342609,4663.297435,7179.997637,-1072.533697
197.342930,4737.318029,9178.553681,-1532.190996
197.343251,7402.059420,9696.697840,-536.266849
197.343571,7920.203579,9326.594869,-919.314598
197.343892,6291.750507,9548.656652,-1225.752797
197.344212,5255.462188,9326.594869,0.000000
197.344533,4515.256246,8438.347739,-383.047749
197.344853,3627.009116,5551.544565,306.438199
197.345174,4145.153275,4219.173869,1072.533697
197.345494,5255.462188,6587.832884,919.314598
197.345815,4589.276840,7994.224174,76.609550
197.346135,5033.400406,7328.038826,-306.438199
197.346456,5773.606348,6143.709319,-766.095498
197.346777,5699.585753,5699.585753,-1532.190996
197.347097,5033.400406,9548.656652,-612.876398
197.347418,5847.626942,12287.418637,-1378.971896
197.347738,5921.647536,12287.418637,-612.876398
197.348059,7031.956449,12065.356855,1302.362347
197.348379,4959.379811,9918.759623,536.266849
197.348700,1850.514855,7328.038826,-1149.143247
197.349020,1110.308913,6587.832884,-919.314598
197.349341,2738.761985,7105.977043,-766.095498
197.349662,3849.070898,7624.121203,306.438199
197.349982,6365.771101,8586.388927,1302.362347
197.350303,4737.318029,9696.697840,1532.190996
197.350623,2442.679609,10732.986159,1762.019645
197.350944,3256.906145,10066.800811,1915.238745
197.351264,3256.906145,8216.285956,0.000000
197.351585,4367.215058,8660.409521,-1608.800546
197.351905,4663.297435,10214.842000,-1378.971896
197.352226,3404.947333,10510.924376,-536.266849
197.352546,2812.782580,9622.677246,0.000000
197.352867,3330.926739,8438.347739,383.047749
197.353188,5181.441594,9104.533087,-995.924147
197.353508,3627.009116,9400.615463,-1072.533697
197.353829,2072.576638,7772.162391,-1302.362347
197.354149,5921.647536,6365.771101,919.314598
197.354470,5773.606348,5477.523971,2451.505594
197.354790,4959.379811,6365.771101,1685.410096
197.355111,3923.091493,6587.832884,-842.705048
197.355431,4219.173869,7328.038826,-3140.991542
197.355752,5329.482782,9252.574275,-2145.067394
197.356072,7920.203579,10807.006753,76.609550
197.356393,6587.832884,8660.409521,-536.266849
197.356714,5403.503377,8512.368333,-536.266849
197.357034,3701.029710,9326.594869,0.000000
197.357355,3182.885551,8734.430116,-536.266849
197.357675,3478.967927,5181.441594,689.485948
197.357996,5699.585753,4219.173869,0.000000
197.358316,3923.091493,5329.482782,-919.314598
197.358637,5255.462188,7698.141797,229.828649
197.358957,5847.626942,8660.409521,536.266849
197.359278,5181.441594,5699.585753,-229.828649
197.359599,7550.100608,5033.400406,-383.047749
197.359919,9104.533087,8142.265362,-306.438199
197.360240,5551.544565,10214.842000,-1532.190996
197.360560,7179.997637,11547.212695,-1302.362347
197.360881,8586.388927,10436.903782,2221.676944
197.361201,7920.203579,8956.491898,1455.581446
197.361522,5921.647536,7105.977043,766.095498
197.361842,1924.535449,4737.318029,-2451.505594
197.362163,1998.556043,5107.421000,-4213.525239
197.362483,4885.359217,7105.977043,-76.609550
197.362804,6069.688724,8068.244768,1991.848295
197.363125,6513.812290,7920.203579,2221.676944
197.363445,5921.647536,8808.450710,1455.581446
197.363766,3404.947333,10214.842000,536.266849
197.364086,2368.659014,9548.656652,-306.438199
197.364407,5033.400406,8364.327145,-306.438199
197.364727,7031.956449,8364.327145,-689.485948
197.365048,6883.915261,9178.553681,536.266849
197.365368,5773.606348,9104.533087,612.876398
197.365689,3923.091493,9252.574275,0.000000
197.366010,1998.556043,7402.059420,-919.314598
197.366330,3997.112087,8882.471304,-766.095498
197.366651,4515.256246,8216.285956,0.000000
197.366971,4071.132681,6365.771101,383.047749
197.367292,6957.935855,6809.894666,2068.457845
197.367612,4589.276840,7550.100608,842.705048
197.367933,1480.411884,6957.935855,-1455.581446
197.368253,2738.761985,7179.997637,-1532.190996
197.368574,6587.832884,7994.224174,-1455.581446
197.368894,7476.080014,10066.800811,-1455.581446
197.369215,7476.080014,11917.315666,229.828649
197.369536,4441.235652,10807.006753,-2374.896044
197.369856,4663.297435,10140.821405,-2145.067394
197.370177,4071.132681,9474.636058,1455.581446
197.370497,5329.482782,7105.977043,1685.410096
197.370818,1258.350101,3256.906145,-1455.581446
197.371138,2146.597232,3775.050304,-1532.190996
197.371459,4071.132681,7476.080014,842.705048
197.371779,3330.926739,8660.409521,1302.362347
197.372100,5551.544565,7550.100608,-689.485948
197.372420,7105.977043,7772.162391,-3370.820191
197.372741,4663.297435,9474.636058,-3294.210641
197.373062,4441.235652,10658.965565,-383.047749
197.373382,5995.668130,10066.800811,536.266849
197.373703,8216.285956,11251.130318,0.000000
197.374023,7994.224174,11695.253884,1608.800546
197.374344,5255.462188,9400.615463,536.266849
197.374664,2294.638420,6809.894666,-2298.286494
197.374985,2738.761985,6069.688724,-1455.581446
197.375305,2738.761985,4367.215058,-153.219100
197.375626,4589.276840,3701.029710,0.000000
197.375947,6513.812290,5921.647536,1302.362347
197.376267,4811.338623,9030.512492,1072.533697
197.376588,3256.906145,9474.636058,-383.047749
197.376908,5033.400406,9252.574275,-919.314598
197.377229,6883.915261,9992.780217,-766.095498
197.377549,7624.121203,10658.965565,-689.485948
197.377870,9178.553681,9992.780217,-306.438199
197.378190,7772.162391,10140.821405,-306.438199
197.378511,4589.276840,9474.636058,383.047749
197.378831,3404.947333,10288.862594,842.705048
197.379152,4071.132681,8142.265362,-229.828649
197.379473,2368.659014,5699.585753,-1455.581446
197.379793,4441.235652,4515.256246,-306.438199
197.380114,5181.441594,4515.256246,1072.533697
197.380434,2664.741391,5403.503377,766.095498
197.380755,3997.112087,6587.832884,1225.752797
197.381075,4737.318029,6809.894666,76.609550
197.381396,7031.956449,7402.059420,-1072.533697
197.381716,9104.533087,10066.800811,459.657299
197.382037,7476.080014,11843.295072,-1072.533697
197.382357,7328.038826,11843.295072,-2757.943793
197.382678,7476.080014,11547.212695,-1762.019645
197.382999,8660.409521,9918.759623,-76.609550
197.383319,6143.709319,5847.626942,842.705048
197.383640,4811.338623,2516.700203,536.266849
197.383960,3552.988522,2590.720797,0.000000
197.384281,1702.473667,2960.823768,2681.334243
197.384601,5033.400406,3997.112087,4213.525239
197.384922,9844.739029,4959.379811,3064.381992
197.385242,9992.780217,5625.565159,306.438199
197.385563,7994.224174,7402.059420,-919.314598
197.385884,7328.038826,7624.121203,-3217.601092
197.386204,8660.409521,5773.606348,-3983.696590
197.386525,11843.295072,5181.441594,-1302.362347
197.386845,14878.139434,5329.482782,766.095498
197.387166,13915.871710,8142.265362,459.657299
197.387486,9400.615463,10214.842000,-1302.362347
197.387807,6735.874072,9696.697840,-2604.724693
197.388127,7476.080014,6735.874072,-842.705048
197.388448,7698.141797,3923.091493,2221.676944
197.388768,7402.059420,2442.679609,2068.457845
197.389089,6883.915261,1776.494261,536.266849
197.389410,5329.482782,3478.967927,-383.047749
197.389730,4737.318029,5699.585753,0.000000
197.390051,5625.565159,7031.956449,1149.143247
197.390371,10362.883188,9622.677246,1915.238745
197.390692,9548.656652,10732.986159,2298.286494
197.391012,6217.729913,8438.347739,1762.019645
197.391333,8734.430116,5551.544565,306.438199
197.391653,9400.615463,2960.823768,-1685.410096
197.391974,8660.409521,2368.659014,-2681.334243
197.392294,9548.656652,4959.379811,-2221.676944
197.392615,11695.253884,7328.038826,-2451.505594
197.392936,10510.924376,6809.894666,459.657299
197.393256,14285.974681,5773.606348,3447.429741
197.393577,13989.892304,3330.926739,2298.286494
197.393897,11251.130318,2886.803174,-459.657299
197.394218,9918.759623,3256.906145,-536.266849
197.394538,11029.068536,2590.720797,0.000000
197.394859,11843.295072,2590.720797,-536.266849
197.395179,11991.336260,3330.926739,-306.438199
197.395500,8882.471304,4959.379811,-2681.334243
197.395821,8734.430116,6513.812290,-3983.696590
197.396141,8068.244768,7846.182985,-2068.457845
197.396462,8586.388927,6661.853478,0.000000
197.396782,9104.533087,7105.977043,1532.190996
197.397103,7624.121203,6809.894666,1149.143247
197.397423,4071.132681,7105.977043,-1072.533697
197.397744,6143.709319,6513.812290,-1072.533697
197.398064,8216.285956,7328.038826,1149.143247
197.398385,8142.265362,5995.668130,2145.067394
197.398705,7328.038826,4811.338623,2145.067394
197.399026,7105.977043,4885.359217,1532.190996
197.399347,6957.935855,5107.421000,1149.143247
197.399667,7105.977043,4663.297435,1608.800546
197.399988,9326.594869,3404.947333,459.657299
197.400308,11991.336260,3478.967927,0.000000
197.400629,12435.459826,5477.523971,76.609550
197.400949,13101.645173,7254.018232,76.609550
197.401270,12435.459826,6661.853478,-1532.190996
197.401590,12879.583391,5107.421000,-2528.115143
197.401911,12953.603985,4293.194464,-1302.362347
197.402231,12509.480420,2738.761985,76.609550
197.402552,12287.418637,3478.967927,-995.924147
197.402873,11177.109724,3997.112087,-2528.115143
197.403193,9030.512492,4071.132681,-2068.457845
197.403514,8882.471304,4515.256246,-536.266849
197.403834,9992.780217,4737.318029,612.876398
197.404155,8364.327145,4811.338623,306.438199
197.404475,7624.121203,5625.565159,306.438199
197.404796,7402.059420,7105.977043,612.876398
197.405116,5033.400406,7402.059420,689.485948
197.405437,4959.379811,7105.977043,-536.266849
197.405758,8142.265362,8216.285956,-536.266849
197.406078,7698.141797,10140.821405,-306.438199
197.406399,4441.235652,9770.718434,842.705048
197.406719,5625.565159,7402.059420,1225.752797
197.407040,7105.977043,4885.359217,1532.190996
197.407360,6957.935855,4441.235652,2451.505594
197.407681,7179.997637,5403.503377,3064.381992
197.408001,7698.141797,5033.400406,76.609550
197.408322,8660.409521,3627.009116,-842.705048
197.408642,10732.986159,3775.050304,1149.143247
197.408963,12065.356855,4441.235652,1378.971896
197.409284,12213.398043,4441.235652,919.314598
197.409604,11917.315666,5403.503377,-1302.362347
197.409925,12879.583391,5403.503377,-2757.943793
197.410245,12287.418637,4515.256246,-2757.943793
197.410566,13323.706956,4663.297435,-842.705048
197.410886,12879.583391,5181.441594,-612.876398
197.411207,11325.150913,5255.462188,-1838.629195
197.411527,10881.027347,4885.359217,-1915.238745
197.411848,9326.594869,4071.132681,-1991.848295
197.412168,9326.594869,3701.029710,0.000000
197.412489,8512.368333,4663.297435,842.705048
197.412810,6883.915261,4589.276840,-842.705048
197.413130,7254.018232,5329.482782,-1225.752797
197.413451,8068.244768,6883.915261,153.219100
197.413771,7402.059420,7920.203579,536.266849
197.414092,6735.874072,8512.368333,383.047749
197.414412,6661.853478,8438.347739,842.705048
197.414733,7254.018232,6661.853478,1225.752797
197.415053,7402.059420,4515.256246,2298.286494
197.415374,8216.285956,4589.276840,1915.238745
197.415695,7698.141797,6069.688724,766.095498
197.416015,7179.997637,5403.503377,536.266849
197.416336,9992.780217,3701.029710,383.047749
197.416656,12657.521608,3108.864956,0.000000
197.416977,11843.295072,3552.988522,-995.924147
197.417297,12287.418637,4515.256246,-1225.752797
197.417618,12805.562797,4293.194464,-153.219100
197.417938,13989.892304,3256.906145,0.000000
197.418259,15248.242405,3034.844362,0.000000
197.418579,15470.304188,4589.276840,-1685.410096
197.418900,12509.480420,7031.956449,-3524.039291
197.419221,10584.944971,7402.059420,-2834.553343
197.419541,11029.068536,4589.276840,-1225.752797
197.419862,12361.439231,2294.638420,153.219100
197.420182,10510.924376,1628.453072,1455.581446
197.420503,7550.100608,4441.235652,-229.828649
197.420823,5255.462188,6291.750507,-1915.238745
197.421144,4367.215058,7105.977043,-1378.971896
197.421464,7476.080014,7254.018232,1225.752797
197.421785,8808.450710,7254.018232,2451.505594
197.422106,6809.894666,8142.265362,842.705048
197.422426,4145.153275,9992.780217,-995.924147
197.422747,4071.132681,9474.636058,-1762.019645
197.423067,5403.503377,7550.100608,76.609550
197.423388,6439.791695,6069.688724,2757.943793
197.423708,7550.100608,5995.668130,2681.334243
197.424029,7105.977043,6587.832884,1685.410096
197.424349,6587.832884,6587.832884,536.266849
197.424670,8142.265362,5551.544565,-76.609550
197.424990,10140.821405,4441.235652,919.314598
197.425311,11769.274478,3775.050304,2451.505594
197.425632,12509.480420,4219.173869,1685.410096
197.425952,12139.377449,4219.173869,229.828649
197.426273,11251.130318,3478.967927,-1225.752797
197.426593,11843.295072,2738.761985,-1762.019645
197.426914,13619.789333,3701.029710,-2374.896044
197.427235,14211.954086,5477.523971,-1915.238745
197.427555,13323.706956,6661.853478,-2451.505594
197.427876,11843.295072,6365.771101,-2145.067394
197.428197,10807.006753,4885.359217,-842.705048
197.428517,8734.430116,2738.761985,995.924147
197.428838,8734.430116,1850.514855,229.828649
197.429158,9178.553681,2960.823768,-1149.143247
197.429479,8586.388927,5847.626942,-1302.362347
197.429800,8068.244768,7772.162391,-995.924147
197.430120,8586.388927,8438.347739,536.266849
197.430441,8364.327145,7105.977043,1838.629195
197.430762,7105.977043,6069.688724,1991.848295
197.431082,5847.626942,4959.379811,1608.800546
197.431403,4885.359217,4441.235652,536.266849
197.431724,5699.585753,4145.153275,689.485948
197.432044,7920.203579,4663.297435,919.314598
197.432365,9326.594869,5847.626942,536.266849
197.432686,10066.800811,6957.935855,0.000000
197.433006,10436.903782,6957.935855,-766.095498
197.433327,10510.924376,5033.400406,-1225.752797
197.433647,10658.965565,3108.864956,0.000000
197.433968,11473.192101,2072.576638,1072.533697
197.434289,12065.356855,2886.803174,0.000000
197.434609,12213.398043,4811.338623,-995.924147
197.434930,12805.562797,6513.812290,-3064.381992
197.435251,12361.439231,7476.080014,-3447.429741
197.435571,12065.356855,6957.935855,-1608.800546
197.435892,11473.192101,5995.668130,0.000000
197.436213,10288.862594,4663.297435,536.266849
197.436533,9696.697840,4441.235652,-306.438199
197.436854,8438.347739,4441.235652,-919.314598
197.437175,7402.059420,5329.482782,-842.705048
197.437495,7550.100608,6143.709319,-383.047749
197.437816,8068.244768,7031.956449,0.000000
197.438137,8290.306550,7624.121203,-459.657299
197.438457,8142.265362,8586.388927,-306.438199
197.438778,7476.080014,8068.244768,1149.143247
197.439098,6735.874072,6809.894666,1915.238745
197.439419,6439.791695,5995.668130,2374.896044
197.439740,6809.894666,5625.565159,1455.581446
197.440060,7402.059420,6217.729913,536.266849
197.440381,7920.203579,6735.874072,153.219100
197.440702,8364.327145,5921.647536,-995.924147
197.441022,9252.574275,4367.215058,-1072.533697
197.441343,9992.780217,3182.885551,0.000000
197.441664,10362.883188,4515.256246,842.705048
197.441984,9918.759623,5847.626942,995.924147
197.442305,10066.800811,6217.729913,76.609550
197.442626,10658.965565,5625.565159,-919.314598
197.442946,10807.006753,4737.318029,-1685.410096
197.443267,10510.924376,5107.421000,-1302.362347
197.443588,10066.800811,5847.626942,-1838.629195
197.443908,9548.656652,6735.874072,-1991.848295
197.444229,9770.718434,6439.791695,-1532.190996
197.444549,9400.615463,5255.462188,-229.828649
197.444870,8882.471304,3627.009116,689.485948
197.445191,8290.306550,3478.967927,689.485948
197.445511,8216.285956,2590.720797,306.438199
197.445832,9178.553681,2590.720797,-76.609550
197.446153,10584.944971,3182.885551,0.000000
197.446473,10436.903782,4737.318029,-536.266849
197.446794,9844.739029,6217.729913,-689.485948
197.447115,9992.780217,7402.059420,-689.485948
197.447435,10140.821405,7994.224174,0.000000
197.447756,10288.862594,7624.121203,459.657299
197.448077,9696.697840,6883.915261,306.438199
197.448397,8438.347739,5403.503377,459.657299
197.448718,7105.977043,4367.215058,1608.800546
197.449039,7476.080014,3627.009116,2145.067394
197.449359,8142.265362,4145.153275,1762.019645
197.449680,8364.327145,4663.297435,1072.533697
197.450000,8512.368333,5107.421000,536.266849
197.450321,8438.347739,4663.297435,-153.219100
197.450642,9400.615463,4515.256246,-995.924147
197.450962,9918.759623,4959.379811,-536.266849
197.451283,10362.883188,5995.668130,-1072.533697
197.451604,11103.089130,7550.100608,-2374.896044
197.451924,11325.150913,8734.430116,-2221.676944
197.452245,11103.089130,8438.347739,-1302.362347
197.452566,10807.006753,7550.100608,459.657299
197.452886,10214.842000,5773.606348,536.266849
197.453207,9104.533087,4589.276840,536.266849
197.453528,7994.224174,3552.988522,536.266849
197.453848,7994.224174,2812.782580,1915.238745
197.454169,8734.430116,2368.659014,766.095498
197.454489,8808.450710,3701.029710,1149.143247
197.454810,8956.491898,6365.771101,153.219100
197.455131,8734.430116,8956.491898,0.000000
197.455451,8586.388927,9918.759623,383.047749
197.455772,7994.224174,9400.615463,919.314598
197.456093,6291.750507,8512.368333,1991.848295
197.456413,5329.482782,8216.285956,1762.019645
197.456734,4145.153275,7698.141797,76.609550
197.457055,3701.029710,7328.038826,-1072.533697
197.457375,4293.194464,6513.812290,-919.314598
197.457696,4441.235652,6291.750507,76.609550
197.458017,4293.194464,6587.832884,1302.362347
197.458337,4663.297435,8512.368333,2221.676944
197.458658,5255.462188,10214.842000,2757.943793
197.458979,6217.729913,10362.883188,2911.162892
197.459299,6957.935855,10066.800811,3370.820191
197.459620,7105.977043,8586.388927,2911.162892
197.459940,6143.709319,7846.182985,2221.676944
197.460261,6143.709319,7698.141797,2298.286494
197.460582,6365.771101,8364.327145,2145.067394
197.460902,6661.853478,9326.594869,2298.286494
197.461223,6957.935855,9030.512492,3064.381992
197.461544,6513.812290,8660.409521,3907.087040
197.461864,6439.791695,8290.306550,4903.011187
197.462185,6291.750507,8068.244768,5362.668486
197.462506,6291.750507,7698.141797,4903.011187
197.462826,6957.935855,7624.121203,5362.668486
197.463147,6809.894666,8290.306550,5822.325785
197.463468,6661.853478,9400.615463,6358.592633
197.463788,6291.750507,9326.594869,7507.735880
197.464109,5699.585753,8882.471304,7737.564530
197.464430,5699.585753,8438.347739,7354.516781
197.464750,5773.606348,7846.182985,7354.516781
197.465071,4885.359217,6513.812290,6588.421283
197.465391,4811.338623,5403.503377,6741.640382
197.465712,5033.400406,4885.359217,7048.078582
197.466033,5033.400406,5921.647536,6971.469032
197.466353,5699.585753,7624.121203,6205.373534
197.466674,5847.626942,8142.265362,5515.887586
197.466995,6069.688724,8512.368333,5975.544884
197.467315,6069.688724,7920.203579,7048.078582
197.467636,5625.565159,7031.956449,7584.345430
197.467957,4589.276840,6217.729913,7354.516781
197.468277,3478.967927,5699.585753,7048.078582
197.468598,3182.885551,5847.626942,6435.202183
197.468919,2886.803174,5403.503377,6511.811733
197.469239,2812.782580,4885.359217,6128.763984
197.469560,2664.741391,5181.441594,6205.373534
197.469881,2886.803174,6661.853478,6128.763984
197.470201,2516.700203,6957.935855,6052.154434
197.470522,2590.720797,7254.018232,5975.544884
197.470842,3775.050304,7624.121203,6665.030833
197.471163,4293.194464,7994.224174,6665.030833
197.471484,3701.029710,8216.285956,5975.544884
197.471804,3404.947333,7328.038826,4596.572988
197.472125,3627.009116,6661.853478,4213.525239
197.472446,3552.988522,6217.729913,4903.011187
197.472766,4367.215058,5551.544565,4673.182538
197.473087,3627.009116,5847.626942,3830.477490
197.473408,3701.029710,6735.874072,2987.772442
197.473728,4885.359217,7698.141797,3370.820191
197.474049,5477.523971,8364.327145,3983.696590
197.474370,5625.565159,8808.450710,3447.429741
197.474690,6217.729913,9400.615463,2911.162892
197.475011,6661.853478,9548.656652,3677.258390
197.475331,6291.750507,9844.739029,4749.792088
197.475652,5477.523971,9992.780217,4519.963438
197.475973,6143.709319,10510.924376,4060.306139
197.476293,5181.441594,10214.842000,4519.963438
197.476614,4441.235652,8734.430116,4366.744339
197.476935,3997.112087,5847.626942,3217.601092
197.477255,4367.215058,4071.132681,2528.115143
197.477576,4367.215058,4663.297435,1072.533697
197.477897,4885.359217,6439.791695,612.876398
197.478217,6883.915261,9400.615463,-459.657299
197.478538,8808.450710,13323.706956,-919.314598
197.478859,9696.697840,16728.654289,229.828649
197.479179,9474.636058,17172.777854,1915.238745
197.479500,8586.388927,15840.407159,3294.210641
197.479821,6809.894666,10955.047942,6665.030833
197.480141,6513.812290,8512.368333,8427.050478
197.480462,4071.132681,7402.059420,7354.516781
197.480782,2590.720797,7105.977043,5822.325785
197.481103,1036.288319,6735.874072,4596.572988
197.481424,2368.659014,5403.503377,3447.429741
197.481744,3552.988522,4071.132681,3140.991542
197.482065,5033.400406,5033.400406,3447.429741
197.482386,5477.523971,8438.347739,3064.381992
197.482706,6217.729913,11917.315666,1915.238745
197.483027,7105.977043,13915.871710,1455.581446
197.483348,8512.368333,14878.139434,1532.190996
197.483668,9992.780217,15174.221811,2528.115143
197.483989,8586.388927,13989.892304,4826.401637
197.484310,5847.626942,9696.697840,5362.668486
197.484630,5181.441594,6439.791695,6128.763984
197.484951,2516.700203,3997.112087,7967.393179
197.485272,1110.308913,3997.112087,7431.126331
197.485592,2220.617826,4885.359217,6435.202183
197.485913,2886.803174,5995.668130,5975.544884
197.486233,2886.803174,5329.482782,6971.469032
197.486554,4441.235652,4293.194464,8044.002729
197.486875,5329.482782,5921.647536,8503.660028
197.487195,4959.379811,10807.006753,7048.078582
197.487516,3478.967927,12435.459826,5209.449386
197.487837,5181.441594,11991.336260,3983.696590
197.488157,7105.977043,9104.533087,4673.182538
197.488478,6513.812290,6809.894666,7277.907231
197.488799,5477.523971,5551.544565,8656.879127
197.489119,2960.823768,5181.441594,7584.345430
197.489440,962.267725,5699.585753,4749.792088
197.489761,2590.720797,4737.318029,5056.230287
197.490081,5625.565159,3997.112087,6818.249932
197.490402,4441.235652,2738.761985,8273.831378
197.490723,4959.379811,4737.318029,7967.393179
197.491043,5995.668130,8068.244768,7277.907231
197.491364,4737.318029,10658.965565,6205.373534
197.491684,3034.844362,9770.718434,5439.278036
197.492005,5107.421000,7698.141797,6205.373534
197.492326,4071.132681,6439.791695,5898.935335
197.492646,1628.453072,4589.276840,7354.516781
197.492967,3478.967927,6291.750507,8810.098227
197.493288,4885.359217,9326.594869,8963.317327
197.493608,2368.659014,12583.501014,5592.497135
197.493929,2886.803174,11843.295072,3830.477490
197.494250,5255.462188,8956.491898,3294.210641
197.494570,3997.112087,4737.318029,5745.716235
197.494891,4293.194464,1776.494261,7354.516781
197.495212,6735.874072,2368.659014,6971.469032
197.495532,5255.462188,5847.626942,5132.839837
197.495853,3034.844362,8364.327145,3600.648841
197.496173,5329.482782,9474.636058,2987.772442
197.496494,8068.244768,10436.903782,4596.572988
197.496815,6883.915261,11251.130318,7048.078582
197.497135,5921.647536,11325.150913,6741.640382
197.497456,6587.832884,11103.089130,4136.915689
197.497777,4811.338623,9992.780217,2451.505594
197.498097,4367.215058,7402.059420,1838.629195
197.498418,4293.194464,5995.668130,1838.629195
197.498739,4219.173869,6809.894666,3140.991542
197.499059,4367.215058,10732.986159,5056.230287
197.499380,5181.441594,12805.562797,5515.887586
197.499701,6217.729913,11769.274478,5515.887586
197.500021,5773.606348,10288.862594,4903.011187
197.500342,5255.462188,9548.656652,4596.572988
197.500663,3997.112087,8660.409521,5362.668486
197.500983,3775.050304,7476.080014,5975.544884
197.501304,6143.709319,7772.162391,5132.839837
197.501624,7105.977043,8734.430116,4290.134789
197.501945,6587.832884,9474.636058,3217.601092
197.502266,6291.750507,9474.636058,2681.334243
197.502586,6513.812290,8438.347739,4060.306139
197.502907,7031.956449,6883.915261,5669.106685
197.503228,8216.285956,6365.771101,5439.278036
197.503548,7105.977043,6883.915261,3294.210641
197.503869,4885.359217,8142.265362,1762.019645
197.504190,6735.874072,9252.574275,1991.848295
197.504510,7698.141797,9178.553681,2298.286494
197.504831,7179.997637,8660.409521,3524.039291
197.505152,6587.832884,8512.368333,3983.696590
197.505472,4885.359217,9474.636058,3447.429741
197.505793,2146.597232,9030.512492,3907.087040
197.506114,1628.453072,6957.935855,5132.839837
197.506434,3256.906145,5773.606348,4826.401637
197.506755,3849.070898,6957.935855,5362.668486
197.507075,2220.617826,9474.636058,5975.544884
197.507396,1850.514855,10881.027347,5669.106685
197.507717,1998.556043,9474.636058,5209.449386
197.508037,2220.617826,7846.182985,4979.620737
197.508358,3775.050304,8068.244768,5592.497135
197.508679,4441.235652,9474.636058,5209.449386
197.508999,4737.318029,11399.171507,5362.668486
197.509320,3478.967927,10881.027347,5209.449386
197.509641,3627.009116,7476.080014,5975.544884
197.509961,5107.421000,4441.235652,6281.983084
197.510282,6365.771101,4737.318029,7048.078582
197.510603,5699.585753,6587.832884,6435.202183
197.510923,6735.874072,7698.141797,4443.353888
197.511244,7105.977043,6587.832884,3600.648841
197.511564,7476.080014,4145.153275,4826.401637
197.511885,8882.471304,4441.235652,7737.564530
197.512206,9770.718434,8512.368333,7431.126331
197.512526,6143.709319,10955.047942,3524.039291
197.512847,4811.338623,9030.512492,2451.505594
197.513168,6809.894666,5921.647536,4749.792088
197.513488,6661.853478,4885.359217,7890.783629
197.513809,3256.906145,5625.565159,7354.516781
197.514130,1998.556043,7031.956449,3600.648841
197.514450,1850.514855,8734.430116,842.705048
197.514771,2590.720797,7920.203579,3677.258390
197.515092,4737.318029,8956.491898,7124.688131
197.515412,5551.544565,10510.924376,7967.393179
197.515733,1850.514855,10584.944971,6894.859482
197.516054,0.000000,9400.615463,5132.839837
197.516374,3627.009116,8734.430116,5132.839837
197.516695,5181.441594,9474.636058,6894.859482
197.517015,3330.926739,8882.471304,8273.831378
197.517336,3108.864956,8068.244768,6665.030833
197.517657,3330.926739,8660.409521,5056.230287
197.517977,1702.473667,7624.121203,5056.230287
197.518298,2294.638420,4219.173869,4749.792088
197.518619,4145.153275,4737.318029,3677.258390
197.518939,5477.523971,7846.182985,3907.087040
197.519260,5033.400406,10436.903782,3830.477490
197.519581,7328.038826,10510.924376,3140.991542
197.519901,8290.306550,10066.800811,3677.258390
197.520222,8882.471304,9992.780217,5362.668486
197.520543,7698.141797,9844.739029,5132.839837
197.520863,6365.771101,7624.121203,2987.772442
197.521184,7031.956449,6735.874072,3677.258390
197.521505,8660.409521,5033.400406,4673.182538
197.521825,6069.688724,4959.379811,4213.525239
197.522146,6735.874072,7402.059420,3677.258390
197.522466,4811.338623,7846.182985,2681.334243
197.522787,6661.853478,6661.853478,1915.238745
197.523108,6439.791695,7105.977043,3294.210641
197.523428,4885.359217,7476.080014,4213.525239
197.523749,4071.132681,7254.018232,5286.058936
197.524070,7254.018232,9474.636058,5592.497135
197.524390,4293.194464,11177.109724,3294.210641
197.524711,4071.132681,11621.233289,1991.848295
197.525032,4589.276840,10658.965565,3064.381992
197.525352,4737.318029,8586.388927,4749.792088
197.525673,3034.844362,7476.080014,5439.278036
197.525994,3182.885551,7550.100608,4366.744339
197.526314,1998.556043,6513.812290,1915.238745
197.526635,2368.659014,5477.523971,3524.039291
197.526956,4737.318029,5847.626942,4596.572988
197.527276,4737.318029,6291.750507,2374.896044
197.527597,4071.132681,6291.750507,1149.143247
197.527917,5921.647536,6809.894666,1991.848295
197.528238,8438.347739,9178.553681,2834.553343
197.528559,7550.100608,10140.821405,1838.629195
197.528879,6957.935855,9918.759623,-383.047749
197.529200,7328.038826,9918.759623,-459.657299
197.529521,6883.915261,9696.697840,2834.553343
197.529842,5847.626942,7105.977043,4366.744339
197.530162,5847.626942,5329.482782,1838.629195
197.530483,3775.050304,4441.235652,-536.266849
197.530804,3997.112087,6217.729913,919.314598
197.531124,4441.235652,7328.038826,2451.505594
197.531445,3775.050304,8290.306550,1762.019645
197.531766,3849.070898,8882.471304,842.705048
197.532086,5033.400406,9918.759623,1302.362347
197.532407,3849.070898,9400.615463,1302.362347
197.532728,2220.617826,8512.368333,2834.553343
197.533049,4441.235652,9696.697840,2374.896044
197.533369,4071.132681,10066.800811,0.000000
197.533690,3627.009116,10214.842000,383.047749
197.534011,4367.215058,10955.047942,2451.505594
197.534331,5107.421000,10955.047942,3524.039291
197.534652,4885.359217,9844.739029,2911.162892
197.534973,5107.421000,7698.141797,1915.238745
197.535294,3849.070898,4737.318029,766.095498
197.535614,5699.585753,4663.297435,2221.676944
197.535935,7846.182985,7105.977043,2221.676944
197.536256,5773.606348,6735.874072,-536.266849
197.536576,6513.812290,7402.059420,-1838.629195
197.536897,8734.430116,9474.636058,-306.438199
197.537218,6661.853478,9178.553681,1378.971896
197.537538,6661.853478,7994.224174,1532.190996
197.537859,6587.832884,6957.935855,-536.266849
197.538180,4737.318029,7105.977043,-1991.848295
197.538501,4145.153275,8512.368333,-536.266849
197.538821,6365.771101,9770.718434,-1762.019645
197.539142,5773.606348,8290.306550,-3370.820191
197.539463,4293.194464,7624.121203,-766.095498
197.539783,5847.626942,8438.347739,1838.629195
197.540104,3256.906145,8290.306550,1762.019645
197.540425,1850.514855,7254.018232,1915.238745
197.540746,3108.864956,7402.059420,689.485948
197.541066,2516.700203,6809.894666,0.000000
197.541387,1480.411884,6365.771101,919.314598
197.541708,3256.906145,7179.997637,229.828649
197.542028,4811.338623,8216.285956,-1838.629195
197.542349,3997.112087,9178.553681,-2221.676944
197.542670,3478.967927,9474.636058,-1608.800546
197.542991,6439.791695,11325.150913,-919.314598
197.543311,4959.379811,10436.903782,153.219100
197.543632,5255.462188,7698.141797,0.000000
197.543953,6735.874072,7254.018232,-1378.971896
197.544273,7328.038826,9030.512492,229.828649
197.544594,5773.606348,9326.594869,689.485948
197.544915,5181.441594,6217.729913,-842.705048
197.545235,5551.544565,4885.359217,-1762.019645
197.545556,5255.462188,5033.400406,-612.876398
197.545877,6291.750507,5329.482782,0.000000
197.546198,6809.894666,4293.194464,-1991.848295
197.546518,7179.997637,6143.709319,-3830.477490
197.546839,8364.327145,11251.130318,-3140.991542
197.547160,7994.224174,14137.933492,-1378.971896
197.547480,6957.935855,13471.748144,0.000000
197.547801,8068.244768,11103.089130,-306.438199
197.548122,6217.729913,8808.450710,-612.876398
197.548443,4737.318029,6587.832884,-153.219100
197.548763,2442.679609,6439.791695,76.609550
197.549084,3256.906145,7920.203579,1225.752797
197.549405,3330.926739,9326.594869,1378.971896
197.549725,2072.576638,7698.141797,-766.095498
197.550046,1406.391290,5181.441594,-1225.752797
197.550367,2960.823768,5551.544565,1915.238745
197.550687,4885.359217,8142.265362,2757.943793
197.551008,4959.379811,9992.780217,0.000000
197.551329,3775.050304,10955.047942,-2757.943793
197.551650,5329.482782,12361.439231,-1532.190996
197.551970,5847.626942,11325.150913,0.000000
197.552291,5033.400406,9474.636058,-229.828649
197.552612,4441.235652,7846.182985,-1915.238745
197.552932,3478.967927,7328.038826,-2145.067394
197.553253,4737.318029,7105.977043,-536.266849
197.553574,5625.565159,7772.162391,995.924147
197.553895,5625.565159,6735.874072,-689.485948
197.554215,3552.988522,3627.009116,-1608.800546
197.554536,5181.441594,1850.514855,-612.876398
197.554857,6957.935855,3701.029710,306.438199
197.555177,6439.791695,7624.121203,-229.828649
197.555498,9178.553681,11177.109724,-1838.629195
197.555819,8808.450710,12287.418637,-4060.306139
197.556140,5329.482782,9770.718434,-3907.087040
197.556460,5625.565159,7105.977043,-1608.800546
197.556781,5699.585753,4811.338623,1455.581446
197.557102,3552.988522,4959.379811,2681.334243
197.557422,3997.112087,8734.430116,766.095498
197.557743,3627.009116,10288.862594,-2987.772442
197.558064,1776.494261,7698.141797,-4366.744339
197.558384,1998.556043,5329.482782,-919.314598
197.558705,4811.338623,4811.338623,2221.676944
197.559026,4367.215058,6735.874072,1378.971896
197.559347,3701.029710,9770.718434,0.000000
197.559667,4293.194464,11399.171507,-1838.629195
197.559988,4737.318029,10732.986159,-919.314598
197.560309,6143.709319,10732.986159,306.438199
197.560629,4737.318029,11029.068536,612.876398
197.560950,5033.400406,10955.047942,1762.019645
197.561271,5107.421000,10584.944971,1838.629195
197.561592,5107.421000,9474.636058,153.219100
197.561912,3849.070898,7772.162391,-995.924147
197.562233,3034.844362,6291.750507,-383.047749
197.562554,4737.318029,5847.626942,-153.219100
197.562874,4737.318029,5551.544565,229.828649
197.563195,5995.668130,7402.059420,536.266849
197.563516,6587.832884,7624.121203,229.828649
197.563836,5921.647536,8956.491898,-1455.581446
197.564157,7772.162391,11991.336260,-1455.581446
197.564478,7031.956449,13397.727550,-995.924147
197.564799,6143.709319,11325.150913,-306.438199
197.565119,8660.409521,9326.594869,1072.533697
197.565440,7624.121203,8586.388927,2834.553343
197.565761,2886.803174,7328.038826,2451.505594
197.566081,2146.597232,5699.585753,306.438199
197.566402,4663.297435,6365.771101,-1302.362347
197.566723,4589.276840,7328.038826,-383.047749
197.567044,2886.803174,4589.276840,536.266849
197.567364,4367.215058,2886.803174,1072.533697
197.567685,5255.462188,4663.297435,1915.238745
197.568006,5551.544565,8068.244768,1302.362347
197.568326,6661.853478,10510.924376,-1915.238745
197.568647,5773.606348,10214.842000,-5132.839837
197.568968,6365.771101,9474.636058,-2374.896044
197.569289,7328.038826,7624.121203,1685.410096
197.569609,5255.462188,4811.338623,0.000000
197.569930,3997.112087,4885.359217,-2757.943793
197.570251,4071.132681,9474.636058,-3217.601092
197.570571,5181.441594,10584.944971,-1225.752797
197.570892,3627.009116,6957.935855,612.876398
197.571213,2886.803174,3552.988522,459.657299
197.571533,1406.391290,1184.329507,612.876398
197.571854,2368.659014,2738.761985,1225.752797
197.572175,3997.112087,8142.265362,689.485948
197.572496,1924.535449,9622.677246,-2451.505594
197.572816,5329.482782,10140.821405,-3370.820191
197.573137,7994.224174,10436.903782,-2681.334243
197.573458,4293.194464,9992.780217,-1532.190996
197.573778,4441.235652,11843.295072,-229.828649
197.574099,5477.523971,12435.459826,-1225.752797
197.574420,2886.803174,10140.821405,-2451.505594
197.574741,3478.967927,7328.038826,0.000000
197.575061,7254.018232,7994.224174,1685.410096
197.575382,3404.947333,7328.038826,-1532.190996
197.575703,296.082377,6217.729913,-2528.115143
197.576023,6143.709319,6365.771101,-2451.505594
197.576344,7846.182985,6809.894666,-919.314598
197.576665,7105.977043,8364.327145,2987.772442
197.576986,9178.553681,9918.759623,1915.238745
197.577306,7105.977043,11473.192101,-2374.896044
197.577627,5255.462188,12065.356855,-2451.505594
197.577948,5773.606348,9992.780217,-229.828649
197.578268,9178.553681,7328.038826,766.095498
197.578589,8586.388927,8660.409521,919.314598
197.578910,5995.668130,11695.253884,-1455.581446
197.579230,3775.050304,11251.130318,-4749.792088
197.579551,1554.432478,6365.771101,-3447.429741
197.579872,4737.318029,5255.462188,1302.362347
197.580193,6143.709319,5403.503377,4366.744339
197.580513,4663.297435,7476.080014,2374.896044
197.580834,3478.967927,8734.430116,-1378.971896
197.581155,4589.276840,11251.130318,-2298.286494
197.581475,5551.544565,9548.656652,-766.095498
197.581796,6069.688724,7031.956449,536.266849
197.582117,6735.874072,7105.977043,383.047749
197.582438,5181.441594,9918.759623,995.924147
197.582758,2368.659014,10288.862594,229.828649
197.583079,4515.256246,9178.553681,-1532.190996
197.583400,5477.523971,8512.368333,-306.438199
197.583720,5107.421000,9104.533087,1991.848295
197.584041,4145.153275,7994.224174,1455.581446
197.584362,3182.885551,7698.141797,459.657299
197.584682,3330.926739,6809.894666,1302.362347
197.585003,2960.823768,5329.482782,1991.848295
197.585324,4515.256246,4663.297435,1685.410096
197.585645,3775.050304,4367.215058,2145.067394
197.585965,4441.235652,5403.503377,1455.581446
197.586286,5107.421000,6735.874072,76.609550
197.586607,4885.359217,8438.347739,-1378.971896
197.586927,6365.771101,11177.109724,-995.924147
197.587248,8142.265362,12287.418637,-306.438199
197.587569,8142.265362,10881.027347,-306.438199
197.587890,7402.059420,9104.533087,76.609550
197.588210,3701.029710,6513.812290,1149.143247
197.588531,1110.308913,4367.215058,2987.772442
197.588852,2812.782580,4959.379811,3064.381992
197.589172,5255.462188,6513.812290,2374.896044
197.589493,3627.009116,6809.894666,-383.047749
197.589814,1406.391290,4885.359217,-2374.896044
197.590135,1332.370696,3182.885551,-306.438199
197.590455,4885.359217,4293.194464,3907.087040
197.590776,7624.121203,8068.244768,4366.744339
197.591097,7476.080014,11991.336260,-1455.581446
197.591417,4737.318029,13841.851115,-5592.497135
197.591738,5107.421000,11621.233289,-3064.381992
197.592059,7105.977043,8734.430116,919.314598
197.592379,9030.512492,7105.977043,3753.867940
197.592700,5921.647536,6143.709319,383.047749
197.593021,2072.576638,6587.832884,-4749.792088
197.593342,2812.782580,8586.388927,-3370.820191
197.593662,3404.947333,7772.162391,1225.752797
197.593983,4367.215058,3552.988522,2987.772442
197.594304,7254.018232,4737.318029,842.705048
197.594624,5921.647536,7105.977043,-1149.143247
197.594945,3552.988522,8882.471304,-2374.896044
197.595266,5477.523971,9844.739029,-2298.286494
197.595587,7624.121203,10584.944971,-842.705048
197.595907,7994.224174,12731.542202,536.266849
197.596228,7179.997637,12361.439231,-306.438199
197.596549,4219.173869,7550.100608,-2987.772442
197.596869,4145.153275,5921.647536,-612.876398
197.597190,4811.338623,7031.956449,2298.286494
197.597511,2590.720797,8512.368333,-383.047749
197.597831,2590.720797,10362.883188,-3830.477490
197.598152,5255.462188,11991.336260,-3294.210641
197.598473,4737.318029,8734.430116,-2068.457845
197.598794,4737.318029,4737.318029,1149.143247
197.599114,6439.791695,7254.018232,2681.334243
197.599435,4589.276840,11177.109724,-459.657299
197.599756,3627.009116,13175.665768,-1915.238745
197.600076,6735.874072,12657.521608,-995.924147
197.600397,6957.935855,8734.430116,842.705048
197.600718,5329.482782,6069.688724,3677.258390
197.601039,5033.400406,7698.141797,3524.039291
197.601359,1850.514855,9030.512492,-1685.410096
197.601680,3923.091493,10436.903782,-3753.867940
197.602001,6735.874072,9178.553681,-1532.190996
197.602321,4071.132681,4589.276840,-229.828649
197.602642,2368.659014,1998.556043,306.438199
197.602963,4145.153275,5551.544565,536.266849
197.603284,4367.215058,9104.533087,-919.314598
197.603604,7105.977043,11103.089130,-1225.752797
197.603925,8882.471304,12435.459826,-1072.533697
197.604246,8142.265362,12731.542202,-1608.800546
197.604566,5551.544565,10807.006753,766.095498
197.604887,3997.112087,7402.059420,2987.772442
197.605208,4737.318029,4885.359217,3447.429741
197.605528,3923.091493,5625.565159,2374.896044
197.605849,6069.688724,6439.791695,1149.143247
197.606170,3256.906145,5921.647536,-306.438199
197.606491,2072.576638,5403.503377,229.828649
197.606811,5847.626942,6513.812290,842.705048
197.607132,5921.647536,4737.318029,1455.581446
197.607453,5551.544565,3404.947333,1608.800546
197.607773,7624.121203,7031.956449,1455.581446
197.608094,7402.059420,11029.068536,229.828649
197.608415,4737.318029,10807.006753,-1149.143247
197.608736,4959.379811,8956.491898,-2298.286494
197.609056,8586.388927,7772.162391,383.047749
197.609377,7254.018232,7328.038826,4596.572988
197.609698,4737.318029,6809.894666,3600.648841
197.610018,2812.782580,7402.059420,-2145.067394
197.610339,1850.514855,8882.471304,-2221.676944
197.610660,2812.782580,7624.121203,2604.724693
197.610980,4145.153275,5181.441594,3217.601092
197.611301,3552.988522,1776.494261,1991.848295
197.611622,1998.556043,3997.112087,1608.800546
197.611943,1998.556043,7105.977043,0.000000
197.612263,1406.391290,8808.450710,-2145.067394
197.612584,4737.318029,10510.924376,-2834.553343
197.612905,8290.306550,12805.562797,-1608.800546
197.613225,6069.688724,12435.459826,-459.657299
197.613546,2146.597232,9696.697840,766.095498
197.613867,4811.338623,10436.903782,1455.581446
197.614188,4367.215058,10658.965565,0.000000
197.614508,4737.318029,9252.574275,-536.266849
197.614829,7105.977043,7698.141797,-766.095498
197.615150,4737.318029,6143.709319,536.266849
197.615470,1110.308913,3182.885551,1762.019645
197.615791,1998.556043,1184.329507,536.266849
197.616112,7105.977043,4663.297435,-689.485948
197.616433,6439.791695,7994.224174,-383.047749
197.616753,8734.430116,10658.965565,-2298.286494
197.617074,10362.883188,12805.562797,-4903.011187
197.617395,7624.121203,14582.057057,-2298.286494
197.617715,7624.121203,14582.057057,2757.943793
197.618036,9030.512492,10288.862594,1072.533697
197.618357,5847.626942,6365.771101,-2221.676944
197.618677,4811.338623,6143.709319,-2068.457845
197.618998,4663.297435,8438.347739,76.609550
197.619319,4515.256246,9252.574275,1915.238745
197.619640,3404.947333,9326.594869,2221.676944
197.619960,4367.215058,6957.935855,-995.924147
197.620281,3627.009116,3552.988522,-2987.772442
197.620602,2368.659014,2442.679609,1072.533697
197.620922,4959.379811,6513.812290,3830.477490
197.621243,6513.812290,11029.068536,306.438199
197.621564,5921.647536,13101.645173,-3600.648841
197.621885,7031.956449,13915.871710,-3677.258390
197.622205,7402.059420,13175.665768,-612.876398
197.622526,6513.812290,10732.986159,2068.457845
197.622847,3256.906145,5847.626942,536.266849
197.623167,3701.029710,3182.885551,-1378.971896
197.623488,3404.947333,4959.379811,-766.095498
197.623809,3256.906145,6587.832884,1762.019645
197.624130,2886.803174,6587.832884,612.876398
197.624450,2220.617826,6365.771101,-2221.676944
197.624771,3034.844362,5403.503377,-1915.238745
197.625092,5107.421000,5403.503377,919.314598
197.625412,7105.977043,7624.121203,2068.457845
197.625733,6957.935855,10288.862594,459.657299
197.626054,3849.070898,9844.739029,-2987.772442
197.626374,4071.132681,9178.553681,-5056.230287
197.626695,4737.318029,9252.574275,-4213.525239
197.627016,6587.832884,7698.141797,229.828649
197.627337,8586.388927,7402.059420,3217.601092
197.627657,6513.812290,8364.327145,995.924147
197.627978,2738.761985,10066.800811,-1302.362347
197.628299,2368.659014,8734.430116,-766.095498
197.628619,5477.523971,5403.503377,383.047749
197.628940,5255.462188,1924.535449,536.266849
197.629261,5255.462188,2294.638420,536.266849
197.629582,8290.306550,7105.977043,842.705048
197.629902,5329.482782,12065.356855,306.438199
197.630223,4589.276840,11917.315666,1149.143247
197.630544,7772.162391,11621.233289,-842.705048
197.630864,5181.441594,9178.553681,-2528.115143
197.631185,1628.453072,6143.709319,0.000000
197.631506,4367.215058,5773.606348,4596.572988
197.631827,7772.162391,8882.471304,4519.963438
197.632147,2664.741391,10510.924376,-1072.533697
197.632468,1332.370696,11029.068536,-6205.373534
197.632789,3701.029710,9400.615463,-5898.935335
197.633110,3552.988522,7179.997637,1072.533697
197.633430,5033.400406,5995.668130,6818.249932
197.633751,7624.121203,5995.668130,3064.381992
197.634072,5625.565159,8290.306550,-1072.533697
197.634392,2886.803174,10881.027347,-842.705048
197.634713,4441.235652,10807.006753,0.000000
197.635034,6957.935855,7994.224174,-459.657299
197.635355,5995.668130,7179.997637,229.828649
197.635675,5033.400406,7476.080014,1532.190996
197.635996,5551.544565,8882.471304,-229.828649
197.636317,4293.194464,8216.285956,-1532.190996
197.636638,4589.276840,6957.935855,-3064.381992
197.636958,4293.194464,5329.482782,-3983.696590
197.637279,4885.359217,5107.421000,-1762.019645
197.637600,5995.668130,6439.791695,1225.752797
197.637920,7179.997637,8216.285956,2374.896044
197.638241,7920.203579,9992.780217,689.485948
197.638562,5181.441594,8882.471304,-2604.724693
197.638883,5033.400406,8882.471304,-4366.744339
197.639203,7105.977043,9770.718434,-536.266849
197.639524,6291.750507,6513.812290,1762.019645
197.639845,6365.771101,4811.338623,612.876398
197.640165,2590.720797,7698.141797,-689.485948
197.640486,2146.597232,9474.636058,-229.828649
197.640807,3775.050304,8142.265362,153.219100
197.641128,4441.235652,7031.956449,-2528.115143
197.641448,2886.803174,5921.647536,-3983.696590
197.641769,3108.864956,6883.915261,-1378.971896
197.642090,4737.318029,7846.182985,1455.581446
197.642411,4811.338623,8586.388927,995.924147
197.642731,8290.306550,11103.089130,-766.095498
197.643052,8068.244768,12657.521608,-3447.429741
197.643373,2738.761985,9622.677246,-3600.648841
197.643693,3997.112087,7698.141797,1455.581446
197.644014,7328.038826,8734.430116,4060.306139
197.644335,4737.318029,8142.265362,1455.581446
197.644656,3997.112087,8290.306550,-1915.238745
197.644976,3701.029710,7846.182985,-3983.696590
197.645297,2886.803174,6365.771101,-2681.334243
197.645618,1998.556043,5107.421000,-383.047749
197.645938,3478.967927,5847.626942,153.219100
197.646259,5255.462188,8956.491898,919.314598
197.646580,4515.256246,11695.253884,766.095498
197.646901,5551.544565,11843.295072,-1455.581446
197.647221,6735.874072,13175.665768,-2528.115143
197.647542,5403.503377,12361.439231,-612.876398
197.647863,5255.462188,11103.089130,919.314598
197.648184,5477.523971,9622.677246,1302.362347
197.648504,4737.318029,7254.018232,1455.581446
197.648825,2516.700203,3923.091493,536.266849
197.649146,4959.379811,3849.070898,612.876398
197.649466,4145.153275,6587.832884,459.657299
197.649787,2146.597232,8290.306550,-459.657299
197.650108,7179.997637,7179.997637,-689.485948
197.650429,9030.512492,6439.791695,383.047749
197.650749,7624.121203,5403.503377,1685.410096
197.651070,5551.544565,6439.791695,0.000000
197.651391,6661.853478,8734.430116,-3447.429741
197.651712,6957.935855,9770.718434,-2987.772442
197.652032,8290.306550,9696.697840,-1302.362347
197.652353,8586.388927,8512.368333,1838.629195
197.652674,6069.688724,8512.368333,2757.943793
197.652994,3330.926739,8216.285956,1991.848295
197.653315,1850.514855,7254.018232,-1532.190996
197.653636,1702.473667,5255.462188,-3830.477490
197.653957,2812.782580,4071.132681,-1608.800546
197.654277,2072.576638,3256.906145,995.924147
197.654598,3404.947333,4737.318029,1991.848295
197.654919,3404.947333,8512.368333,0.000000
197.655239,2368.659014,9770.718434,-1838.629195
197.655560,4515.256246,8808.450710,-689.485948
197.655881,7031.956449,9918.759623,1838.629195
197.656202,6661.853478,11251.130318,1532.190996
197.656522,3404.947333,10807.006753,-612.876398
197.656843,4441.235652,9622.677246,-1991.848295
197.657164,5995.668130,8734.430116,-2221.676944
197.657485,4441.235652,6809.894666,-1608.800546
197.657805,4737.318029,5107.421000,-1991.848295
197.658126,5477.523971,5921.647536,-1762.019645
197.658447,3552.988522,6587.832884,689.485948
197.658767,4441.235652,7105.977043,1991.848295
197.659088,5847.626942,6143.709319,-153.219100
197.659409,5329.482782,5847.626942,-2145.067394
197.659730,5699.585753,7624.121203,-919.314598
197.660050,7846.182985,12361.439231,-612.876398
197.660371,8364.327145,15544.324782,-2221.676944
197.660692,5995.668130,13471.748144,-3447.429741
197.661013,4885.359217,8142.265362,-2298.286494
197.661333,5403.503377,7772.162391,1225.752797
197.661654,2960.823768,8882.471304,5286.058936
197.661975,2294.638420,8438.347739,2145.067394
197.662295,4219.173869,8142.265362,-3830.477490
197.662616,3330.926739,8586.388927,-3983.696590
197.662937,1776.494261,7476.080014,229.828649
197.663258,4885.359217,5551.544565,2987.772442
197.663578,8068.244768,6143.709319,2681.334243
197.663899,4885.359217,8290.306550,-536.266849
197.664220,5181.441594,8956.491898,-3140.991542
197.664540,7179.997637,10066.800811,-2451.505594
197.664861,7920.203579,10658.965565,842.705048
197.665182,9992.780217,11251.130318,2911.162892
197.665503,9178.553681,11473.192101,153.219100
197.665823,4737.318029,8512.368333,-2145.067394
197.666144,2442.679609,5477.523971,-766.095498
197.666465,4663.297435,3552.988522,153.219100
197.666786,5107.421000,3775.050304,-536.266849
197.667106,2072.576638,4811.338623,-1608.800546
197.667427,3997.112087,7254.018232,-995.924147
197.667748,6291.750507,8956.491898,1302.362347
197.668068,3849.070898,7550.100608,2298.286494
197.668389,3701.029710,7402.059420,-76.609550
197.668710,4441.235652,8882.471304,-3370.820191
197.669031,4441.235652,11029.068536,-3217.601092
197.669351,5329.482782,11843.295072,-1838.629195
197.669672,5921.647536,9400.615463,0.000000
197.669993,4071.132681,6809.894666,1608.800546
197.670313,4071.132681,8290.306550,3064.381992
197.670634,2368.659014,10140.821405,1608.800546
197.670955,962.267725,8586.388927,-1838.629195
197.671276,4663.297435,7105.977043,-612.876398
197.671596,4219.173869,3849.070898,1838.629195
197.671917,2960.823768,74.020594,2911.162892
197.672238,4737.318029,3330.926739,2681.334243
197.672559,3849.070898,8068.244768,-383.047749
197.672879,3627.009116,9178.553681,-2834.553343
197.673200,8586.388927,11103.089130,-2834.553343
197.673521,10881.027347,13989.892304,-995.924147
197.673841,6291.750507,11843.295072,995.924147
197.674162,6809.894666,8586.388927,689.485948
197.674483,6291.750507,7031.956449,-995.924147
197.674804,2516.700203,6143.709319,-1149.143247
197.675124,3330.926739,5995.668130,0.000000
197.675445,6439.791695,7105.977043,-459.657299
197.675766,3701.029710,7698.141797,153.219100
197.676087,3404.947333,7550.100608,1838.629195
197.676407,4367.215058,4071.132681,-995.924147
197.676728,3701.029710,2738.761985,-919.314598
197.677049,5329.482782,7698.141797,2145.067394
197.677369,5995.668130,11769.274478,-459.657299
197.677690,5255.462188,12065.356855,-4673.182538
197.678011,6069.688724,12583.501014,-2374.896044
197.678332,7179.997637,11029.068536,995.924147
197.678652,6291.750507,8364.327145,4136.915689
197.678973,4737.318029,7772.162391,3370.820191
197.679294,4293.194464,10807.006753,-2145.067394
197.679614,3404.947333,11769.274478,-3753.867940
197.679935,4293.194464,8438.347739,0.000000
197.680256,5847.626942,5847.626942,1762.019645
197.680577,5477.523971,4441.235652,3753.867940
197.680897,4737.318029,4219.173869,3294.210641
197.681218,3404.947333,5181.441594,0.000000
197.681539,4219.173869,7476.080014,-2145.067394
197.681860,6661.853478,9548.656652,459.657299
197.682180,10584.944971,11473.192101,1762.019645
197.682501,10510.924376,12361.439231,1608.800546
197.682822,6217.729913,12583.501014,536.266849
197.683142,5921.647536,10066.800811,612.876398
197.683463,5329.482782,7031.956449,-229.828649
197.683784,4145.153275,4959.379811,0.000000
197.684105,3404.947333,4367.215058,-995.924147
197.684425,3108.864956,5773.606348,-1608.800546
197.684746,3404.947333,7031.956449,612.876398
197.685067,3478.967927,5847.626942,1838.629195
197.685387,5477.523971,5995.668130,1532.190996
197.685708,4737.318029,6735.874072,383.047749
197.686029,2146.597232,7920.203579,-1225.752797
197.686350,5699.585753,10066.800811,-1532.190996
197.686670,5625.565159,10214.842000,-536.266849
197.686991,4145.153275,7698.141797,-153.219100
197.687312,5033.400406,6143.709319,-919.314598
197.687633,4589.276840,6513.812290,-229.828649
197.687953,2368.659014,7994.224174,995.924147
197.688274,2368.659014,10066.800811,-383.047749
197.688595,4441.235652,8586.388927,-1608.800546
197.688915,3330.926739,6291.750507,-306.438199
197.689236,3478.967927,3552.988522,766.095498
197.689557,3997.112087,3108.864956,306.438199
197.689878,4071.132681,5477.523971,-536.266849
197.690198,4737.318029,8734.430116,-1225.752797
197.690519,5773.606348,11769.274478,-2834.553343
197.690840,6365.771101,12065.356855,-1302.362347
197.691161,8290.306550,11843.295072,459.657299
197.691481,6883.915261,9696.697840,536.266849
197.691802,3997.112087,6809.894666,-536.266849
197.692123,4589.276840,6809.894666,0.000000
197.692443,6291.750507,8290.306550,919.314598
197.692764,6291.750507,9770.718434,1378.971896
197.693085,5403.503377,9400.615463,76.609550
197.693406,5181.441594,7105.977043,-1915.238745
197.693726,4737.318029,5625.565159,-842.705048
197.694047,4959.379811,4071.132681,1915.238745
197.694368,6587.832884,5403.503377,1685.410096
197.694688,5773.606348,8142.265362,-1991.848295
197.695009,5773.606348,11917.315666,-3907.087040
197.695330,7105.977043,14063.912898,-3217.601092
197.695651,7772.162391,12583.501014,-1838.629195
197.695971,7105.977043,11473.192101,-842.705048
197.696292,6661.853478,11177.109724,1378.971896
197.696613,3775.050304,9622.677246,1302.362347
197.696934,2294.638420,6735.874072,536.266849
197.697254,3923.091493,4737.318029,-536.266849
197.697575,1702.473667,4293.194464,-2681.334243
197.697896,1776.494261,3701.029710,-1991.848295
197.698216,5773.606348,5625.565159,0.000000
197.698537,5847.626942,8068.244768,1302.362347
197.698858,6587.832884,10807.006753,306.438199
197.699179,7105.977043,11547.212695,-1915.238745
197.699499,4367.215058,10881.027347,-3064.381992
197.699820,4885.359217,11621.233289,-306.438199
197.700141,6143.709319,10140.821405,1378.971896
197.700462,6365.771101,6809.894666,536.266849
197.700782,5625.565159,6809.894666,766.095498
197.701103,4145.153275,8882.471304,-153.219100
197.701424,1850.514855,8512.368333,-1378.971896
197.701744,1406.391290,7105.977043,-919.314598
197.702065,4071.132681,4737.318029,-459.657299
197.702386,4441.235652,3404.947333,0.000000
197.702707,5033.400406,4737.318029,2451.505594
197.703027,5255.462188,8882.471304,2145.067394
197.703348,5477.523971,13101.645173,0.000000
197.703669,6809.894666,13841.851115,0.000000
197.703989,7105.977043,12139.377449,0.000000
197.704310,6439.791695,9030.512492,1608.800546
197.704631,3849.070898,3997.112087,3370.820191
197.704952,4293.194464,3034.844362,2145.067394
197.705272,3552.988522,5107.421000,0.000000
197.705593,1850.514855,8142.265362,-2451.505594
197.705914,5551.544565,8438.347739,-1838.629195
197.706235,7624.121203,7994.224174,-383.047749
197.706555,3256.906145,6291.750507,459.657299
197.706876,3775.050304,5921.647536,1072.533697
197.707197,6439.791695,7402.059420,919.314598
197.707517,6661.853478,9104.533087,1608.800546
197.707838,7254.018232,10214.842000,842.705048
197.708159,7105.977043,9992.780217,-1915.238745
197.708480,4589.276840,7772.162391,-2681.334243
197.708800,2146.597232,6217.729913,1532.190996
197.709121,6587.832884,5921.647536,5132.839837
197.709442,5329.482782,6291.750507,2451.505594
197.709762,2886.803174,7105.977043,-1302.362347
197.710083,3627.009116,8438.347739,-2911.162892
197.710404,2738.761985,6365.771101,-1838.629195
197.710725,1184.329507,2812.782580,0.000000
197.711045,4959.379811,2960.823768,-1455.581446
197.711366,7920.203579,6069.688724,-2451.505594
197.711687,7254.018232,11695.253884,-842.705048
197.712008,6365.771101,13915.871710,-995.924147
197.712328,6291.750507,11769.274478,-2757.943793
197.712649,5477.523971,10066.800811,-2374.896044
197.712970,5255.462188,6661.853478,306.438199
197.713290,5181.441594,6513.812290,2451.505594
197.713611,4515.256246,8068.244768,1915.238745
197.713932,4811.338623,9770.718434,0.000000
197.714253,5477.523971,9178.553681,-1915.238745
197.714573,3701.029710,7031.956449,-1532.190996
197.714894,3108.864956,5625.565159,-306.438199
197.715215,3552.988522,4367.215058,1149.143247
197.715536,7254.018232,5625.565159,1608.800546
197.715856,6217.729913,7624.121203,0.000000
197.716177,4959.379811,11695.253884,-2681.334243
197.716498,6957.935855,16136.489536,-3830.477490
197.716818,8364.327145,17468.860231,-2451.505594
197.717139,6587.832884,13471.748144,0.000000
197.717460,5699.585753,8216.285956,1608.800546
197.717781,5921.647536,5625.565159,1455.581446
197.718101,2368.659014,6291.750507,0.000000
197.718422,1628.453072,7105.977043,-766.095498
197.718743,4663.297435,7920.203579,-766.095498
197.719063,3775.050304,7105.977043,-536.266849
197.719384,3034.844362,6143.709319,1072.533697
197.719705,6513.812290,6735.874072,2451.505594
197.720026,4885.359217,6069.688724,689.485948
197.720346,5033.400406,8068.244768,-2451.505594
197.720667,7402.059420,11843.295072,-4443.353888
197.720988,7994.224174,13101.645173,-3830.477490
197.721309,5773.606348,10288.862594,-919.314598
197.721629,7476.080014,8586.388927,3600.648841
197.721950,5921.647536,8734.430116,3753.867940
197.722271,3330.926739,7624.121203,919.314598
197.722591,3182.885551,6883.915261,-3064.381992
197.722912,3256.906145,5625.565159,-3294.210641
197.723233,3775.050304,4441.235652,1838.629195
197.723554,3775.050304,4219.173869,2757.943793
197.723874,1850.514855,3108.864956,306.438199
197.724195,1924.535449,2664.741391,-383.047749
197.724516,4663.297435,6883.915261,-153.219100
197.724836,6365.771101,9622.677246,-1149.143247
197.725157,5255.462188,11103.089130,-1378.971896
197.725478,7328.038826,13249.686362,-383.047749
197.725799,6957.935855,11917.315666,-229.828649
197.726119,3034.844362,8068.244768,0.000000
197.726440,4811.338623,5921.647536,153.219100
197.726761,4367.215058,5921.647536,-1915.238745
197.727082,740.205942,4885.359217,-1455.581446
197.727402,3478.967927,5329.482782,-612.876398
197.727723,4367.215058,5625.565159,-1532.190996
197.728044,3552.988522,6587.832884,0.000000
197.728364,3997.112087,6439.791695,1991.848295
197.728685,5329.482782,6809.894666,612.876398
197.729006,5699.585753,9474.636058,766.095498
197.729327,5921.647536,11177.109724,1072.533697
197.729647,7698.141797,9104.533087,-1072.533697
197.729968,7624.121203,9474.636058,-2757.943793
197.730289,3552.988522,9400.615463,-3217.601092
197.730610,3330.926739,8068.244768,-2451.505594
197.730930,7624.121203,7328.038826,689.485948
197.731251,5921.647536,8882.471304,2374.896044
197.731572,4885.359217,10362.883188,536.266849
197.731893,5033.400406,10807.006753,-1455.581446
197.732213,3997.112087,9030.512492,-2451.505594
197.732534,2146.597232,4367.215058,383.047749
197.732855,6513.812290,3182.885551,2374.896044
197.733176,7328.038826,5847.626942,383.047749
197.733496,5477.523971,10658.965565,-1455.581446
197.733817,5477.523971,13767.830521,-2834.553343
197.734138,6957.935855,12731.542202,-2757.943793
197.734459,8142.265362,11843.295072,0.000000
197.734779,5773.606348,9770.718434,2757.943793
197.735100,6809.894666,8438.347739,2451.505594
197.735421,4811.338623,9622.677246,842.705048
197.735742,2442.679609,9992.780217,-1455.581446
197.736062,3478.967927,7920.203579,-1378.971896
197.736383,5477.523971,7179.997637,-1532.190996
197.736704,3997.112087,6587.832884,-536.266849
197.737025,3552.988522,6661.853478,2451.505594
197.737346,6365.771101,7994.224174,3294.210641
197.737666,5329.482782,8882.471304,1532.190996
197.737987,2812.782580,7772.162391,-383.047749
197.738308,6291.750507,10066.800811,-229.828649
197.738629,6217.729913,10140.821405,-995.924147
197.738949,4441.235652,8142.265362,1302.362347
197.739270,6439.791695,7328.038826,2528.115143
197.739591,5699.585753,7105.977043,0.000000
197.739912,2368.659014,6735.874072,-766.095498
197.740232,3108.864956,6217.729913,-612.876398
197.740553,4885.359217,4959.379811,-1608.800546
197.740874,3108.864956,2960.823768,-1302.362347
197.741195,2886.803174,3108.864956,76.609550
197.741515,6883.915261,5625.565159,1532.190996
197.741836,4959.379811,8216.285956,1685.410096
197.742157,4959.379811,9696.697840,-1072.533697
197.742478,6661.853478,11103.089130,-4213.525239
197.742798,5625.565159,10066.800811,-3907.087040
197.743119,3923.091493,7105.977043,76.609550
197.743440,5847.626942,5847.626942,2451.505594
197.743761,4737.318029,5329.482782,2298.286494
197.744082,2516.700203,7031.956449,766.095498
197.744402,2294.638420,8290.306550,-1302.362347
197.744723,2812.782580,7994.224174,-689.485948
197.745044,3552.988522,7994.224174,1302.362347
197.745365,4293.194464,4959.379811,919.314598
197.745685,5033.400406,4293.194464,-766.095498
197.746006,5181.441594,4811.338623,919.314598
197.746327,5181.441594,9400.615463,766.095498
197.746648,4589.276840,10955.047942,-1608.800546
197.746968,7402.059420,11473.192101,-1762.019645
197.747289,8882.471304,12953.603985,-1378.971896
197.747610,6735.874072,11621.233289,-1378.971896
197.747931,4811.338623,8734.430116,383.047749
197.748251,6069.688724,8438.347739,919.314598
197.748572,4071.132681,8216.285956,383.047749
197.748893,2516.700203,7994.224174,-536.266849
197.749214,3404.947333,6883.915261,-1302.362347
197.749534,3849.070898,8216.285956,-2374.896044
197.749855,1406.391290,7624.121203,153.219100
197.750176,4737.318029,5625.565159,1838.629195
197.750497,8586.388927,8882.471304,766.095498
197.750818,7105.977043,14211.954086,766.095498
197.751138,5255.462188,15470.304188,-842.705048
197.751459,6809.894666,11917.315666,-3064.381992
197.751780,7328.038826,9030.512492,-1608.800546
197.752101,3923.091493,5847.626942,2604.724693
197.752421,7624.121203,4737.318029,2451.505594
197.752742,6513.812290,7402.059420,-842.705048
197.753063,3775.050304,10436.903782,-1072.533697
197.753384,4219.173869,9918.759623,-536.266849
197.753704,6217.729913,7550.100608,-1378.971896
197.754025,4293.194464,3627.009116,612.876398
197.754346,4811.338623,2960.823768,1762.019645
197.754667,7105.977043,4811.338623,76.609550
197.754987,5033.400406,7994.224174,-3447.429741
197.755308,2220.617826,8586.388927,-4673.182538
197.755629,7846.182985,11695.253884,-2451.505594
197.755950,7994.224174,11917.315666,-153.219100
197.756271,3108.864956,9548.656652,536.266849
197.756591,4219.173869,7772.162391,229.828649
197.756912,4959.379811,7105.977043,229.828649
197.757233,1924.535449,5625.565159,2604.724693
197.757554,222.061783,5477.523971,1991.848295
197.757874,4515.256246,7179.997637,-2451.505594
197.758195,3552.988522,7624.121203,-3753.867940
197.758516,370.102971,5403.503377,-689.485948
197.758837,6513.812290,3627.009116,2757.943793
197.759157,7920.203579,5995.668130,3370.820191
197.759478,3775.050304,9104.533087,1302.362347
197.759799,4367.215058,11103.089130,-2681.334243
197.760120,7179.997637,11769.274478,-2528.115143
197.760440,7105.977043,10510.924376,1455.581446
197.760761,6217.729913,8586.388927,3064.381992
197.761082,7105.977043,7698.141797,76.609550
197.761403,4219.173869,9622.677246,-1608.800546
197.761723,3404.947333,10140.821405,-76.609550
197.762044,5255.462188,6883.915261,536.266849
197.762365,4663.297435,4145.153275,536.266849
197.762686,1554.432478,3034.844362,1149.143247
197.763007,2516.700203,6439.791695,1762.019645
197.763327,6735.874072,10140.821405,2911.162892
197.763648,7698.141797,12213.398043,2987.772442
197.763969,8142.265362,11473.192101,0.000000
197.764290,7328.038826,9844.739029,-2528.115143
197.764610,4737.318029,10066.800811,-1149.143247
197.764931,3701.029710,8808.450710,2145.067394
197.765252,5625.565159,6883.915261,3370.820191
197.765573,7920.203579,6513.812290,766.095498
197.765893,4737.318029,7994.224174,-1072.533697
197.766214,814.226536,9178.553681,-1302.362347
197.766535,1998.556043,8734.430116,-383.047749
197.766856,3775.050304,5921.647536,-766.095498
197.767176,2516.700203,3182.885551,-1532.190996
197.767497,6143.709319,3849.070898,-383.047749
197.767818,5921.647536,9400.615463,0.000000
197.768139,3627.009116,11251.130318,306.438199
197.768460,5551.544565,11843.295072,766.095498
197.768780,7550.100608,11547.212695,-2145.067394
197.769101,5033.400406,8364.327145,-1915.238745
197.769422,3775.050304,5773.606348,1991.848295
197.769743,5403.503377,3701.029710,3524.039291
197.770063,2960.823768,4959.379811,1149.143247
197.770384,2886.803174,6661.853478,-2068.457845
197.770705,4663.297435,8660.409521,-3907.087040
197.771026,4811.338623,8956.491898,-2604.724693
197.771346,4219.173869,5921.647536,383.047749
197.771667,7031.956449,4737.318029,1608.800546
197.771988,7698.141797,6809.894666,0.000000
197.772309,6661.853478,12287.418637,-1762.019645
197.772629,7476.080014,14063.912898,-2681.334243
197.772950,8808.450710,12213.398043,-1378.971896
197.773271,8956.491898,10436.903782,1149.143247
197.773592,5255.462188,6513.812290,2987.772442
197.773912,4145.153275,4145.153275,2681.334243
197.774233,2886.803174,5551.544565,766.095498
197.774554,2886.803174,8512.368333,-306.438199
197.774875,4811.338623,9178.553681,-153.219100
197.775196,6069.688724,6587.832884,-612.876398
197.775516,3478.967927,4515.256246,-1991.848295
197.775837,1702.473667,6439.791695,-1072.533697
197.776158,5255.462188,10214.842000,1532.190996
197.776479,5551.544565,10066.800811,612.876398
197.776799,5847.626942,9030.512492,-2681.334243
197.777120,7105.977043,11177.109724,-3370.820191
197.777441,6291.750507,13767.830521,-2374.896044
197.777762,3182.885551,10807.006753,-306.438199
197.778082,2294.638420,6735.874072,2451.505594
197.778403,5329.482782,4811.338623,2451.505594
197.778724,3034.844362,5107.421000,536.266849
197.779045,1776.494261,5403.503377,-1378.971896
197.779365,2812.782580,6217.729913,-1838.629195
197.779686,3108.864956,7476.080014,-2374.896044
197.780007,2812.782580,5181.441594,-2757.943793
197.780328,5551.544565,2886.803174,-842.705048
197.780648,7105.977043,5033.400406,612.876398
197.780969,6439.791695,9992.780217,-536.266849
197.781290,4145.153275,12361.439231,-5439.278036
197.781611,4959.379811,11695.253884,-9422.974625
