#time,accel_x,accel_y,accel_z
158.299731,5181.441594,7994.224174,0.000000
158.300052,4811.338623,8216.285956,-612.876398
158.300373,5033.400406,7994.224174,-229.828649
158.300694,5107.421000,7698.141797,-229.828649
158.301015,4959.379811,7920.203579,-306.438199
158.301336,4737.318029,8216.285956,-153.219100
158.301657,4885.359217,7994.224174,-229.828649
158.301978,5181.441594,8068.244768,0.000000
158.302299,4885.359217,8216.285956,0.000000
158.302620,4737.318029,7994.224174,0.000000
158.302941,4811.338623,8142.265362,-76.609550
158.303262,4959.379811,7994.224174,-153.219100
158.303583,5107.421000,7846.182985,0.000000
158.303904,4811.338623,7994.224174,0.000000
158.304225,5033.400406,7920.203579,-306.438199
158.304547,4811.338623,8068.244768,0.000000
158.304868,4737.318029,8142.265362,-153.219100
158.305189,5181.441594,7920.203579,0.000000
158.305510,5181.441594,7994.224174,0.000000
158.305831,4885.359217,8068.244768,-229.828649
158.306152,4959.379811,8068.244768,-306.438199
158.306473,5033.400406,7994.224174,-383.047749
158.306794,5181.441594,8216.285956,-383.047749
158.307115,4959.379811,7846.182985,0.000000
158.307436,5033.400406,7994.224174,153.219100
158.307757,4885.359217,8068.244768,0.000000
158.308078,4959.379811,8142.265362,-306.438199
158.308399,5033.400406,8290.306550,-153.219100
158.308720,5107.421000,7994.224174,-76.609550
158.309041,4737.318029,8068.244768,0.000000
158.309362,5181.441594,7920.203579,-153.219100
158.309683,5033.400406,8216.285956,0.000000
158.310004,5181.441594,7994.224174,0.000000
158.310325,4811.338623,8068.244768,0.000000
158.310646,4885.359217,8142.265362,-76.609550
158.310967,4885.359217,8068.244768,0.000000
158.311288,4885.359217,8216.285956,-229.828649
158.311609,4737.318029,8290.306550,76.609550
158.311930,4959.379811,8142.265362,0.000000
158.312251,4959.379811,8068.244768,-383.047749
158.312572,5033.400406,8216.285956,0.000000
158.312893,4811.338623,8290.306550,-306.438199
158.313214,5181.441594,8512.368333,-536.266849
158.313535,4737.318029,8216.285956,0.000000
158.313856,4885.359217,7994.224174,0.000000
158.314177,5033.400406,7846.182985,0.000000
158.314498,4959.379811,7920.203579,76.609550
158.314819,5181.441594,8216.285956,-153.219100
158.315140,4959.379811,7994.224174,-153.219100
158.315461,4589.276840,7846.182985,-383.047749
158.315782,4367.215058,7254.018232,-229.828649
158.316103,4515.256246,7920.203579,-383.047749
158.316424,4589.276840,9326.594869,-383.047749
158.316745,4737.318029,9400.615463,-612.876398
158.317066,4811.338623,9474.636058,-995.924147
158.317387,4811.338623,9474.636058,-612.876398
158.317708,4219.173869,9918.759623,153.219100
158.318029,3627.009116,9030.512492,612.876398
158.318350,3034.844362,7698.141797,689.485948
158.318671,3108.864956,7179.997637,766.095498
158.318992,3330.926739,7624.121203,612.876398
158.319313,3627.009116,8216.285956,-76.609550
158.319634,3849.070898,8216.285956,-1072.533697
158.319955,4589.276840,8290.306550,-306.438199
158.320276,4367.215058,8512.368333,306.438199
158.320597,4441.235652,9474.636058,229.828649
158.320918,3849.070898,9622.677246,-536.266849
158.321239,3330.926739,9326.594869,-1149.143247
158.321560,3701.029710,9918.759623,-766.095498
158.321881,3775.050304,10955.047942,-536.266849
158.322202,2294.638420,10436.903782,-1072.533697
158.322523,2294.638420,9104.533087,-689.485948
158.322844,2442.679609,9918.759623,-306.438199
158.323165,888.247130,10066.800811,-306.438199
158.323486,592.164754,9252.574275,-306.438199
158.323807,1850.514855,8882.471304,-383.047749
158.324128,1776.494261,9400.615463,842.705048
158.324449,1702.473667,9696.697840,2528.115143
158.324770,2442.679609,9918.759623,2068.457845
158.325091,2220.617826,9770.718434,-383.047749
158.325412,2590.720797,10955.047942,-1072.533697
158.325733,1850.514855,10214.842000,-459.657299
158.326054,2442.679609,9030.512492,-1072.533697
158.326375,3478.967927,8586.388927,-76.609550
158.326696,3108.864956,9030.512492,76.609550
158.327017,2368.659014,9400.615463,-766.095498
158.327338,2664.741391,9622.677246,-1149.143247
158.327659,3478.967927,9622.677246,-1302.362347
158.327980,4145.153275,9622.677246,-229.828649
158.328301,5477.523971,9770.718434,995.924147
158.328622,4441.235652,9696.697840,536.266849
158.328943,3923.091493,9104.533087,0.000000
158.329264,3923.091493,8290.306550,-766.095498
158.329585,3997.112087,7105.977043,-229.828649
158.329906,3775.050304,6809.894666,383.047749
158.330227,4737.318029,7254.018232,995.924147
158.330548,4959.379811,7698.141797,383.047749
158.330869,5107.421000,7254.018232,-459.657299
158.331190,5699.585753,7624.121203,383.047749
158.331511,6513.812290,6735.874072,0.000000
158.331832,7105.977043,6069.688724,0.000000
158.332153,7624.121203,6291.750507,-229.828649
158.332474,7402.059420,6587.832884,-1225.752797
158.332795,8290.306550,6291.750507,-995.924147
158.333116,8438.347739,6587.832884,-766.095498
158.333437,7846.182985,6809.894666,-459.657299
158.333758,8142.265362,7031.956449,-1302.362347
158.334079,8068.244768,7179.997637,-1072.533697
158.334400,6883.915261,7105.977043,-842.705048
158.334721,6883.915261,6587.832884,153.219100
158.335042,6217.729913,6735.874072,-383.047749
158.335363,5921.647536,6883.915261,-536.266849
158.335684,5033.400406,7328.038826,-306.438199
158.336005,4959.379811,7772.162391,-306.438199
158.336326,4515.256246,8290.306550,-383.047749
158.336647,4293.194464,9548.656652,153.219100
158.336969,3923.091493,9696.697840,536.266849
158.337290,3701.029710,9770.718434,0.000000
158.337611,3478.967927,9696.697840,153.219100
158.337932,3404.947333,10066.800811,306.438199
158.338253,2738.761985,9030.512492,153.219100
158.338574,2516.700203,8512.368333,1149.143247
158.338895,3330.926739,8956.491898,766.095498
158.339216,4071.132681,8956.491898,229.828649
158.339537,4737.318029,9178.553681,459.657299
158.339858,5033.400406,8956.491898,-306.438199
158.340179,4885.359217,8438.347739,76.609550
158.340500,5181.441594,7994.224174,766.095498
158.340821,5255.462188,7550.100608,536.266849
158.341142,5403.503377,7550.100608,0.000000
158.341463,5551.544565,7550.100608,-612.876398
158.341784,5625.565159,8068.244768,-1302.362347
158.342105,5699.585753,7994.224174,-1225.752797
158.342426,5625.565159,8734.430116,-995.924147
158.342747,4959.379811,8956.491898,-919.314598
158.343068,4885.359217,8586.388927,-1302.362347
158.343389,4367.215058,8882.471304,-1149.143247
158.343710,3775.050304,8956.491898,-1225.752797
158.344031,3849.070898,8512.368333,0.000000
158.344352,3478.967927,8660.409521,-229.828649
158.344673,3182.885551,8882.471304,229.828649
158.344994,2738.761985,8882.471304,153.219100
158.345315,2886.803174,8882.471304,306.438199
158.345636,2442.679609,9104.533087,536.266849
158.345957,2590.720797,8364.327145,689.485948
158.346278,3108.864956,8290.306550,1072.533697
158.346599,3404.947333,8216.285956,842.705048
158.346920,3849.070898,8142.265362,1072.533697
158.347241,4441.235652,7920.203579,383.047749
158.347562,4293.194464,7698.141797,536.266849
158.347883,5255.462188,7402.059420,76.609550
158.348204,6365.771101,7698.141797,-153.219100
158.348525,6957.935855,6957.935855,153.219100
158.348846,7179.997637,6735.874072,0.000000
158.349167,7328.038826,6439.791695,-229.828649
158.349488,7179.997637,6069.688724,-306.438199
158.349809,7550.100608,5847.626942,-536.266849
158.350130,7476.080014,6809.894666,-689.485948
158.350451,7772.162391,6957.935855,-919.314598
158.350772,7920.203579,7254.018232,-1225.752797
158.351093,7328.038826,7402.059420,-1378.971896
158.351414,7105.977043,7179.997637,-1838.629195
158.351735,6513.812290,7328.038826,-1072.533697
158.352056,5625.565159,7402.059420,-995.924147
158.352377,5181.441594,7550.100608,-995.924147
158.352698,4737.318029,8142.265362,-536.266849
158.353019,4515.256246,8586.388927,-153.219100
158.353340,3997.112087,9326.594869,-229.828649
158.353661,3552.988522,9548.656652,-306.438199
158.353982,3256.906145,9400.615463,0.000000
158.354303,2886.803174,9326.594869,383.047749
158.354624,2812.782580,9474.636058,689.485948
158.354945,2664.741391,9770.718434,612.876398
158.355266,2442.679609,9622.677246,459.657299
158.355587,2738.761985,9474.636058,842.705048
158.355908,3182.885551,9326.594869,919.314598
158.356229,3701.029710,8956.491898,919.314598
158.356550,3775.050304,8734.430116,919.314598
158.356871,4219.173869,7994.224174,76.609550
158.357192,4737.318029,7698.141797,0.000000
158.357513,5181.441594,7550.100608,0.000000
158.357834,5699.585753,7179.997637,-153.219100
158.358155,6143.709319,6883.915261,-306.438199
158.358476,6587.832884,7179.997637,-842.705048
158.358797,6513.812290,8142.265362,-1302.362347
158.359118,6661.853478,8068.244768,-1378.971896
158.359439,6439.791695,8142.265362,-1838.629195
158.359760,5921.647536,8216.285956,-1302.362347
158.360081,5625.565159,8142.265362,-1532.190996
158.360402,4885.359217,7920.203579,-1532.190996
158.360723,4663.297435,7624.121203,-842.705048
158.361044,4293.194464,7624.121203,0.000000
158.361365,3775.050304,8142.265362,383.047749
158.361686,3404.947333,8734.430116,459.657299
158.362007,3627.009116,8808.450710,536.266849
158.362328,3182.885551,8956.491898,459.657299
158.362649,3108.864956,8734.430116,919.314598
158.362970,3182.885551,8660.409521,1072.533697
158.363292,3256.906145,8290.306550,1149.143247
158.363613,3330.926739,8142.265362,842.705048
158.363934,3701.029710,8290.306550,995.924147
158.364255,4219.173869,8142.265362,766.095498
158.364576,4737.318029,7772.162391,842.705048
158.364897,5699.585753,7698.141797,383.047749
158.365218,6069.688724,7402.059420,306.438199
158.365539,6661.853478,7328.038826,153.219100
158.365860,6513.812290,6513.812290,76.609550
158.366182,7179.997637,6217.729913,0.000000
158.366503,7476.080014,5995.668130,0.000000
158.366824,7772.162391,6291.750507,-919.314598
158.367145,7920.203579,6735.874072,-995.924147
158.367466,7920.203579,7105.977043,-1225.752797
158.367787,7328.038826,7624.121203,-1762.019645
158.368108,7105.977043,7105.977043,-1608.800546
158.368429,6957.935855,7402.059420,-1302.362347
158.368750,6143.709319,7328.038826,-1225.752797
158.369071,5477.523971,7624.121203,-1072.533697
158.369393,4885.359217,8364.327145,-766.095498
158.369714,4737.318029,8216.285956,-459.657299
158.370035,4293.194464,8734.430116,-306.438199
158.370356,3775.050304,9030.512492,-306.438199
158.370677,3552.988522,9474.636058,0.000000
158.370998,3404.947333,9770.718434,306.438199
158.371319,3182.885551,9474.636058,383.047749
158.371640,2812.782580,9400.615463,766.095498
158.371961,2960.823768,9178.553681,1072.533697
158.372282,3034.844362,9178.553681,919.314598
158.372604,3330.926739,9030.512492,689.485948
158.372925,3404.947333,8956.491898,689.485948
158.373246,4293.194464,8142.265362,306.438199
158.373567,4663.297435,7772.162391,153.219100
158.373888,5033.400406,7402.059420,229.828649
158.374209,5255.462188,7772.162391,306.438199
158.374530,6069.688724,7105.977043,-459.657299
158.374851,6513.812290,7105.977043,-842.705048
158.375172,6661.853478,7105.977043,-1149.143247
158.375493,7105.977043,7550.100608,-1532.190996
158.375815,7105.977043,7994.224174,-1685.410096
158.376136,6809.894666,8290.306550,-2221.676944
158.376457,6587.832884,8290.306550,-2451.505594
158.376778,5847.626942,8586.388927,-1915.238745
158.377099,5403.503377,8586.388927,-1072.533697
158.377420,4737.318029,8512.368333,-919.314598
158.377741,4219.173869,8882.471304,-612.876398
158.378062,3627.009116,9252.574275,-383.047749
158.378383,3256.906145,9400.615463,0.000000
158.378704,2960.823768,9474.636058,76.609550
158.379026,3034.844362,9474.636058,689.485948
158.379347,2442.679609,9104.533087,842.705048
158.379668,2664.741391,9104.533087,1072.533697
158.379989,3256.906145,8956.491898,1378.971896
158.380310,3404.947333,8586.388927,1685.410096
158.380631,3923.091493,7994.224174,1302.362347
158.380952,4219.173869,8512.368333,1225.752797
158.381273,4737.318029,7624.121203,1302.362347
158.381594,5699.585753,7179.997637,1072.533697
158.381915,6143.709319,6957.935855,919.314598
158.382237,7031.956449,6439.791695,0.000000
158.382558,7179.997637,6291.750507,0.000000
158.382879,7846.182985,5625.565159,-459.657299
158.383200,8142.265362,5403.503377,-306.438199
158.383521,8882.471304,5995.668130,-919.314598
158.383842,8512.368333,6291.750507,-1608.800546
158.384163,7994.224174,6735.874072,-1762.019645
158.384484,8142.265362,6883.915261,-1991.848295
158.384805,7698.141797,7031.956449,-1608.800546
158.385127,6809.894666,7105.977043,-1455.581446
158.385448,6439.791695,6809.894666,-1225.752797
158.385769,5329.482782,7179.997637,-1149.143247
158.386090,4737.318029,7402.059420,-689.485948
158.386411,4219.173869,8216.285956,-229.828649
158.386732,3775.050304,8660.409521,0.000000
158.387053,3478.967927,8882.471304,383.047749
158.387374,3034.844362,9030.512492,306.438199
158.387695,2294.638420,9696.697840,689.485948
158.388016,2516.700203,9400.615463,919.314598
158.388338,2220.617826,9474.636058,1378.971896
158.388659,2368.659014,9474.636058,1608.800546
158.388980,2442.679609,9548.656652,1532.190996
158.389301,2664.741391,9178.553681,1838.629195
158.389622,3182.885551,8734.430116,1455.581446
158.389943,3997.112087,8364.327145,1072.533697
158.390264,4219.173869,8068.244768,995.924147
158.390585,5033.400406,7624.121203,842.705048
158.390906,5551.544565,7476.080014,0.000000
158.391227,5995.668130,7105.977043,-766.095498
158.391549,6513.812290,7105.977043,-1149.143247
158.391870,6809.894666,7254.018232,-1378.971896
158.392191,7105.977043,7772.162391,-1302.362347
158.392512,7179.997637,8364.327145,-1991.848295
158.392833,7105.977043,8438.347739,-2528.115143
158.393154,7105.977043,8512.368333,-2145.067394
158.393475,6143.709319,8808.450710,-1991.848295
158.393796,5329.482782,7846.182985,-1838.629195
158.394117,4737.318029,8068.244768,-1685.410096
158.394438,4663.297435,8216.285956,-995.924147
158.394760,4145.153275,8512.368333,-459.657299
158.395081,3552.988522,8956.491898,0.000000
158.395402,3256.906145,9178.553681,536.266849
158.395723,3404.947333,8956.491898,689.485948
158.396044,3182.885551,8956.491898,842.705048
158.396365,3552.988522,8882.471304,995.924147
158.396686,3256.906145,9030.512492,1455.581446
158.397007,3701.029710,8586.388927,766.095498
158.397328,3701.029710,8142.265362,919.314598
158.397649,4441.235652,8068.244768,1072.533697
158.397971,4737.318029,8068.244768,766.095498
158.398292,5625.565159,7920.203579,689.485948
158.398613,6069.688724,7402.059420,76.609550
158.398934,6735.874072,6809.894666,-229.828649
158.399255,7105.977043,6587.832884,-383.047749
158.399576,7328.038826,6513.812290,-459.657299
158.399897,7846.182985,6735.874072,-536.266849
158.400218,7772.162391,6809.894666,-1378.971896
158.400539,7550.100608,6513.812290,-1608.800546
158.400860,7550.100608,6957.935855,-1762.019645
158.401182,7402.059420,7328.038826,-1915.238745
158.401503,7476.080014,7624.121203,-1532.190996
158.401824,6587.832884,7698.141797,-1378.971896
158.402145,5847.626942,7698.141797,-1072.533697
158.402466,5107.421000,7698.141797,-842.705048
158.402787,4737.318029,7920.203579,-766.095498
158.403108,4515.256246,8364.327145,0.000000
158.403429,4071.132681,8364.327145,153.219100
158.403750,3627.009116,8956.491898,766.095498
158.404071,3404.947333,9104.533087,612.876398
158.404393,3034.844362,9030.512492,766.095498
158.404714,2516.700203,9400.615463,1302.362347
158.405035,2664.741391,9178.553681,1455.581446
158.405356,2886.803174,8956.491898,1455.581446
158.405677,3108.864956,9104.533087,1378.971896
158.405998,3552.988522,8586.388927,1455.581446
158.406319,3923.091493,8364.327145,1302.362347
158.406640,4219.173869,8068.244768,612.876398
158.406961,4219.173869,7624.121203,536.266849
158.407283,5107.421000,7328.038826,306.438199
158.407604,5625.565159,7254.018232,76.609550
158.407925,6143.709319,7105.977043,-459.657299
158.408246,5921.647536,6957.935855,-459.657299
158.408567,6439.791695,6809.894666,-919.314598
158.408888,6143.709319,7550.100608,-1302.362347
158.409209,6365.771101,7624.121203,-1608.800546
158.409530,6365.771101,7920.203579,-2068.457845
158.409851,5995.668130,8068.244768,-1532.190996
158.410172,5699.585753,7920.203579,-1302.362347
158.410494,5107.421000,8216.285956,-1378.971896
158.410815,4663.297435,8068.244768,-1225.752797
158.411136,4367.215058,8216.285956,-689.485948
158.411457,3701.029710,8512.368333,-383.047749
158.411778,3404.947333,9030.512492,0.000000
158.412099,3256.906145,9178.553681,229.828649
158.412420,3108.864956,9252.574275,383.047749
158.412741,3108.864956,9252.574275,1072.533697
158.413062,3182.885551,9178.553681,766.095498
158.413383,2738.761985,9178.553681,689.485948
158.413705,3330.926739,8956.491898,766.095498
158.414026,3701.029710,8660.409521,1072.533697
158.414347,4441.235652,8660.409521,919.314598
158.414668,4811.338623,8216.285956,995.924147
158.414989,5551.544565,7994.224174,689.485948
158.415310,6069.688724,7624.121203,306.438199
158.415631,6587.832884,7105.977043,0.000000
158.415952,6513.812290,7105.977043,-919.314598
158.416273,7402.059420,6143.709319,-459.657299
158.416594,7846.182985,6069.688724,-536.266849
158.416916,8364.327145,6513.812290,-919.314598
158.417237,8068.244768,7105.977043,-1378.971896
158.417558,7846.182985,7328.038826,-1915.238745
158.417879,7624.121203,7476.080014,-2374.896044
158.418200,7550.100608,7476.080014,-1762.019645
158.418521,6957.935855,7328.038826,-1608.800546
158.418842,5995.668130,7550.100608,-1455.581446
158.419163,5477.523971,8142.265362,-1608.800546
158.419484,4663.297435,8438.347739,-1532.190996
158.419805,4293.194464,8512.368333,-766.095498
158.420127,3849.070898,8586.388927,0.000000
158.420448,3478.967927,9178.553681,1072.533697
158.420769,2812.782580,8956.491898,536.266849
158.421090,2368.659014,9474.636058,689.485948
158.421411,2442.679609,9622.677246,995.924147
158.421732,2368.659014,9770.718434,1149.143247
158.422053,2664.741391,8882.471304,1072.533697
158.422374,2960.823768,9252.574275,1072.533697
158.422695,3034.844362,9178.553681,1225.752797
158.423016,3552.988522,8660.409521,1149.143247
158.423338,4071.132681,8290.306550,1072.533697
158.423659,4737.318029,7402.059420,383.047749
158.423980,5033.400406,7402.059420,306.438199
158.424301,5477.523971,7254.018232,0.000000
158.424622,5921.647536,7179.997637,-383.047749
158.424943,6365.771101,6661.853478,-919.314598
158.425264,6735.874072,7105.977043,-919.314598
158.425585,7105.977043,7031.956449,-995.924147
158.425906,7476.080014,7402.059420,-1532.190996
158.426228,6883.915261,8068.244768,-1762.019645
158.426549,6217.729913,8364.327145,-1762.019645
158.426870,5477.523971,8364.327145,-1455.581446
158.427191,5329.482782,7624.121203,-1225.752797
158.427512,4811.338623,7698.141797,-689.485948
158.427833,4441.235652,8216.285956,-612.876398
158.428154,3701.029710,8438.347739,-229.828649
158.428475,3330.926739,8956.491898,153.219100
158.428796,2812.782580,8808.450710,153.219100
158.429117,2812.782580,8586.388927,995.924147
158.429439,2812.782580,8882.471304,1302.362347
158.429760,3034.844362,9104.533087,1225.752797
158.430081,2812.782580,8882.471304,1378.971896
158.430402,3182.885551,8734.430116,842.705048
158.430723,3552.988522,8290.306550,1149.143247
158.431044,4219.173869,8216.285956,1072.533697
158.431365,4959.379811,7846.182985,995.924147
158.431686,4885.359217,7772.162391,306.438199
158.432007,5699.585753,7179.997637,153.219100
158.432328,6439.791695,6809.894666,76.609550
158.432650,7031.956449,6809.894666,0.000000
158.432971,7402.059420,6439.791695,-612.876398
158.433292,7476.080014,6365.771101,-919.314598
158.433613,7846.182985,6587.832884,-995.924147
158.433934,7772.162391,6883.915261,-1455.581446
158.434255,8068.244768,7105.977043,-2374.896044
158.434576,7179.997637,7476.080014,-2145.067394
158.434897,7254.018232,7550.100608,-1762.019645
158.435218,6587.832884,7772.162391,-1762.019645
158.435539,5773.606348,7920.203579,-1455.581446
158.435861,4959.379811,7994.224174,-1149.143247
158.436182,4367.215058,8364.327145,-383.047749
158.436503,4071.132681,8068.244768,-536.266849
158.436824,3997.112087,8882.471304,-153.219100
158.437145,3478.967927,9104.533087,0.000000
158.437466,3034.844362,9252.574275,306.438199
158.437787,2664.741391,10066.800811,536.266849
158.438108,2368.659014,9992.780217,919.314598
158.438429,2516.700203,9622.677246,1072.533697
158.438750,2886.803174,9696.697840,1149.143247
158.439072,2886.803174,9474.636058,766.095498
158.439393,3330.926739,9252.574275,1302.362347
158.439714,3627.009116,8660.409521,1072.533697
158.440035,4367.215058,7772.162391,919.314598
158.440356,4663.297435,7920.203579,689.485948
158.440677,5181.441594,7698.141797,459.657299
158.440998,5477.523971,7698.141797,-383.047749
158.441319,6217.729913,7105.977043,-229.828649
158.441640,7031.956449,6883.915261,-842.705048
158.441961,7031.956449,7105.977043,-919.314598
158.442283,7254.018232,7254.018232,-1072.533697
158.442604,7031.956449,7846.182985,-1838.629195
158.442925,6661.853478,7994.224174,-1991.848295
158.443246,6439.791695,7846.182985,-1762.019645
158.443567,6217.729913,7846.182985,-1685.410096
158.443888,5181.441594,7920.203579,-1378.971896
158.444209,5107.421000,8142.265362,-919.314598
158.444530,4367.215058,8438.347739,-766.095498
158.444851,3552.988522,8290.306550,0.000000
158.445172,3701.029710,8586.388927,76.609550
158.445494,3256.906145,8734.430116,536.266849
158.445815,2886.803174,8882.471304,842.705048
158.446136,2738.761985,8734.430116,1302.362347
158.446457,2886.803174,8438.347739,1455.581446
158.446778,2886.803174,8660.409521,1455.581446
158.447099,3108.864956,8882.471304,1302.362347
158.447420,3478.967927,8364.327145,1072.533697
158.447741,3849.070898,7846.182985,1378.971896
158.448062,4589.276840,7402.059420,995.924147
158.448384,5329.482782,7476.080014,1762.019645
158.448705,5773.606348,7105.977043,766.095498
158.449026,6217.729913,6735.874072,306.438199
158.449347,6809.894666,6439.791695,-306.438199
158.449668,7328.038826,6069.688724,-612.876398
158.449989,7698.141797,6143.709319,-689.485948
158.450310,8068.244768,6661.853478,-919.314598
158.450631,7624.121203,6957.935855,-1225.752797
158.450952,8142.265362,7105.977043,-1838.629195
158.451273,7476.080014,7402.059420,-1532.190996
158.451595,7179.997637,7179.997637,-1608.800546
158.451916,6809.894666,7550.100608,-1149.143247
158.452237,6069.688724,7698.141797,-1378.971896
158.452558,5403.503377,7846.182985,-1225.752797
158.452879,4663.297435,8068.244768,-689.485948
158.453200,4367.215058,8216.285956,0.000000
158.453521,3997.112087,8438.347739,229.828649
158.453842,3478.967927,9178.553681,229.828649
158.454163,2886.803174,9400.615463,383.047749
158.454484,2812.782580,9474.636058,306.438199
158.454806,2664.741391,9548.656652,1149.143247
158.455127,2664.741391,9696.697840,1225.752797
158.455448,2812.782580,9696.697840,1149.143247
158.455769,2886.803174,9548.656652,1149.143247
158.456090,3552.988522,9326.594869,919.314598
158.456411,3701.029710,8586.388927,766.095498
158.456732,4145.153275,8142.265362,612.876398
158.457053,4737.318029,7624.121203,459.657299
158.457374,5403.503377,7402.059420,76.609550
158.457695,5403.503377,7402.059420,229.828649
158.458017,6513.812290,6883.915261,-995.924147
158.458338,6809.894666,6957.935855,-1378.971896
158.458659,7179.997637,7105.977043,-919.314598
158.458980,7328.038826,7254.018232,-1608.800546
158.459301,7254.018232,7846.182985,-1762.019645
158.459622,7105.977043,7772.162391,-2145.067394
158.459943,6661.853478,7994.224174,-2068.457845
158.460264,6143.709319,7994.224174,-2068.457845
158.460585,5477.523971,7772.162391,-1225.752797
158.460906,5255.462188,7698.141797,-1072.533697
158.461228,4515.256246,8364.327145,-919.314598
158.461549,3627.009116,8512.368333,-536.266849
158.461870,3404.947333,8808.450710,0.000000
158.462191,2960.823768,9104.533087,229.828649
158.462512,2738.761985,8808.450710,842.705048
158.462833,2960.823768,8734.430116,995.924147
158.463154,2664.741391,9030.512492,1149.143247
158.463475,2738.761985,9178.553681,1149.143247
158.463796,3034.844362,8734.430116,689.485948
158.464117,3256.906145,8438.347739,1225.752797
158.464437,3775.050304,8438.347739,995.924147
158.464758,4589.276840,7994.224174,919.314598
158.465079,5181.441594,7920.203579,459.657299
158.465400,5921.647536,7476.080014,459.657299
158.465721,6365.771101,7105.977043,76.609550
158.466042,6957.935855,6809.894666,0.000000
158.466363,7402.059420,6513.812290,-459.657299
158.466684,7550.100608,6291.750507,-306.438199
158.467005,8142.265362,6957.935855,-995.924147
158.467326,7846.182985,7031.956449,-1225.752797
158.467647,7550.100608,7105.977043,-1302.362347
158.467968,7402.059420,7254.018232,-1838.629195
158.468289,7105.977043,7550.100608,-1608.800546
158.468610,6661.853478,7402.059420,-1072.533697
158.468931,5847.626942,7476.080014,-995.924147
158.469252,5033.400406,7550.100608,-689.485948
158.469573,4441.235652,7772.162391,-536.266849
158.469894,3923.091493,8438.347739,-153.219100
158.470215,3923.091493,8290.306550,383.047749
158.470536,3256.906145,9030.512492,153.219100
158.470857,2886.803174,9030.512492,536.266849
158.471178,2812.782580,9252.574275,766.095498
158.471499,2738.761985,9400.615463,995.924147
158.471820,2590.720797,9326.594869,1225.752797
158.472141,2590.720797,9252.574275,766.095498
158.472462,2960.823768,8956.491898,842.705048
158.472783,3256.906145,8586.388927,842.705048
158.473104,3775.050304,8142.265362,1302.362347
158.473424,4367.215058,7846.182985,919.314598
158.473745,4515.256246,7402.059420,306.438199
158.474066,5181.441594,7476.080014,0.000000
158.474387,5773.606348,7105.977043,-459.657299
158.474708,6439.791695,7105.977043,-766.095498
158.475029,6957.935855,6957.935855,-1072.533697
158.475350,7031.956449,7105.977043,-995.924147
158.475671,6883.915261,7698.141797,-1532.190996
158.475992,6883.915261,7994.224174,-1838.629195
158.476313,6661.853478,8142.265362,-1991.848295
158.476634,6439.791695,8364.327145,-2221.676944
158.476955,5847.626942,8216.285956,-1838.629195
158.477276,5181.441594,8290.306550,-1378.971896
158.477597,4663.297435,8216.285956,-1149.143247
158.477918,4219.173869,8808.450710,-612.876398
158.478239,3849.070898,8808.450710,-459.657299
158.478560,3552.988522,8882.471304,0.000000
158.478881,3182.885551,9104.533087,306.438199
158.479202,3182.885551,9252.574275,766.095498
158.479523,3256.906145,8956.491898,919.314598
158.479844,3034.844362,8956.491898,1072.533697
158.480165,2960.823768,8808.450710,919.314598
158.480486,3256.906145,8734.430116,766.095498
158.480807,3923.091493,8290.306550,995.924147
158.481128,4737.318029,7698.141797,1225.752797
158.481449,5255.462188,7550.100608,919.314598
158.481770,5921.647536,7772.162391,536.266849
158.482091,6291.750507,7402.059420,153.219100
158.482411,6735.874072,6883.915261,0.000000
158.482732,7105.977043,6661.853478,-536.266849
158.483053,7698.141797,6143.709319,-383.047749
158.483374,7772.162391,6439.791695,-689.485948
158.483695,7624.121203,6587.832884,-1225.752797
158.484016,7624.121203,7105.977043,-1608.800546
158.484337,7550.100608,7105.977043,-1532.190996
158.484658,7476.080014,7402.059420,-1762.019645
158.484979,6883.915261,7254.018232,-1762.019645
158.485300,6291.750507,7476.080014,-1762.019645
158.485621,5329.482782,7698.141797,-1532.190996
158.485942,5255.462188,7994.224174,-1072.533697
158.486263,4293.194464,8216.285956,-459.657299
158.486584,4071.132681,7994.224174,153.219100
158.486905,3404.947333,8586.388927,153.219100
158.487226,2590.720797,9104.533087,306.438199
158.487547,2664.741391,9104.533087,842.705048
158.487868,2368.659014,9252.574275,919.314598
158.488189,2442.679609,9548.656652,1072.533697
158.488510,2294.638420,9622.677246,995.924147
158.488831,2368.659014,9918.759623,919.314598
158.489152,2960.823768,9178.553681,995.924147
158.489473,3182.885551,9252.574275,1149.143247
158.489794,3849.070898,8660.409521,995.924147
158.490115,4515.256246,8216.285956,689.485948
158.490436,4145.153275,8068.244768,306.438199
158.490757,5033.400406,7624.121203,383.047749
158.491078,6069.688724,7105.977043,229.828649
158.491398,6513.812290,6809.894666,-383.047749
158.491719,6735.874072,7105.977043,-995.924147
158.492040,6809.894666,7254.018232,-995.924147
158.492361,7031.956449,7772.162391,-1991.848295
158.492682,7476.080014,7920.203579,-1685.410096
158.493003,6809.894666,7994.224174,-1225.752797
158.493324,6439.791695,8216.285956,-1149.143247
158.493645,5551.544565,7920.203579,-1455.581446
158.493966,4737.318029,7846.182985,-1838.629195
158.494287,4515.256246,8216.285956,-1149.143247
158.494608,4663.297435,8290.306550,-612.876398
158.494929,3997.112087,8364.327145,-383.047749
158.495250,3182.885551,8808.450710,0.000000
158.495571,2886.803174,9548.656652,229.828649
158.495892,2886.803174,9178.553681,1072.533697
158.496213,2812.782580,8956.491898,1225.752797
158.496534,2812.782580,9178.553681,689.485948
158.496855,3108.864956,9178.553681,76.609550
158.497176,3034.844362,8808.450710,536.266849
158.497497,3627.009116,8586.388927,842.705048
158.497818,4589.276840,8216.285956,1455.581446
158.498139,4737.318029,7624.121203,842.705048
158.498460,5477.523971,7328.038826,0.000000
158.498781,6069.688724,6883.915261,-383.047749
158.499102,6809.894666,6883.915261,76.609550
158.499423,7476.080014,6439.791695,306.438199
158.499744,8068.244768,6069.688724,-536.266849
158.500065,8216.285956,6365.771101,-1225.752797
158.500385,7772.162391,6883.915261,-1378.971896
158.500706,7994.224174,7105.977043,-2068.457845
158.501027,7698.141797,7328.038826,-1915.238745
158.501348,7476.080014,7402.059420,-2068.457845
158.501669,7179.997637,7328.038826,-1608.800546
158.501990,6587.832884,7772.162391,-1149.143247
158.502311,5551.544565,7994.224174,-1378.971896
158.502632,4589.276840,7994.224174,-995.924147
158.502953,4293.194464,8660.409521,-1072.533697
158.503274,3627.009116,8734.430116,0.000000
158.503595,3627.009116,8956.491898,459.657299
158.503916,3330.926739,9030.512492,612.876398
158.504237,2590.720797,9326.594869,689.485948
158.504558,2220.617826,9326.594869,842.705048
158.504879,2368.659014,9622.677246,842.705048
158.505200,2590.720797,9474.636058,919.314598
158.505521,2960.823768,9548.656652,1302.362347
158.505842,2886.803174,9252.574275,1838.629195
158.506163,3775.050304,9326.594869,1685.410096
158.506484,3552.988522,8586.388927,1532.190996
158.506805,4219.173869,7698.141797,842.705048
158.507126,4737.318029,7476.080014,459.657299
158.507447,5551.544565,7624.121203,76.609550
158.507768,5847.626942,7402.059420,-306.438199
158.508089,6365.771101,7179.997637,-459.657299
158.508410,6661.853478,6957.935855,-306.438199
158.508731,7105.977043,6883.915261,-383.047749
158.509052,6735.874072,6735.874072,-766.095498
158.509372,6587.832884,7476.080014,-1302.362347
158.509693,5921.647536,7402.059420,-1608.800546
158.510014,5773.606348,7846.182985,-1378.971896
158.510335,5773.606348,7846.182985,-1225.752797
158.510656,5551.544565,8142.265362,-995.924147
158.510977,4589.276840,7772.162391,-919.314598
158.511298,3849.070898,8438.347739,-306.438199
158.511619,3404.947333,8808.450710,-306.438199
158.511940,3478.967927,8586.388927,-383.047749
158.512261,3256.906145,8956.491898,76.609550
158.512582,3182.885551,9104.533087,383.047749
158.512903,3034.844362,9178.553681,536.266849
158.513224,2664.741391,9104.533087,689.485948
158.513545,2960.823768,8512.368333,919.314598
158.513866,3404.947333,8734.430116,1302.362347
158.514187,3701.029710,8068.244768,1225.752797
158.514508,4441.235652,7624.121203,1149.143247
158.514829,4959.379811,7550.100608,1225.752797
158.515150,6365.771101,7402.059420,919.314598
158.515471,6143.709319,7772.162391,0.000000
158.515792,6587.832884,7476.080014,-612.876398
158.516113,7179.997637,6661.853478,-1225.752797
158.516434,7846.182985,6217.729913,-536.266849
158.516755,7920.203579,6439.791695,-383.047749
158.517076,8216.285956,7105.977043,-536.266849
158.517397,7698.141797,7031.956449,-2145.067394
158.517718,7254.018232,7328.038826,-2451.505594
158.518039,7402.059420,8068.244768,-1991.848295
158.518359,7179.997637,7550.100608,-1685.410096
158.518680,6661.853478,8216.285956,-842.705048
158.519001,5625.565159,8290.306550,-1072.533697
158.519322,4885.359217,8512.368333,-995.924147
158.519643,4367.215058,8290.306550,-689.485948
158.519964,3627.009116,8364.327145,-383.047749
158.520285,4367.215058,8512.368333,-689.485948
158.520606,3256.906145,9548.656652,-536.266849
158.520927,2368.659014,9622.677246,-306.438199
158.521248,2516.700203,9770.718434,919.314598
158.521569,2886.803174,9844.739029,1225.752797
158.521890,2590.720797,9548.656652,1072.533697
158.522211,2368.659014,9400.615463,612.876398
158.522532,2886.803174,9178.553681,995.924147
158.522853,3552.988522,9252.574275,1532.190996
158.523174,3997.112087,8142.265362,1225.752797
158.523495,4589.276840,8438.347739,689.485948
158.523816,4959.379811,7402.059420,76.609550
158.524137,5329.482782,7328.038826,-306.438199
158.524458,5921.647536,7105.977043,-689.485948
158.524779,6587.832884,6883.915261,-842.705048
158.525100,7105.977043,7031.956449,-842.705048
158.525421,7476.080014,7031.956449,-842.705048
158.525742,7105.977043,7254.018232,-1532.190996
158.526063,7031.956449,7772.162391,-1608.800546
158.526384,6809.894666,7994.224174,-1685.410096
158.526705,6217.729913,7994.224174,-1915.238745
158.527026,5699.585753,7994.224174,-1915.238745
158.527346,5329.482782,7772.162391,-1225.752797
158.527667,4737.318029,7772.162391,-612.876398
158.527988,4367.215058,8216.285956,0.000000
158.528309,3552.988522,8660.409521,229.828649
158.528630,3108.864956,8438.347739,459.657299
158.528951,3330.926739,8512.368333,536.266849
158.529272,2812.782580,8586.388927,1225.752797
158.529593,3182.885551,8512.368333,1762.019645
158.529914,3034.844362,9178.553681,1532.190996
158.530235,2590.720797,8290.306550,919.314598
158.530556,3256.906145,8142.265362,919.314598
158.530877,3775.050304,8216.285956,1378.971896
158.531198,4293.194464,8290.306550,1302.362347
158.531519,4811.338623,8142.265362,1302.362347
158.531840,5921.647536,7698.141797,229.828649
158.532161,6217.729913,7550.100608,0.000000
158.532482,6291.750507,6735.874072,0.000000
158.532803,7105.977043,6439.791695,0.000000
158.533124,7402.059420,6439.791695,-689.485948
158.533445,7254.018232,6439.791695,-612.876398
158.533766,7624.121203,6735.874072,-1455.581446
158.534087,7254.018232,7031.956449,-1685.410096
158.534408,7476.080014,7179.997637,-1532.190996
158.534729,7402.059420,7328.038826,-1532.190996
158.535050,6513.812290,7254.018232,-995.924147
158.535371,6217.729913,7920.203579,-1302.362347
158.535692,5477.523971,7624.121203,-1302.362347
158.536013,4737.318029,7994.224174,-1915.238745
158.536333,4663.297435,8216.285956,-842.705048
158.536654,4219.173869,8660.409521,-689.485948
158.536975,3997.112087,8882.471304,-229.828649
158.537296,3404.947333,9104.533087,229.828649
158.537617,3256.906145,9326.594869,689.485948
158.537938,2960.823768,9474.636058,842.705048
158.538259,2442.679609,9622.677246,459.657299
158.538580,3034.844362,9696.697840,689.485948
158.538901,3330.926739,9400.615463,689.485948
158.539222,3256.906145,9400.615463,919.314598
158.539543,3404.947333,9030.512492,1149.143247
158.539864,3775.050304,8882.471304,995.924147
158.540185,4367.215058,7920.203579,459.657299
158.540506,4811.338623,7772.162391,306.438199
158.540827,5477.523971,7920.203579,-153.219100
158.541148,5847.626942,8142.265362,-536.266849
158.541469,6217.729913,7328.038826,-612.876398
158.541790,6513.812290,7179.997637,-842.705048
158.542111,7179.997637,7179.997637,-689.485948
158.542432,7328.038826,7550.100608,-1532.190996
158.542753,7328.038826,7772.162391,-2145.067394
158.543074,6883.915261,7994.224174,-2145.067394
158.543395,6661.853478,8068.244768,-1915.238745
158.543716,6365.771101,7920.203579,-1378.971896
158.544037,5773.606348,7994.224174,-1608.800546
158.544358,5107.421000,8216.285956,-1225.752797
158.544679,4811.338623,8438.347739,-919.314598
158.545000,4071.132681,8808.450710,-766.095498
158.545320,3997.112087,8734.430116,0.000000
158.545641,3552.988522,9030.512492,383.047749
158.545962,3404.947333,9104.533087,229.828649
158.546283,2886.803174,8882.471304,919.314598
158.546604,2664.741391,8438.347739,842.705048
158.546925,2886.803174,8512.368333,766.095498
158.547246,3404.947333,8660.409521,842.705048
158.547567,3701.029710,8068.244768,766.095498
158.547888,4367.215058,7920.203579,995.924147
158.548209,4885.359217,7920.203579,919.314598
158.548530,5477.523971,7550.100608,919.314598
158.548851,5847.626942,7328.038826,536.266849
158.549172,6365.771101,7254.018232,153.219100
158.549493,6883.915261,6291.750507,-383.047749
158.549814,7254.018232,6365.771101,-383.047749
158.550135,7698.141797,6291.750507,0.000000
158.550456,7402.059420,6883.915261,-612.876398
158.550777,7328.038826,7105.977043,-1378.971896
158.551098,7254.018232,6809.894666,-1915.238745
158.551419,7105.977043,7254.018232,-1608.800546
158.551740,7031.956449,7105.977043,-842.705048
158.552061,6217.729913,7402.059420,-459.657299
158.552382,5551.544565,7920.203579,-612.876398
158.552703,4737.318029,7846.182985,-1072.533697
158.553024,4293.194464,8068.244768,-689.485948
158.553345,3923.091493,8216.285956,0.000000
158.553666,3552.988522,8956.491898,0.000000
158.553987,3552.988522,8808.450710,536.266849
158.554307,3108.864956,9104.533087,536.266849
158.554628,3034.844362,9622.677246,766.095498
158.554949,2812.782580,9622.677246,536.266849
158.555270,2812.782580,9992.780217,536.266849
158.555591,3034.844362,9252.574275,1225.752797
158.555912,2960.823768,9252.574275,1685.410096
158.556233,3627.009116,8734.430116,1608.800546
158.556554,4071.132681,7920.203579,1302.362347
158.556875,4367.215058,7402.059420,306.438199
158.557196,4737.318029,7254.018232,612.876398
158.557517,5551.544565,7402.059420,0.000000
158.557838,5847.626942,7105.977043,0.000000
158.558159,6439.791695,7105.977043,-383.047749
158.558480,6809.894666,7105.977043,-383.047749
158.558801,7254.018232,7550.100608,-1532.190996
158.559122,6957.935855,7550.100608,-1532.190996
158.559443,7031.956449,7846.182985,-2068.457845
158.559764,6587.832884,8438.347739,-2145.067394
158.560085,5995.668130,8734.430116,-2451.505594
158.560406,5699.585753,8734.430116,-1838.629195
158.560727,4811.338623,8586.388927,-1532.190996
158.561048,4515.256246,8216.285956,-1302.362347
158.561369,3923.091493,8586.388927,-919.314598
158.561690,3478.967927,8808.450710,-766.095498
158.562011,2738.761985,8956.491898,-229.828649
158.562332,3034.844362,8882.471304,689.485948
158.562653,2812.782580,9178.553681,919.314598
158.562974,3034.844362,8956.491898,919.314598
158.563294,2886.803174,9030.512492,229.828649
158.563615,3108.864956,8808.450710,459.657299
158.563936,3627.009116,8882.471304,459.657299
158.564257,4145.153275,8364.327145,995.924147
158.564578,4737.318029,8290.306550,842.705048
158.564899,5625.565159,7846.182985,459.657299
158.565220,6143.709319,7698.141797,0.000000
158.565541,6735.874072,7254.018232,76.609550
158.565862,6883.915261,7031.956449,-229.828649
158.566183,7624.121203,6513.812290,-383.047749
158.566503,7698.141797,6291.750507,-1149.143247
158.566824,8216.285956,6735.874072,-842.705048
158.567145,8068.244768,6809.894666,-1225.752797
158.567466,8068.244768,6883.915261,-1455.581446
158.567787,7772.162391,7254.018232,-1838.629195
158.568108,7328.038826,7402.059420,-1685.410096
158.568429,7179.997637,7328.038826,-1838.629195
158.568750,6439.791695,7624.121203,-1225.752797
158.569070,5551.544565,7846.182985,-919.314598
158.569391,4737.318029,7772.162391,-766.095498
158.569712,4367.215058,8216.285956,-536.266849
158.570033,3849.070898,8734.430116,-536.266849
158.570354,3775.050304,8586.388927,76.609550
158.570675,3330.926739,9104.533087,0.000000
158.570996,2886.803174,9252.574275,459.657299
158.571316,2812.782580,9696.697840,1072.533697
158.571637,2368.659014,9696.697840,1455.581446
158.571958,2368.659014,9474.636058,919.314598
158.572279,2590.720797,9326.594869,1455.581446
158.572600,2664.741391,9326.594869,1378.971896
158.572921,3034.844362,8956.491898,1762.019645
158.573242,3552.988522,8364.327145,1532.190996
158.573562,3775.050304,7920.203579,1455.581446
158.573883,4071.132681,7254.018232,1302.362347
158.574204,4885.359217,7328.038826,383.047749
158.574525,5477.523971,7105.977043,0.000000
158.574846,6513.812290,7105.977043,76.609550
158.575167,6365.771101,7031.956449,-229.828649
158.575488,6735.874072,7105.977043,-383.047749
158.575808,6661.853478,7698.141797,-1225.752797
158.576129,6661.853478,7846.182985,-1915.238745
158.576450,6513.812290,8290.306550,-1608.800546
158.576771,6143.709319,7920.203579,-1378.971896
158.577092,5921.647536,7698.141797,-1532.190996
158.577413,5329.482782,7772.162391,-1302.362347
158.577734,4663.297435,7698.141797,-919.314598
158.578054,4145.153275,8512.368333,-383.047749
158.578375,3775.050304,8142.265362,0.000000
158.578696,3552.988522,8290.306550,306.438199
158.579017,3701.029710,8364.327145,536.266849
158.579338,3478.967927,8734.430116,689.485948
158.579659,2886.803174,9030.512492,306.438199
158.579980,2886.803174,9252.574275,536.266849
158.580300,3034.844362,8290.306550,612.876398
158.580621,3627.009116,8438.347739,842.705048
158.580942,3849.070898,8290.306550,1455.581446
158.581263,4737.318029,8068.244768,1455.581446
158.581584,4885.359217,7920.203579,383.047749
158.581905,5699.585753,7698.141797,306.438199
158.582226,6291.750507,7402.059420,229.828649
158.582546,6883.915261,7031.956449,153.219100
158.582867,7105.977043,6365.771101,-612.876398
158.583188,7550.100608,6365.771101,-766.095498
158.583509,7550.100608,6735.874072,-612.876398
158.583830,7772.162391,6809.894666,-1149.143247
158.584151,7550.100608,7105.977043,-1991.848295
158.584472,7920.203579,7772.162391,-1838.629195
158.584793,7476.080014,7772.162391,-1915.238745
158.585113,6587.832884,7624.121203,-1838.629195
158.585434,6365.771101,7920.203579,-1149.143247
158.585755,5699.585753,8142.265362,-1302.362347
158.586076,4589.276840,8142.265362,-1762.019645
158.586397,4589.276840,8216.285956,-1608.800546
158.586718,3923.091493,8808.450710,-612.876398
158.587039,3256.906145,9104.533087,0.000000
158.587359,3034.844362,9178.553681,229.828649
158.587680,3182.885551,10288.862594,0.000000
158.588001,2590.720797,9992.780217,229.828649
158.588322,2220.617826,10362.883188,306.438199
158.588643,2368.659014,10214.842000,306.438199
158.588964,2812.782580,9918.759623,919.314598
158.589285,3034.844362,9622.677246,1838.629195
158.589605,3108.864956,8882.471304,1225.752797
158.589926,3997.112087,8808.450710,842.705048
158.590247,4071.132681,8142.265362,612.876398
158.590568,4737.318029,7402.059420,459.657299
158.590889,5403.503377,7550.100608,766.095498
158.591210,6217.729913,7328.038826,-153.219100
158.591531,6513.812290,7105.977043,-229.828649
158.591851,6587.832884,7105.977043,-383.047749
158.592172,7105.977043,6957.935855,-689.485948
158.592493,7254.018232,7328.038826,-1072.533697
158.592814,7179.997637,7994.224174,-1838.629195
158.593135,6735.874072,8068.244768,-2068.457845
158.593456,6217.729913,8142.265362,-1685.410096
158.593777,5921.647536,7920.203579,-1302.362347
158.594097,5551.544565,7846.182985,-1149.143247
158.594418,4663.297435,7698.141797,-919.314598
158.594739,3997.112087,8216.285956,-306.438199
158.595060,3404.947333,8142.265362,0.000000
158.595381,3330.926739,8290.306550,383.047749
158.595702,3627.009116,8142.265362,919.314598
158.596023,2738.761985,8216.285956,1532.190996
158.596343,2738.761985,8290.306550,1532.190996
158.596664,2590.720797,8512.368333,919.314598
158.596985,2738.761985,8290.306550,842.705048
158.597306,3701.029710,8364.327145,1378.971896
158.597627,3997.112087,8216.285956,1608.800546
158.597948,4441.235652,7846.182985,1302.362347
158.598269,4959.379811,7772.162391,766.095498
158.598589,5625.565159,6957.935855,995.924147
158.598910,6735.874072,6957.935855,612.876398
158.599231,6661.853478,6957.935855,153.219100
158.599552,6735.874072,6291.750507,-536.266849
158.599873,7402.059420,6217.729913,-766.095498
158.600194,7624.121203,6365.771101,-919.314598
158.600515,7624.121203,6735.874072,-919.314598
158.600835,7920.203579,6809.894666,-1302.362347
158.601156,7476.080014,7179.997637,-1608.800546
158.601477,7179.997637,7476.080014,-1608.800546
158.601798,6661.853478,7920.203579,-1302.362347
158.602119,6439.791695,7772.162391,-919.314598
158.602440,5403.503377,8068.244768,-919.314598
158.602761,4737.318029,8068.244768,-1149.143247
158.603082,4219.173869,8586.388927,-766.095498
158.603402,3256.906145,8882.471304,-383.047749
158.603723,3478.967927,9030.512492,306.438199
158.604044,3256.906145,9400.615463,0.000000
158.604365,2812.782580,9622.677246,306.438199
158.604686,2590.720797,9992.780217,536.266849
158.605007,2812.782580,10214.842000,536.266849
158.605328,2886.803174,9770.718434,1072.533697
158.605648,3034.844362,10066.800811,995.924147
158.605969,3330.926739,9770.718434,919.314598
158.606290,3404.947333,9104.533087,995.924147
158.606611,4071.132681,8586.388927,919.314598
158.606932,4367.215058,8364.327145,383.047749
158.607253,4737.318029,7624.121203,306.438199
158.607574,5403.503377,7476.080014,0.000000
158.607894,6217.729913,7328.038826,-689.485948
158.608215,6587.832884,7402.059420,-995.924147
158.608536,6883.915261,7698.141797,-766.095498
158.608857,7254.018232,7402.059420,-1149.143247
158.609178,7179.997637,8290.306550,-1915.238745
158.609499,6883.915261,7994.224174,-2145.067394
158.609820,6587.832884,8364.327145,-2145.067394
158.610140,6439.791695,8438.347739,-2298.286494
158.610461,5847.626942,8216.285956,-1991.848295
158.610782,5033.400406,8290.306550,-1532.190996
158.611103,4737.318029,8142.265362,-995.924147
158.611424,4441.235652,8216.285956,-459.657299
158.611745,4071.132681,7920.203579,0.000000
158.612066,3775.050304,8586.388927,76.609550
158.612386,3552.988522,8586.388927,842.705048
158.612707,3256.906145,8512.368333,919.314598
158.613028,3330.926739,8290.306550,1302.362347
158.613349,3330.926739,7772.162391,1225.752797
158.613670,3478.967927,7994.224174,919.314598
158.613991,3997.112087,8142.265362,766.095498
158.614312,4367.215058,7846.182985,1225.752797
158.614632,5107.421000,7698.141797,1072.533697
158.614953,5847.626942,7698.141797,1072.533697
158.615274,6217.729913,7698.141797,306.438199
158.615595,6439.791695,6809.894666,689.485948
158.615916,6735.874072,6735.874072,0.000000
158.616237,7105.977043,6217.729913,-229.828649
158.616558,7105.977043,6365.771101,0.000000
158.616878,7402.059420,6291.750507,-536.266849
158.617199,7550.100608,6957.935855,-766.095498
158.617520,7476.080014,7105.977043,-1378.971896
158.617841,7254.018232,7105.977043,-1149.143247
158.618162,7105.977043,7402.059420,-1149.143247
158.618483,6217.729913,7476.080014,-919.314598
158.618804,6069.688724,7846.182985,-766.095498
158.619124,5107.421000,7772.162391,-919.314598
158.619445,4293.194464,8068.244768,-612.876398
158.619766,4293.194464,8882.471304,-766.095498
158.620087,3256.906145,8660.409521,76.609550
158.620408,3182.885551,8956.491898,153.219100
158.620729,2664.741391,9326.594869,459.657299
158.621050,2442.679609,9548.656652,383.047749
158.621371,2368.659014,9622.677246,842.705048
158.621691,2590.720797,10140.821405,995.924147
158.622012,2294.638420,9696.697840,1225.752797
158.622333,2516.700203,9474.636058,1302.362347
158.622654,3108.864956,9400.615463,1455.581446
158.622975,3775.050304,9178.553681,1225.752797
158.623296,3701.029710,8586.388927,842.705048
158.623617,4293.194464,7994.224174,536.266849
158.623937,4811.338623,7698.141797,383.047749
158.624258,5329.482782,7550.100608,306.438199
158.624579,6069.688724,7031.956449,-459.657299
158.624900,6513.812290,6587.832884,-536.266849
158.625221,6661.853478,6957.935855,-766.095498
158.625542,7031.956449,7402.059420,-1455.581446
158.625863,7179.997637,7772.162391,-1915.238745
158.626183,6661.853478,8142.265362,-2068.457845
158.626504,6957.935855,8142.265362,-2145.067394
158.626825,6513.812290,8290.306550,-1762.019645
158.627146,5847.626942,7994.224174,-1762.019645
158.627467,5107.421000,7846.182985,-1455.581446
158.627788,4737.318029,8216.285956,-1378.971896
158.628109,3775.050304,8364.327145,-229.828649
158.628429,3701.029710,8512.368333,0.000000
158.628750,3478.967927,8586.388927,76.609550
158.629071,3256.906145,8808.450710,383.047749
158.629392,3182.885551,8808.450710,995.924147
158.629713,3108.864956,8734.430116,995.924147
158.630034,2960.823768,8882.471304,842.705048
158.630355,3552.988522,8660.409521,689.485948
158.630675,4071.132681,8734.430116,1149.143247
158.630996,4515.256246,8586.388927,536.266849
158.631317,4737.318029,8068.244768,995.924147
158.631638,5773.606348,7698.141797,766.095498
158.631959,6291.750507,7328.038826,306.438199
158.632280,6883.915261,6883.915261,76.609550
158.632601,7328.038826,6439.791695,153.219100
158.632921,7698.141797,5995.668130,-766.095498
158.633242,7994.224174,6217.729913,-689.485948
158.633563,7920.203579,6439.791695,-919.314598
158.633884,8142.265362,6587.832884,-1455.581446
158.634205,8290.306550,6883.915261,-1378.971896
158.634526,7994.224174,7105.977043,-2145.067394
158.634847,7105.977043,7698.141797,-2145.067394
158.635167,6735.874072,7698.141797,-1532.190996
158.635488,6143.709319,7846.182985,-1072.533697
158.635809,4885.359217,8290.306550,-229.828649
158.636130,4367.215058,8216.285956,-842.705048
158.636451,3849.070898,8660.409521,-612.876398
158.636772,3182.885551,8882.471304,-153.219100
158.637093,2812.782580,9400.615463,229.828649
158.637413,2294.638420,9696.697840,383.047749
158.637734,1998.556043,9474.636058,842.705048
158.638055,2146.597232,10214.842000,766.095498
158.638376,2146.597232,10140.821405,919.314598
158.638697,2072.576638,9918.759623,1378.971896
158.639018,2220.617826,9770.718434,1762.019645
158.639339,3034.844362,9326.594869,1685.410096
158.639660,3256.906145,8660.409521,1685.410096
158.639980,3923.091493,7994.224174,1149.143247
158.640301,4441.235652,7624.121203,1225.752797
158.640622,5255.462188,7179.997637,919.314598
158.640943,5995.668130,7105.977043,229.828649
158.641264,6291.750507,6809.894666,0.000000
158.641585,7105.977043,6957.935855,-153.219100
158.641906,7105.977043,6883.915261,-536.266849
158.642226,7105.977043,7254.018232,-1149.143247
158.642547,7105.977043,7550.100608,-1532.190996
158.642868,7031.956449,7846.182985,-1991.848295
158.643189,6735.874072,8216.285956,-1915.238745
158.643510,6143.709319,8734.430116,-1762.019645
158.643831,5847.626942,7994.224174,-1608.800546
158.644152,4737.318029,8216.285956,-1072.533697
158.644472,4219.173869,7846.182985,-766.095498
158.644793,3923.091493,8290.306550,-229.828649
158.645114,3404.947333,8364.327145,-306.438199
158.645435,3849.070898,8512.368333,76.609550
158.645756,3108.864956,8808.450710,383.047749
158.646077,2886.803174,8660.409521,995.924147
158.646398,3034.844362,8808.450710,1149.143247
158.646718,2812.782580,8956.491898,995.924147
158.647039,3108.864956,8586.388927,766.095498
158.647360,3849.070898,8068.244768,1532.190996
158.647681,4219.173869,8068.244768,1072.533697
158.648002,4737.318029,7772.162391,1302.362347
158.648323,5551.544565,7698.141797,459.657299
158.648644,6069.688724,7846.182985,459.657299
158.648964,6513.812290,7105.977043,229.828649
158.649285,6957.935855,6439.791695,0.000000
158.649606,7328.038826,5847.626942,-383.047749
158.649927,7846.182985,5847.626942,-76.609550
158.650248,7698.141797,6735.874072,-766.095498
158.650569,7846.182985,6809.894666,-1455.581446
158.650890,7772.162391,7179.997637,-2298.286494
158.651210,7328.038826,7550.100608,-2374.896044
158.651531,7328.038826,7624.121203,-1762.019645
158.651852,6809.894666,7772.162391,-1685.410096
158.652173,5995.668130,7772.162391,-1532.190996
158.652494,5107.421000,7846.182985,-1149.143247
158.652815,4737.318029,7920.203579,-1149.143247
158.653136,4219.173869,8512.368333,-689.485948
158.653456,3923.091493,8882.471304,-229.828649
158.653777,3256.906145,9030.512492,76.609550
158.654098,2590.720797,9400.615463,0.000000
158.654419,2442.679609,9252.574275,612.876398
158.654740,2664.741391,9548.656652,919.314598
158.655061,2442.679609,9992.780217,1149.143247
158.655382,2442.679609,9696.697840,995.924147
158.655702,2886.803174,9474.636058,1149.143247
158.656023,3330.926739,9400.615463,1455.581446
158.656344,3775.050304,8882.471304,1072.533697
158.656665,4145.153275,8808.450710,1149.143247
158.656986,4589.276840,8290.306550,229.828649
158.657307,4885.359217,7550.100608,0.000000
158.657628,5329.482782,7550.100608,0.000000
158.657949,6069.688724,7031.956449,-383.047749
158.658269,6365.771101,7031.956449,-689.485948
158.658590,6809.894666,7254.018232,-919.314598
158.658911,6735.874072,7254.018232,-1455.581446
158.659232,6587.832884,7920.203579,-1915.238745
158.659553,6661.853478,8364.327145,-1838.629195
158.659874,6587.832884,8438.347739,-2298.286494
158.660195,6439.791695,8068.244768,-1762.019645
158.660515,5699.585753,7772.162391,-1532.190996
158.660836,4737.318029,7920.203579,-1302.362347
158.661157,4145.153275,8142.265362,-995.924147
158.661478,3552.988522,8586.388927,-383.047749
158.661799,3330.926739,8660.409521,153.219100
158.662120,3256.906145,8734.430116,459.657299
158.662441,3404.947333,8734.430116,1072.533697
158.662761,2590.720797,8660.409521,1149.143247
158.663082,3034.844362,8956.491898,1378.971896
158.663403,3034.844362,8956.491898,612.876398
158.663724,3256.906145,8290.306550,842.705048
158.664045,3923.091493,8364.327145,995.924147
158.664366,4219.173869,8290.306550,1302.362347
158.664687,4589.276840,7994.224174,1072.533697
158.665008,5403.503377,7328.038826,689.485948
158.665328,6069.688724,6957.935855,459.657299
158.665649,6957.935855,6809.894666,76.609550
158.665970,7031.956449,6365.771101,76.609550
158.666291,7624.121203,5847.626942,-306.438199
158.666612,7698.141797,5995.668130,-766.095498
158.666933,7994.224174,6439.791695,-1149.143247
158.667254,7846.182985,6365.771101,-1149.143247
158.667575,8068.244768,6809.894666,-1762.019645
158.667896,7624.121203,7105.977043,-1991.848295
158.668217,7328.038826,7328.038826,-1532.190996
158.668538,6735.874072,7550.100608,-1762.019645
158.668858,6143.709319,7624.121203,-1302.362347
158.669179,5403.503377,7846.182985,-1225.752797
158.669500,4663.297435,8290.306550,-689.485948
158.669821,4441.235652,8364.327145,-306.438199
158.670142,3775.050304,8808.450710,0.000000
158.670463,3108.864956,8956.491898,153.219100
158.670784,3108.864956,8882.471304,536.266849
158.671105,2442.679609,9474.636058,842.705048
158.671426,2516.700203,9844.739029,1072.533697
158.671747,2590.720797,9992.780217,995.924147
158.672067,2442.679609,9548.656652,995.924147
158.672388,2812.782580,9326.594869,1225.752797
158.672709,2590.720797,9474.636058,1378.971896
158.673030,3404.947333,8882.471304,1149.143247
158.673351,3997.112087,8142.265362,1149.143247
158.673672,4219.173869,7772.162391,689.485948
158.673993,4811.338623,7698.141797,459.657299
158.674314,5551.544565,7328.038826,0.000000
158.674635,6069.688724,7254.018232,-306.438199
158.674956,6735.874072,7105.977043,-689.485948
158.675276,7031.956449,6957.935855,-842.705048
158.675597,7105.977043,7698.141797,-1302.362347
158.675918,6809.894666,7698.141797,-1915.238745
158.676239,7031.956449,8142.265362,-2221.676944
158.676560,7105.977043,8142.265362,-2145.067394
158.676881,6587.832884,7920.203579,-1991.848295
158.677202,5995.668130,8142.265362,-1838.629195
158.677523,5107.421000,7994.224174,-1532.190996
158.677844,4293.194464,8364.327145,-995.924147
158.678165,3923.091493,8216.285956,-689.485948
158.678486,3701.029710,8734.430116,-612.876398
158.678806,3775.050304,8586.388927,229.828649
158.679127,3256.906145,8808.450710,383.047749
158.679448,2738.761985,9178.553681,919.314598
158.679769,2442.679609,8808.450710,1302.362347
158.680090,2886.803174,8586.388927,995.924147
158.680411,2886.803174,8956.491898,689.485948
158.680732,3256.906145,8512.368333,995.924147
158.681053,3775.050304,8512.368333,1072.533697
158.681374,4145.153275,7994.224174,1149.143247
158.681695,5329.482782,8290.306550,919.314598
158.682015,5921.647536,7920.203579,459.657299
158.682336,5921.647536,7105.977043,306.438199
158.682657,6513.812290,6809.894666,-153.219100
158.682978,6883.915261,6365.771101,-536.266849
158.683299,7624.121203,6291.750507,-536.266849
158.683620,7550.100608,6809.894666,-766.095498
158.683941,7698.141797,7031.956449,-1149.143247
158.684262,7772.162391,7179.997637,-1532.190996
158.684583,7476.080014,7328.038826,-1532.190996
158.684904,7031.956449,7698.141797,-1455.581446
158.685225,6957.935855,7476.080014,-1762.019645
158.685545,5995.668130,7476.080014,-1302.362347
158.685866,5107.421000,7624.121203,-1378.971896
158.686187,4737.318029,7920.203579,-995.924147
158.686508,4367.215058,7994.224174,-842.705048
158.686829,3701.029710,8734.430116,-306.438199
158.687150,3256.906145,8956.491898,0.000000
158.687471,2960.823768,9400.615463,383.047749
158.687792,2812.782580,9548.656652,383.047749
158.688113,2812.782580,9474.636058,689.485948
158.688434,2960.823768,9992.780217,995.924147
158.688754,2442.679609,9474.636058,1302.362347
158.689075,2960.823768,9326.594869,1302.362347
158.689396,3404.947333,9104.533087,1378.971896
158.689717,4071.132681,8808.450710,1225.752797
158.690038,4145.153275,8068.244768,919.314598
158.690359,4293.194464,7772.162391,919.314598
158.690680,5107.421000,6957.935855,459.657299
158.691001,5921.647536,7105.977043,0.000000
158.691322,6143.709319,7031.956449,-229.828649
158.691643,6439.791695,6883.915261,-689.485948
158.691964,7031.956449,7328.038826,-919.314598
158.692284,7105.977043,7476.080014,-1072.533697
158.692605,7179.997637,7772.162391,-1838.629195
158.692926,7179.997637,8142.265362,-2221.676944
158.693247,6809.894666,8364.327145,-2374.896044
158.693568,6217.729913,8290.306550,-1838.629195
158.693889,5477.523971,8068.244768,-1685.410096
158.694210,5625.565159,7846.182985,-1915.238745
158.694531,4663.297435,7994.224174,-842.705048
158.694852,4219.173869,8438.347739,-536.266849
158.695173,3552.988522,8734.430116,76.609550
158.695493,3108.864956,8882.471304,76.609550
158.695814,3256.906145,9178.553681,842.705048
158.696135,2886.803174,9104.533087,1225.752797
158.696456,2738.761985,8734.430116,1302.362347
158.696777,2738.761985,8808.450710,689.485948
158.697098,3034.844362,8512.368333,919.314598
158.697419,3256.906145,8438.347739,842.705048
158.697740,3923.091493,8660.409521,1072.533697
158.698061,4663.297435,8290.306550,689.485948
158.698382,5329.482782,7846.182985,612.876398
158.698702,6069.688724,7254.018232,0.000000
158.699023,6069.688724,6587.832884,76.609550
158.699344,6661.853478,6735.874072,0.000000
158.699665,7105.977043,6291.750507,-153.219100
158.699986,7476.080014,6069.688724,-766.095498
158.700307,7476.080014,6291.750507,-995.924147
158.700628,7920.203579,6291.750507,-1225.752797
158.700949,7772.162391,6883.915261,-1838.629195
158.701270,7550.100608,7402.059420,-1991.848295
158.701591,7328.038826,7328.038826,-1608.800546
158.701912,6513.812290,7179.997637,-1762.019645
158.702232,5773.606348,7550.100608,-1455.581446
158.702553,5107.421000,7624.121203,-1455.581446
158.702874,4589.276840,7772.162391,-1302.362347
158.703195,4367.215058,8290.306550,-459.657299
158.703516,4071.132681,8882.471304,-153.219100
158.703837,3256.906145,9252.574275,0.000000
158.704158,3108.864956,9178.553681,153.219100
158.704479,2812.782580,9696.697840,536.266849
158.704800,2516.700203,9696.697840,536.266849
158.705121,2664.741391,9770.718434,919.314598
158.705441,2886.803174,9622.677246,1302.362347
158.705762,3108.864956,9474.636058,1072.533697
158.706083,3034.844362,9178.553681,1455.581446
158.706404,3478.967927,8956.491898,1149.143247
158.706725,3923.091493,8290.306550,842.705048
158.707046,4367.215058,7920.203579,536.266849
158.707367,5107.421000,7772.162391,459.657299
158.707688,5403.503377,7624.121203,0.000000
158.708009,6217.729913,7624.121203,-383.047749
158.708330,6365.771101,7254.018232,-306.438199
158.708651,6883.915261,7402.059420,-919.314598
158.708971,6661.853478,7846.182985,-1149.143247
158.709292,6883.915261,7920.203579,-1685.410096
158.709613,6883.915261,7994.224174,-1991.848295
158.709934,6735.874072,7920.203579,-1532.190996
158.710255,6069.688724,8142.265362,-1455.581446
158.710576,5403.503377,7994.224174,-1608.800546
158.710897,4811.338623,7772.162391,-1532.190996
158.711218,4367.215058,8290.306550,-1225.752797
158.711539,4441.235652,8068.244768,-459.657299
158.711860,3849.070898,8438.347739,0.000000
158.712180,3478.967927,8734.430116,153.219100
158.712501,3256.906145,8438.347739,689.485948
158.712822,3256.906145,8512.368333,689.485948
158.713143,3034.844362,8512.368333,842.705048
158.713464,3108.864956,8512.368333,612.876398
158.713785,3404.947333,8660.409521,459.657299
158.714106,3923.091493,8068.244768,842.705048
158.714427,4219.173869,8512.368333,1225.752797
158.714748,5107.421000,7698.141797,689.485948
158.715069,5551.544565,7550.100608,689.485948
158.715389,5699.585753,7254.018232,229.828649
158.715710,6439.791695,6661.853478,383.047749
158.716031,7105.977043,6513.812290,0.000000
158.716352,7179.997637,6143.709319,-229.828649
158.716673,7846.182985,5847.626942,-459.657299
158.716994,7772.162391,6513.812290,-612.876398
158.717315,7550.100608,6957.935855,-1378.971896
158.717636,7550.100608,7179.997637,-1838.629195
158.717957,7550.100608,7328.038826,-1838.629195
158.718278,7254.018232,7476.080014,-1532.190996
158.718599,6513.812290,7698.141797,-1225.752797
158.718919,5847.626942,7698.141797,-842.705048
158.719240,5107.421000,7846.182985,-995.924147
158.719561,4737.318029,7994.224174,-536.266849
158.719882,4219.173869,8142.265362,-459.657299
158.720203,3923.091493,8660.409521,-612.876398
158.720524,3478.967927,8956.491898,536.266849
158.720845,2960.823768,9104.533087,383.047749
158.721166,2516.700203,9252.574275,1072.533697
158.721487,2664.741391,9696.697840,842.705048
158.721808,2590.720797,9696.697840,1149.143247
158.722128,2812.782580,9622.677246,995.924147
158.722449,2886.803174,9030.512492,1225.752797
158.722770,3404.947333,9252.574275,1378.971896
158.723091,3849.070898,8586.388927,1378.971896
158.723412,3997.112087,8142.265362,1225.752797
158.723733,4367.215058,8068.244768,1225.752797
158.724054,4737.318029,7624.121203,229.828649
158.724375,5699.585753,7328.038826,0.000000
158.724696,5995.668130,7105.977043,-383.047749
158.725017,6291.750507,7179.997637,-766.095498
158.725338,6291.750507,7179.997637,-842.705048
158.725658,6661.853478,7550.100608,-1225.752797
158.725979,6587.832884,7994.224174,-1685.410096
158.726300,6365.771101,8364.327145,-2068.457845
158.726621,6291.750507,8364.327145,-1762.019645
158.726942,6143.709319,8216.285956,-1915.238745
158.727263,5699.585753,7994.224174,-1302.362347
158.727584,4811.338623,7846.182985,-1378.971896
158.727905,4515.256246,7994.224174,-995.924147
158.728226,3923.091493,8734.430116,-689.485948
158.728547,3478.967927,8660.409521,0.000000
158.728867,3404.947333,8734.430116,0.000000
158.729188,3330.926739,8956.491898,459.657299
158.729509,2960.823768,9178.553681,689.485948
158.729830,2960.823768,8882.471304,995.924147
158.730151,2886.803174,8882.471304,842.705048
158.730472,3256.906145,8882.471304,612.876398
158.730793,3849.070898,8364.327145,919.314598
158.731114,4293.194464,8216.285956,919.314598
158.731435,5181.441594,7994.224174,229.828649
158.731756,5551.544565,7698.141797,459.657299
158.732077,5995.668130,7179.997637,0.000000
158.732397,6809.894666,6587.832884,76.609550
158.732718,7031.956449,6439.791695,-383.047749
158.733039,7624.121203,6069.688724,-306.438199
158.733360,8068.244768,6291.750507,-1149.143247
158.733681,8068.244768,6513.812290,-1378.971896
158.734002,8068.244768,7031.956449,-1608.800546
158.734323,7994.224174,7105.977043,-1915.238745
158.734644,7328.038826,7476.080014,-1762.019645
158.734965,7105.977043,7550.100608,-1455.581446
158.735286,6513.812290,7254.018232,-1302.362347
158.735606,6069.688724,7105.977043,-919.314598
158.735927,4885.359217,7402.059420,-1149.143247
158.736248,4811.338623,7772.162391,-919.314598
158.736569,4071.132681,8142.265362,-383.047749
158.736890,4071.132681,8586.388927,0.000000
158.737211,3701.029710,8586.388927,76.609550
158.737532,3256.906145,9104.533087,689.485948
158.737853,3256.906145,9178.553681,612.876398
158.738174,3256.906145,9474.636058,919.314598
158.738495,3256.906145,9326.594869,842.705048
158.738815,3182.885551,9400.615463,766.095498
158.739136,3627.009116,9326.594869,1072.533697
158.739457,3923.091493,8956.491898,1225.752797
158.739778,3849.070898,8438.347739,919.314598
158.740099,4663.297435,7920.203579,612.876398
158.740420,4959.379811,7402.059420,306.438199
158.740741,5403.503377,7328.038826,229.828649
158.741062,6069.688724,7254.018232,153.219100
158.741383,6291.750507,7031.956449,0.000000
158.741704,6661.853478,7105.977043,-229.828649
158.742025,7031.956449,7105.977043,-536.266849
158.742345,6735.874072,7328.038826,-1072.533697
158.742666,6587.832884,7994.224174,-1532.190996
158.742987,6291.750507,7994.224174,-1838.629195
158.743308,6439.791695,8068.244768,-2068.457845
158.743629,5773.606348,8216.285956,-1455.581446
158.743950,4959.379811,8364.327145,-1532.190996
158.744271,4589.276840,8290.306550,-995.924147
158.744592,3923.091493,8586.388927,-536.266849
158.744913,3404.947333,8586.388927,0.000000
158.745234,3034.844362,9030.512492,153.219100
158.745554,2590.720797,8956.491898,383.047749
158.745875,2590.720797,9104.533087,689.485948
158.746196,2072.576638,9178.553681,919.314598
158.746517,2146.597232,9400.615463,1225.752797
158.746838,2368.659014,9030.512492,1149.143247
158.747159,2664.741391,8956.491898,1149.143247
158.747480,2886.803174,8808.450710,842.705048
158.747801,3552.988522,8734.430116,1455.581446
158.748122,4219.173869,8438.347739,995.924147
158.748443,5033.400406,7920.203579,306.438199
158.748764,5551.544565,7476.080014,459.657299
158.749084,5921.647536,7105.977043,76.609550
158.749405,6957.935855,6661.853478,-536.266849
158.749726,7254.018232,6365.771101,-306.438199
158.750047,7624.121203,6217.729913,-306.438199
158.750368,7920.203579,6809.894666,-995.924147
158.750689,7624.121203,6883.915261,-1762.019645
158.751010,7624.121203,7105.977043,-2221.676944
158.751331,7994.224174,6957.935855,-1838.629195
158.751652,7254.018232,7402.059420,-1685.410096
158.751973,6439.791695,7624.121203,-1532.190996
158.752293,5625.565159,7624.121203,-1762.019645
158.752614,5107.421000,7402.059420,-1532.190996
158.752935,4737.318029,8290.306550,-536.266849
158.753256,4145.153275,8364.327145,-153.219100
158.753577,3404.947333,8734.430116,-306.438199
158.753898,3182.885551,8882.471304,0.000000
158.754219,2886.803174,9252.574275,76.609550
158.754540,2368.659014,9696.697840,766.095498
158.754861,2368.659014,9770.718434,842.705048
158.755182,2368.659014,9696.697840,842.705048
158.755503,2590.720797,9622.677246,842.705048
158.755823,2886.803174,9622.677246,1455.581446
158.756144,3256.906145,9474.636058,1378.971896
158.756465,3775.050304,8956.491898,689.485948
158.756786,4219.173869,8586.388927,229.828649
158.757107,4663.297435,7994.224174,459.657299
158.757428,5477.523971,7624.121203,536.266849
158.757749,6217.729913,7179.997637,0.000000
158.758070,6143.709319,7105.977043,-383.047749
158.758391,6809.894666,6513.812290,-689.485948
158.758712,7179.997637,7031.956449,-842.705048
158.759032,7254.018232,7105.977043,-919.314598
158.759353,7328.038826,7698.141797,-1225.752797
158.759674,7105.977043,8142.265362,-1302.362347
158.759995,7328.038826,7920.203579,-1762.019645
158.760316,6291.750507,7772.162391,-1685.410096
158.760637,5847.626942,7550.100608,-1762.019645
158.760958,5477.523971,7698.141797,-842.705048
158.761279,4885.359217,7994.224174,-612.876398
158.761600,4441.235652,8364.327145,-153.219100
158.761921,4145.153275,8364.327145,76.609550
158.762241,3627.009116,8586.388927,995.924147
158.762562,3478.967927,8512.368333,1072.533697
158.762883,3182.885551,8438.347739,1378.971896
158.763204,2886.803174,8586.388927,766.095498
158.763525,2886.803174,8216.285956,612.876398
158.763845,3404.947333,8290.306550,842.705048
158.764165,3701.029710,8216.285956,1838.629195
158.764486,4219.173869,8142.265362,1225.752797
158.764807,4441.235652,8216.285956,919.314598
158.765128,5625.565159,7476.080014,536.266849
158.765449,5477.523971,7254.018232,383.047749
158.765770,6291.750507,7105.977043,383.047749
158.766091,6513.812290,6365.771101,153.219100
158.766412,6735.874072,6365.771101,-612.876398
158.766733,7254.018232,6439.791695,-689.485948
158.767054,7402.059420,7031.956449,-995.924147
158.767374,7624.121203,6809.894666,-1762.019645
158.767695,7179.997637,7698.141797,-1532.190996
158.768016,6809.894666,7698.141797,-1762.019645
158.768337,6587.832884,7624.121203,-1455.581446
158.768658,6217.729913,7920.203579,-1072.533697
158.768979,5255.462188,7994.224174,-1072.533697
158.769300,4737.318029,7698.141797,-995.924147
158.769621,4071.132681,7994.224174,-919.314598
158.769942,3701.029710,8512.368333,-306.438199
158.770263,3701.029710,8734.430116,0.000000
158.770583,3330.926739,8438.347739,0.000000
158.770904,3256.906145,9326.594869,153.219100
158.771225,2516.700203,9622.677246,383.047749
158.771546,2368.659014,9918.759623,766.095498
158.771867,3108.864956,9548.656652,459.657299
158.772188,3330.926739,9696.697840,995.924147
158.772509,3404.947333,9622.677246,1302.362347
158.772830,3849.070898,9326.594869,995.924147
158.773151,3997.112087,8734.430116,995.924147
158.773472,4293.194464,7920.203579,766.095498
158.773792,5107.421000,7772.162391,536.266849
158.774113,5551.544565,7254.018232,459.657299
158.774434,6069.688724,7105.977043,0.000000
158.774755,6513.812290,7105.977043,-689.485948
158.775076,6883.915261,6957.935855,-689.485948
158.775397,6809.894666,7254.018232,-459.657299
158.775718,7105.977043,7624.121203,-1378.971896
158.776039,7254.018232,7698.141797,-1685.410096
158.776360,7105.977043,7994.224174,-2068.457845
158.776681,6735.874072,7920.203579,-2374.896044
158.777001,6365.771101,7476.080014,-1762.019645
158.777322,5551.544565,7920.203579,-1455.581446
158.777643,5033.400406,7920.203579,-1378.971896
158.777964,4589.276840,8142.265362,-612.876398
158.778285,4071.132681,8512.368333,-306.438199
158.778606,3552.988522,9178.553681,0.000000
158.778927,3330.926739,8586.388927,306.438199
158.779248,2886.803174,8512.368333,766.095498
158.779569,2960.823768,8882.471304,919.314598
158.779890,2738.761985,8808.450710,1149.143247
158.780210,2590.720797,9104.533087,766.095498
158.780531,2812.782580,8882.471304,919.314598
158.780852,3552.988522,8586.388927,1149.143247
158.781173,3923.091493,8364.327145,842.705048
158.781494,4737.318029,8068.244768,1149.143247
158.781815,5551.544565,7920.203579,842.705048
158.782136,5551.544565,7550.100608,383.047749
158.782457,6365.771101,7179.997637,0.000000
158.782778,6735.874072,6809.894666,-153.219100
158.783099,7179.997637,6661.853478,-306.438199
158.783419,7846.182985,6661.853478,-536.266849
158.783740,7476.080014,7105.977043,-995.924147
158.784061,7105.977043,7254.018232,-1685.410096
158.784382,7179.997637,7179.997637,-1532.190996
158.784703,7105.977043,7476.080014,-1685.410096
158.785024,6957.935855,7624.121203,-1762.019645
158.785345,6439.791695,7624.121203,-1455.581446
158.785666,5699.585753,7402.059420,-1378.971896
158.785987,4959.379811,7328.038826,-766.095498
158.786308,4663.297435,7772.162391,-459.657299
158.786628,4145.153275,8216.285956,0.000000
158.786949,3701.029710,8438.347739,0.000000
158.787270,3627.009116,8438.347739,-229.828649
158.787591,3330.926739,8512.368333,536.266849
158.787912,3034.844362,9178.553681,1302.362347
158.788233,3404.947333,9548.656652,1072.533697
158.788554,3108.864956,9178.553681,1072.533697
158.788875,3330.926739,9104.533087,919.314598
158.789196,3552.988522,9104.533087,1072.533697
158.789517,4071.132681,8586.388927,1455.581446
158.789837,4367.215058,8142.265362,1225.752797
158.790158,4737.318029,7772.162391,689.485948
158.790479,5181.441594,7328.038826,459.657299
158.790800,5847.626942,7105.977043,229.828649
158.791121,6069.688724,6735.874072,0.000000
158.791442,6143.709319,7254.018232,-229.828649
158.791763,6735.874072,6661.853478,-153.219100
158.792084,7105.977043,6957.935855,-995.924147
158.792405,7105.977043,7254.018232,-1149.143247
158.792726,7254.018232,7402.059420,-1838.629195
158.793046,6883.915261,8142.265362,-2068.457845
158.793367,6439.791695,7846.182985,-2145.067394
158.793688,6069.688724,7994.224174,-1838.629195
158.794009,5107.421000,8142.265362,-1915.238745
158.794330,5033.400406,8216.285956,-1072.533697
158.794651,3775.050304,8734.430116,-612.876398
158.794972,3775.050304,9178.553681,-383.047749
158.795293,3108.864956,9400.615463,-459.657299
158.795614,3034.844362,9178.553681,153.219100
158.795935,2886.803174,9104.533087,229.828649
158.796255,2220.617826,9178.553681,1149.143247
158.796576,2368.659014,9400.615463,842.705048
158.796897,2368.659014,9252.574275,766.095498
158.797218,2738.761985,9178.553681,689.485948
158.797539,2886.803174,8956.491898,1225.752797
158.797860,3552.988522,9104.533087,1302.362347
158.798181,4219.173869,8956.491898,383.047749
158.798502,5033.400406,8142.265362,612.876398
158.798823,5625.565159,7698.141797,536.266849
158.799144,5995.668130,7328.038826,0.000000
158.799464,6735.874072,6735.874072,-383.047749
158.799785,7105.977043,6513.812290,-383.047749
158.800106,7476.080014,6439.791695,-766.095498
158.800427,7772.162391,7031.956449,-995.924147
158.800748,7846.182985,7105.977043,-1991.848295
158.801069,7846.182985,7254.018232,-1762.019645
158.801390,7402.059420,7254.018232,-1991.848295
158.801711,7105.977043,7328.038826,-1838.629195
158.802032,6735.874072,7328.038826,-1378.971896
158.802353,5773.606348,7624.121203,-1455.581446
158.802674,5255.462188,7550.100608,-1455.581446
158.802994,4663.297435,7994.224174,-995.924147
158.803315,4219.173869,7994.224174,-383.047749
158.803636,3849.070898,8808.450710,-153.219100
158.803957,2960.823768,8808.450710,-383.047749
158.804278,2886.803174,9326.594869,76.609550
158.804599,2442.679609,9474.636058,612.876398
158.804920,2812.782580,9548.656652,919.314598
158.805241,2812.782580,9474.636058,1072.533697
158.805562,2960.823768,9622.677246,1149.143247
158.805883,3182.885551,9178.553681,1149.143247
158.806203,3552.988522,8512.368333,1532.190996
158.806524,3923.091493,8142.265362,1455.581446
158.806845,4589.276840,7550.100608,1455.581446
158.807166,4885.359217,7476.080014,842.705048
158.807487,5625.565159,7105.977043,536.266849
158.807808,6291.750507,7105.977043,0.000000
158.808129,6513.812290,6587.832884,-306.438199
158.808450,7031.956449,6439.791695,-459.657299
158.808771,7476.080014,7031.956449,-842.705048
158.809092,7328.038826,7550.100608,-1532.190996
158.809412,7698.141797,7698.141797,-2068.457845
158.809733,7476.080014,7772.162391,-1915.238745
158.810054,7031.956449,7920.203579,-1685.410096
158.810375,6143.709319,7772.162391,-1302.362347
158.810696,5625.565159,7698.141797,-1225.752797
158.811017,5477.523971,7698.141797,-995.924147
158.811338,4441.235652,8068.244768,-842.705048
158.811659,3627.009116,8364.327145,-229.828649
158.811980,3182.885551,8808.450710,0.000000
158.812301,3256.906145,8808.450710,689.485948
158.812621,2738.761985,8660.409521,766.095498
158.812942,2442.679609,8956.491898,995.924147
158.813263,2368.659014,9178.553681,842.705048
158.813584,2368.659014,9104.533087,919.314598
158.813905,2960.823768,8956.491898,306.438199
158.814226,3330.926739,8438.347739,1072.533697
158.814547,4071.132681,8438.347739,1149.143247
158.814868,4441.235652,8290.306550,1072.533697
158.815189,4885.359217,8068.244768,689.485948
158.815510,5477.523971,7624.121203,459.657299
158.815830,6069.688724,7179.997637,0.000000
158.816151,6587.832884,6661.853478,0.000000
158.816472,6957.935855,6513.812290,-229.828649
158.816793,7328.038826,6661.853478,-612.876398
158.817114,7476.080014,6957.935855,-1072.533697
158.817435,7105.977043,7550.100608,-1608.800546
158.817756,7031.956449,7179.997637,-1685.410096
158.818077,7328.038826,7698.141797,-1762.019645
158.818398,7031.956449,7772.162391,-1608.800546
158.818719,6735.874072,7550.100608,-995.924147
158.819039,5773.606348,7772.162391,-1532.190996
158.819360,5329.482782,7624.121203,-1072.533697
158.819681,4663.297435,8142.265362,-995.924147
158.820002,3997.112087,8586.388927,-766.095498
158.820323,4071.132681,8956.491898,0.000000
158.820644,3478.967927,9400.615463,0.000000
158.820965,2960.823768,9252.574275,76.609550
158.821286,3182.885551,9400.615463,689.485948
158.821607,2886.803174,9696.697840,919.314598
158.821928,2738.761985,9622.677246,1455.581446
158.822248,2960.823768,9326.594869,1225.752797
158.822569,3330.926739,9178.553681,1378.971896
158.822890,3775.050304,8586.388927,1608.800546
158.823211,4219.173869,8512.368333,1225.752797
158.823532,4589.276840,7994.224174,1225.752797
158.823853,4885.359217,7179.997637,612.876398
158.824174,5403.503377,7105.977043,0.000000
158.824495,6143.709319,7105.977043,-153.219100
158.824816,6365.771101,6661.853478,-306.438199
158.825137,6661.853478,6883.915261,-842.705048
158.825457,7328.038826,6883.915261,-842.705048
158.825778,7179.997637,7698.141797,-1915.238745
158.826099,7105.977043,7920.203579,-1991.848295
158.826420,6957.935855,8142.265362,-1762.019645
158.826741,6883.915261,8290.306550,-1762.019645
158.827062,5847.626942,8290.306550,-1762.019645
158.827383,5255.462188,7624.121203,-1378.971896
158.827704,4589.276840,7994.224174,-995.924147
158.828025,4145.153275,8290.306550,-383.047749
158.828346,3775.050304,9178.553681,0.000000
158.828666,2960.823768,9104.533087,153.219100
158.828987,2738.761985,9030.512492,612.876398
158.829308,2368.659014,9178.553681,1072.533697
158.829629,2220.617826,9252.574275,1072.533697
158.829950,2294.638420,9030.512492,1302.362347
158.830271,2368.659014,9104.533087,919.314598
158.830592,2738.761985,9400.615463,995.924147
158.830913,3182.885551,8586.388927,1378.971896
158.831234,3997.112087,8364.327145,1302.362347
158.831555,4885.359217,8290.306550,689.485948
158.831875,5329.482782,7698.141797,766.095498
158.832196,5921.647536,7179.997637,459.657299
158.832517,6661.853478,6587.832884,306.438199
158.832838,7105.977043,6291.750507,-459.657299
158.833159,7698.141797,6513.812290,-383.047749
158.833480,8216.285956,6143.709319,-842.705048
158.833801,8512.368333,6587.832884,-1532.190996
158.834122,8216.285956,6735.874072,-1915.238745
158.834443,8290.306550,6809.894666,-1915.238745
158.834764,7846.182985,7402.059420,-1838.629195
158.835084,7624.121203,7328.038826,-1762.019645
158.835405,6809.894666,7698.141797,-1608.800546
158.835726,5847.626942,7624.121203,-1838.629195
158.836047,4737.318029,7624.121203,-1455.581446
158.836368,4367.215058,8290.306550,-612.876398
158.836689,3923.091493,8512.368333,-306.438199
158.837010,3330.926739,8808.450710,0.000000
158.837331,2960.823768,8882.471304,-153.219100
158.837652,2368.659014,9400.615463,459.657299
158.837973,2590.720797,9400.615463,1455.581446
158.838293,2368.659014,9844.739029,1225.752797
158.838614,2368.659014,9918.759623,1225.752797
158.838935,2664.741391,9400.615463,1149.143247
158.839256,2960.823768,9474.636058,1532.190996
158.839577,3552.988522,8734.430116,1225.752797
158.839898,3552.988522,8438.347739,995.924147
158.840219,4589.276840,7772.162391,842.705048
158.840540,4959.379811,7624.121203,229.828649
158.840861,5699.585753,7254.018232,76.609550
158.841182,6291.750507,7179.997637,-76.609550
158.841502,6735.874072,7105.977043,-459.657299
158.841823,7179.997637,6957.935855,-995.924147
158.842144,7179.997637,7328.038826,-1302.362347
158.842465,7624.121203,7550.100608,-1608.800546
158.842786,7550.100608,7698.141797,-1915.238745
158.843107,7328.038826,8438.347739,-2068.457845
158.843428,6587.832884,8216.285956,-2145.067394
158.843749,6217.729913,7920.203579,-1685.410096
158.844070,5107.421000,8142.265362,-1455.581446
158.844391,4515.256246,8142.265362,-459.657299
158.844711,3997.112087,8438.347739,-153.219100
158.845032,3256.906145,8882.471304,-459.657299
158.845353,3108.864956,8734.430116,229.828649
158.845674,2812.782580,8882.471304,1072.533697
158.845995,2590.720797,9252.574275,1532.190996
158.846316,2516.700203,8808.450710,1302.362347
158.846637,2664.741391,8882.471304,919.314598
158.846958,2590.720797,8660.409521,766.095498
158.847279,3256.906145,8734.430116,1378.971896
158.847600,3923.091493,9030.512492,1378.971896
158.847920,4441.235652,8142.265362,1225.752797
158.848241,5107.421000,7698.141797,1225.752797
158.848562,5773.606348,7402.059420,689.485948
158.848883,6069.688724,7105.977043,459.657299
158.849204,6587.832884,6735.874072,153.219100
158.849525,7105.977043,5995.668130,-306.438199
158.849846,7846.182985,6217.729913,-612.876398
158.850167,8216.285956,6143.709319,-919.314598
158.850488,7994.224174,6365.771101,-1455.581446
158.850809,7846.182985,6809.894666,-1915.238745
158.851129,7550.100608,7328.038826,-1915.238745
158.851450,7328.038826,7624.121203,-1608.800546
158.851771,7105.977043,7624.121203,-1532.190996
158.852092,6365.771101,7624.121203,-1455.581446
158.852413,5329.482782,7920.203579,-1532.190996
158.852734,4737.318029,7550.100608,-919.314598
158.853055,4441.235652,8142.265362,-612.876398
158.853376,3997.112087,8216.285956,-612.876398
158.853697,3775.050304,8808.450710,-153.219100
158.854018,3256.906145,9474.636058,229.828649
158.854338,2738.761985,9178.553681,536.266849
158.854659,2664.741391,9548.656652,995.924147
158.854980,2812.782580,9696.697840,1072.533697
158.855301,2738.761985,9696.697840,766.095498
158.855622,3552.988522,9548.656652,842.705048
158.855943,3182.885551,9326.594869,1532.190996
158.856264,3701.029710,8808.450710,1378.971896
158.856585,4071.132681,8660.409521,1072.533697
158.856906,4737.318029,7772.162391,689.485948
158.857227,5255.462188,7698.141797,536.266849
158.857547,5847.626942,7402.059420,-229.828649
158.857868,6365.771101,6957.935855,-612.876398
158.858189,6809.894666,7105.977043,-612.876398
158.858510,7254.018232,6883.915261,-995.924147
158.858831,7328.038826,7402.059420,-995.924147
158.859152,7179.997637,7328.038826,-1378.971896
158.859473,7179.997637,7994.224174,-1991.848295
158.859794,7031.956449,8364.327145,-2451.505594
158.860115,6069.688724,8216.285956,-1991.848295
158.860436,5625.565159,8142.265362,-1532.190996
158.860757,4959.379811,7846.182985,-1149.143247
158.861077,4589.276840,8142.265362,-842.705048
158.861398,4145.153275,8512.368333,-383.047749
158.861719,3108.864956,8660.409521,-229.828649
158.862040,2886.803174,8734.430116,0.000000
158.862361,2960.823768,9252.574275,536.266849
158.862682,2220.617826,9030.512492,1302.362347
158.863003,2368.659014,9104.533087,1302.362347
158.863324,2368.659014,8808.450710,919.314598
158.863645,2590.720797,8364.327145,995.924147
158.863966,3108.864956,8290.306550,1072.533697
158.864287,3552.988522,8216.285956,1225.752797
158.864608,4293.194464,7994.224174,1302.362347
158.864929,4737.318029,7920.203579,689.485948
158.865250,5699.585753,7402.059420,153.219100
158.865570,6365.771101,7031.956449,0.000000
158.865891,6883.915261,6735.874072,0.000000
158.866212,7328.038826,6217.729913,-612.876398
158.866533,7698.141797,6365.771101,-459.657299
158.866854,7624.121203,6587.832884,-536.266849
158.867175,8216.285956,6513.812290,-1532.190996
158.867496,7920.203579,6883.915261,-1991.848295
158.867817,7772.162391,7328.038826,-1838.629195
158.868138,7846.182985,7402.059420,-1915.238745
158.868459,7179.997637,7624.121203,-1838.629195
158.868780,6439.791695,7328.038826,-1378.971896
158.869101,5255.462188,7550.100608,-1072.533697
158.869422,4737.318029,7476.080014,-995.924147
158.869743,4293.194464,7994.224174,-612.876398
158.870064,4367.215058,8882.471304,-612.876398
158.870385,3849.070898,8956.491898,0.000000
158.870706,3627.009116,9030.512492,0.000000
158.871027,2886.803174,9474.636058,306.438199
158.871348,2812.782580,9548.656652,1072.533697
158.871669,2516.700203,9696.697840,919.314598
158.871990,2664.741391,9696.697840,1302.362347
158.872311,3108.864956,9622.677246,1149.143247
158.872632,3256.906145,9474.636058,1149.143247
158.872953,3552.988522,8882.471304,1302.362347
158.873274,3849.070898,8438.347739,1225.752797
158.873595,4515.256246,7772.162391,766.095498
158.873915,4959.379811,7624.121203,536.266849
158.874236,5625.565159,7254.018232,229.828649
158.874557,6143.709319,7105.977043,-229.828649
158.874878,6661.853478,7328.038826,-229.828649
158.875199,6809.894666,7476.080014,-995.924147
158.875520,7105.977043,7105.977043,-1302.362347
158.875841,7105.977043,7624.121203,-1608.800546
158.876162,7105.977043,7846.182985,-1838.629195
158.876483,6883.915261,8216.285956,-2145.067394
158.876804,6291.750507,7846.182985,-1915.238745
158.877125,5625.565159,8068.244768,-1685.410096
158.877446,5107.421000,8068.244768,-1532.190996
158.877767,4737.318029,8142.265362,-919.314598
158.878088,4145.153275,8660.409521,-306.438199
158.878409,3256.906145,8364.327145,0.000000
158.878730,3182.885551,8586.388927,0.000000
158.879051,3182.885551,8734.430116,612.876398
158.879372,2664.741391,8956.491898,536.266849
158.879693,2664.741391,8808.450710,919.314598
158.880014,2368.659014,8956.491898,612.876398
158.880335,2442.679609,8956.491898,689.485948
158.880656,2960.823768,8512.368333,919.314598
158.880977,3552.988522,8216.285956,1838.629195
158.881298,4145.153275,8142.265362,1072.533697
158.881619,4737.318029,7698.141797,1072.533697
158.881940,5773.606348,7624.121203,459.657299
158.882260,6069.688724,7328.038826,229.828649
158.882581,6365.771101,7031.956449,-612.876398
158.882902,7105.977043,6513.812290,-153.219100
158.883223,7476.080014,6217.729913,-459.657299
158.883544,7994.224174,6439.791695,-536.266849
158.883865,7772.162391,6661.853478,-1302.362347
158.884186,7624.121203,6883.915261,-1608.800546
158.884507,7550.100608,7402.059420,-1915.238745
158.884828,7550.100608,7402.059420,-1762.019645
158.885149,7105.977043,7550.100608,-1378.971896
158.885470,6365.771101,7550.100608,-1302.362347
158.885791,5551.544565,7920.203579,-1762.019645
158.886112,4737.318029,7772.162391,-1149.143247
158.886433,4737.318029,7772.162391,-612.876398
158.886754,4145.153275,8364.327145,-536.266849
158.887075,3775.050304,8734.430116,-536.266849
158.887396,3923.091493,9030.512492,459.657299
158.887717,3034.844362,9326.594869,306.438199
158.888038,2664.741391,9400.615463,1072.533697
158.888359,2812.782580,9770.718434,919.314598
158.888680,2886.803174,9400.615463,842.705048
158.889001,3256.906145,9474.636058,1302.362347
158.889322,3256.906145,9178.553681,1149.143247
158.889643,3552.988522,9030.512492,1378.971896
158.889964,4219.173869,8216.285956,1072.533697
158.890285,4441.235652,8068.244768,919.314598
158.890605,5181.441594,7105.977043,689.485948
158.890926,5255.462188,7328.038826,0.000000
158.891247,5921.647536,6957.935855,0.000000
158.891568,6217.729913,6883.915261,-306.438199
158.891889,6661.853478,7254.018232,-459.657299
158.892210,6957.935855,7254.018232,-1302.362347
158.892531,7105.977043,7624.121203,-1608.800546
158.892852,6809.894666,8216.285956,-1762.019645
158.893173,6661.853478,8512.368333,-1915.238745
158.893494,6365.771101,8438.347739,-1838.629195
158.893815,5847.626942,8290.306550,-1685.410096
158.894136,5329.482782,8142.265362,-1532.190996
158.894457,4367.215058,8290.306550,-766.095498
158.894778,3849.070898,8512.368333,-536.266849
158.895099,3627.009116,9104.533087,-459.657299
158.895420,3034.844362,9030.512492,153.219100
158.895741,3108.864956,8956.491898,306.438199
158.896062,2590.720797,9400.615463,842.705048
158.896383,2590.720797,9104.533087,919.314598
158.896704,2516.700203,8882.471304,919.314598
158.897025,2886.803174,9030.512492,689.485948
158.897346,3108.864956,8808.450710,1072.533697
158.897667,3552.988522,8512.368333,1378.971896
158.897988,4367.215058,8068.244768,1378.971896
158.898309,5033.400406,7994.224174,536.266849
158.898630,5625.565159,7624.121203,459.657299
158.898950,6143.709319,7179.997637,536.266849
158.899271,6587.832884,6883.915261,153.219100
158.899592,7031.956449,6587.832884,-153.219100
158.899913,7179.997637,6587.832884,-612.876398
158.900234,7105.977043,6513.812290,-919.314598
158.900555,7698.141797,6587.832884,-1072.533697
158.900876,7772.162391,7031.956449,-1762.019645
158.901197,7772.162391,7105.977043,-1762.019645
158.901518,7254.018232,7328.038826,-1455.581446
158.901839,6513.812290,7328.038826,-1302.362347
158.902160,6217.729913,7328.038826,-1072.533697
158.902481,5181.441594,7402.059420,-1225.752797
158.902802,4589.276840,7624.121203,-306.438199
158.903123,4515.256246,7920.203579,-459.657299
158.903444,4071.132681,8364.327145,0.000000
158.903765,3775.050304,8364.327145,0.000000
158.904086,3404.947333,8882.471304,-306.438199
158.904407,2812.782580,9252.574275,536.266849
158.904728,2886.803174,9474.636058,612.876398
158.905049,2886.803174,9474.636058,1072.533697
158.905370,3182.885551,9474.636058,842.705048
158.905691,3108.864956,9326.594869,1072.533697
158.906012,3330.926739,9104.533087,1149.143247
158.906333,3478.967927,8734.430116,1225.752797
158.906654,4367.215058,8290.306550,1149.143247
158.906974,4589.276840,7550.100608,766.095498
158.907295,5181.441594,7328.038826,383.047749
158.907616,5995.668130,7254.018232,229.828649
158.907937,6291.750507,7105.977043,-229.828649
158.908258,6809.894666,7031.956449,-536.266849
158.908579,7105.977043,7179.997637,-383.047749
158.908900,7402.059420,7624.121203,-995.924147
158.909221,7550.100608,7698.141797,-1762.019645
158.909542,7328.038826,8142.265362,-2068.457845
158.909863,6809.894666,8364.327145,-1915.238745
158.910184,6439.791695,7994.224174,-1685.410096
158.910505,6143.709319,8142.265362,-1762.019645
158.910826,5329.482782,8142.265362,-1225.752797
158.911147,4589.276840,8216.285956,-536.266849
158.911468,4145.153275,8586.388927,-306.438199
158.911789,3404.947333,8734.430116,-153.219100
158.912110,3330.926739,9030.512492,76.609550
158.912431,2886.803174,8956.491898,995.924147
158.912752,2442.679609,9252.574275,842.705048
158.913073,2220.617826,8956.491898,1225.752797
158.913394,2442.679609,8808.450710,1225.752797
158.913715,2368.659014,8882.471304,612.876398
158.914036,2960.823768,8734.430116,995.924147
158.914357,3330.926739,8808.450710,1225.752797
158.914678,4293.194464,8068.244768,995.924147
158.914999,4737.318029,7994.224174,919.314598
158.915319,5403.503377,7772.162391,153.219100
158.915640,6069.688724,7476.080014,0.000000
158.915961,6735.874072,6735.874072,76.609550
158.916282,7031.956449,6365.771101,-229.828649
158.916603,7624.121203,6217.729913,-383.047749
158.916924,8068.244768,6217.729913,-689.485948
158.917245,7698.141797,6587.832884,-1378.971896
158.917566,7772.162391,6809.894666,-1685.410096
158.917887,7994.224174,7105.977043,-1991.848295
158.918208,7772.162391,7402.059420,-1532.190996
158.918529,7105.977043,7254.018232,-1762.019645
158.918850,6513.812290,7179.997637,-1455.581446
158.919171,5773.606348,7328.038826,-1302.362347
158.919492,4959.379811,7624.121203,-842.705048
158.919813,4441.235652,7994.224174,-766.095498
158.920134,4441.235652,8290.306550,-383.047749
158.920455,3849.070898,8660.409521,-306.438199
158.920776,3627.009116,8734.430116,459.657299
158.921097,3108.864956,9474.636058,536.266849
158.921418,2886.803174,9400.615463,689.485948
158.921739,2886.803174,9548.656652,919.314598
158.922060,2812.782580,9400.615463,1072.533697
158.922381,2960.823768,9252.574275,1378.971896
158.922702,3404.947333,9252.574275,1225.752797
158.923023,3775.050304,9030.512492,1455.581446
158.923344,3923.091493,8586.388927,1302.362347
158.923664,4441.235652,7920.203579,459.657299
158.923985,4811.338623,7476.080014,459.657299
158.924306,5921.647536,7476.080014,0.000000
158.924627,5847.626942,7179.997637,-229.828649
158.924948,6291.750507,7254.018232,-612.876398
158.925269,6513.812290,7402.059420,-995.924147
158.925590,6809.894666,7698.141797,-1378.971896
158.925911,6735.874072,7846.182985,-1685.410096
158.926232,6513.812290,8512.368333,-1915.238745
158.926553,6069.688724,8882.471304,-1915.238745
158.926874,5699.585753,8660.409521,-1685.410096
158.927195,5107.421000,8512.368333,-1532.190996
158.927516,4515.256246,8586.388927,-1915.238745
158.927837,3552.988522,8364.327145,-766.095498
158.928158,3330.926739,8734.430116,-306.438199
158.928479,2812.782580,8882.471304,0.000000
158.928800,2590.720797,9104.533087,0.000000
158.929121,2664.741391,9252.574275,536.266849
158.929442,2664.741391,9104.533087,1072.533697
158.929763,2590.720797,8882.471304,1455.581446
158.930084,2516.700203,8956.491898,919.314598
158.930405,3256.906145,8290.306550,612.876398
158.930726,3701.029710,8142.265362,766.095498
158.931047,4293.194464,8290.306550,1225.752797
158.931368,4885.359217,7994.224174,1072.533697
158.931689,5847.626942,7476.080014,766.095498
158.932009,6661.853478,7179.997637,306.438199
158.932330,7105.977043,6291.750507,76.609550
158.932651,7698.141797,5921.647536,0.000000
158.932972,8142.265362,5773.606348,-459.657299
158.933293,8512.368333,5847.626942,-689.485948
158.933614,8956.491898,5847.626942,-995.924147
158.933935,9326.594869,6069.688724,-1225.752797
158.934256,8882.471304,6513.812290,-1838.629195
158.934577,8438.347739,6587.832884,-1991.848295
158.934898,8068.244768,6957.935855,-1762.019645
158.935219,7328.038826,7105.977043,-1302.362347
158.935540,6587.832884,7105.977043,-1149.143247
158.935861,5773.606348,7328.038826,-1302.362347
158.936182,4811.338623,7772.162391,-1149.143247
158.936503,4515.256246,8142.265362,-536.266849
158.936824,3849.070898,8660.409521,-536.266849
158.937145,3256.906145,8808.450710,0.000000
158.937466,3330.926739,8882.471304,459.657299
158.937787,2516.700203,9252.574275,536.266849
158.938108,2368.659014,9548.656652,1149.143247
158.938429,2442.679609,9770.718434,1225.752797
158.938750,2146.597232,9622.677246,842.705048
158.939071,2516.700203,9548.656652,1685.410096
158.939392,2960.823768,9400.615463,1378.971896
158.939713,3034.844362,9178.553681,1225.752797
158.940034,3552.988522,8956.491898,612.876398
158.940354,3775.050304,8290.306550,229.828649
158.940675,4589.276840,7772.162391,76.609550
158.940996,5181.441594,7920.203579,0.000000
158.941317,5625.565159,7402.059420,-229.828649
158.941638,6439.791695,7550.100608,0.000000
158.941959,6587.832884,7105.977043,-459.657299
158.942280,6735.874072,7624.121203,-1225.752797
158.942601,6661.853478,7920.203579,-1762.019645
158.942922,6957.935855,7920.203579,-1838.629195
158.943243,6365.771101,8216.285956,-1532.190996
158.943564,6291.750507,8068.244768,-1915.238745
158.943885,5921.647536,7994.224174,-1762.019645
158.944206,5107.421000,7920.203579,-1225.752797
158.944527,4737.318029,8068.244768,-306.438199
158.944848,4589.276840,8364.327145,-689.485948
158.945169,3552.988522,8882.471304,0.000000
158.945490,3478.967927,8660.409521,0.000000
158.945811,3404.947333,8882.471304,536.266849
158.946132,2960.823768,9326.594869,995.924147
158.946453,2886.803174,9178.553681,919.314598
158.946774,2886.803174,8808.450710,612.876398
158.947095,2812.782580,8734.430116,919.314598
158.947416,3182.885551,8734.430116,1225.752797
158.947737,3775.050304,8438.347739,1072.533697
158.948058,4145.153275,8290.306550,1225.752797
158.948378,4663.297435,7994.224174,1225.752797
158.948699,5033.400406,7772.162391,766.095498
158.949020,5625.565159,7179.997637,383.047749
158.949341,5773.606348,6957.935855,-383.047749
158.949662,6809.894666,6291.750507,-153.219100
158.949983,7105.977043,6291.750507,-229.828649
158.950304,7031.956449,6883.915261,-766.095498
158.950625,7179.997637,7105.977043,-1225.752797
158.950946,7476.080014,7328.038826,-2145.067394
158.951267,7328.038826,7624.121203,-1762.019645
158.951588,6957.935855,7698.141797,-1685.410096
158.951909,6439.791695,7624.121203,-1225.752797
158.952230,5847.626942,7550.100608,-1378.971896
158.952551,5181.441594,7550.100608,-1302.362347
158.952872,4589.276840,7550.100608,-995.924147
158.953193,4515.256246,7994.224174,-612.876398
158.953514,3997.112087,8512.368333,-229.828649
158.953835,3478.967927,8882.471304,76.609550
158.954156,3478.967927,8660.409521,153.219100
158.954477,2738.761985,8956.491898,536.266849
158.954798,3108.864956,9252.574275,842.705048
158.955119,2664.741391,9548.656652,919.314598
158.955440,2738.761985,9696.697840,1302.362347
158.955761,3108.864956,9326.594869,1149.143247
158.956082,3552.988522,8956.491898,1225.752797
158.956403,3775.050304,8808.450710,995.924147
158.956723,4219.173869,8290.306550,1149.143247
158.957044,4589.276840,8068.244768,459.657299
158.957365,5181.441594,7550.100608,612.876398
158.957686,5699.585753,7179.997637,153.219100
158.958007,5995.668130,7105.977043,0.000000
158.958328,6513.812290,6883.915261,0.000000
158.958649,6957.935855,7105.977043,-536.266849
158.958970,7105.977043,7328.038826,-1378.971896
158.959291,7402.059420,7772.162391,-1532.190996
158.959612,7179.997637,7772.162391,-1685.410096
158.959933,6957.935855,8216.285956,-1838.629195
158.960254,6513.812290,8216.285956,-1455.581446
158.960575,5773.606348,7772.162391,-1532.190996
158.960896,5255.462188,7920.203579,-995.924147
158.961217,4663.297435,8216.285956,-1149.143247
158.961538,4663.297435,8512.368333,-306.438199
158.961859,3701.029710,8512.368333,-536.266849
158.962180,3701.029710,8586.388927,-153.219100
158.962501,3404.947333,8808.450710,383.047749
158.962822,2812.782580,8882.471304,766.095498
158.963143,2960.823768,8808.450710,689.485948
158.963464,3108.864956,8660.409521,766.095498
158.963785,3182.885551,8438.347739,689.485948
158.964106,3330.926739,8512.368333,995.924147
158.964427,3775.050304,8512.368333,1225.752797
158.964748,4737.318029,8142.265362,1149.143247
158.965068,5181.441594,7920.203579,995.924147
158.965389,5995.668130,7328.038826,536.266849
158.965710,6217.729913,7031.956449,76.609550
158.966031,6661.853478,6661.853478,0.000000
158.966352,7031.956449,6513.812290,-153.219100
158.966673,7328.038826,6439.791695,-459.657299
158.966994,7624.121203,6661.853478,-919.314598
158.967315,7624.121203,7105.977043,-1378.971896
158.967636,7550.100608,7624.121203,-1685.410096
158.967957,7105.977043,7920.203579,-1532.190996
158.968278,6957.935855,7846.182985,-1532.190996
158.968599,6513.812290,7550.100608,-1302.362347
158.968920,5403.503377,7920.203579,-1225.752797
158.969241,4959.379811,8364.327145,-1302.362347
158.969562,4145.153275,8290.306550,-995.924147
158.969883,4071.132681,8364.327145,-689.485948
158.970204,3627.009116,8660.409521,0.000000
158.970525,3182.885551,8882.471304,153.219100
158.970846,2590.720797,9178.553681,459.657299
158.971167,2442.679609,9474.636058,459.657299
158.971488,2664.741391,9696.697840,612.876398
158.971809,2590.720797,9844.739029,1072.533697
158.972130,2590.720797,9696.697840,919.314598
158.972451,3182.885551,9474.636058,1149.143247
158.972772,3108.864956,9474.636058,1302.362347
158.973093,3478.967927,9030.512492,995.924147
158.973413,3849.070898,8142.265362,1072.533697
158.973734,4515.256246,7772.162391,842.705048
158.974055,5255.462188,7772.162391,0.000000
158.974376,5773.606348,7402.059420,-306.438199
158.974697,5625.565159,7402.059420,0.000000
158.975018,6365.771101,7328.038826,-383.047749
158.975339,6809.894666,7031.956449,-766.095498
158.975660,7179.997637,7328.038826,-1302.362347
158.975981,7031.956449,7698.141797,-1378.971896
158.976302,6735.874072,8290.306550,-1991.848295
158.976623,6513.812290,8216.285956,-1838.629195
158.976944,5995.668130,8216.285956,-1455.581446
158.977265,5329.482782,8142.265362,-1225.752797
158.977586,4811.338623,8142.265362,-1149.143247
158.977907,4293.194464,8290.306550,-536.266849
158.978228,3997.112087,8512.368333,-306.438199
158.978549,3627.009116,8660.409521,229.828649
158.978870,3182.885551,8734.430116,229.828649
158.979191,3256.906145,8882.471304,766.095498
158.979512,3108.864956,8734.430116,766.095498
158.979833,2812.782580,8734.430116,842.705048
158.980154,3034.844362,8734.430116,919.314598
158.980475,3182.885551,8882.471304,766.095498
158.980796,3627.009116,8364.327145,1378.971896
158.981117,4145.153275,7994.224174,1149.143247
158.981438,4589.276840,7846.182985,1149.143247
158.981758,5551.544565,7402.059420,612.876398
158.982079,5699.585753,7328.038826,459.657299
158.982400,6365.771101,6957.935855,229.828649
158.982721,7031.956449,6513.812290,-76.609550
158.983042,7550.100608,6143.709319,-536.266849
158.983363,7550.100608,6291.750507,-459.657299
158.983684,7772.162391,6217.729913,-919.314598
158.984005,7698.141797,6883.915261,-1608.800546
158.984326,7846.182985,7179.997637,-1838.629195
158.984647,7550.100608,7402.059420,-1838.629195
158.984968,7624.121203,7772.162391,-1762.019645
158.985289,6661.853478,7772.162391,-1532.190996
158.985610,6069.688724,7476.080014,-1378.971896
158.985931,5403.503377,7550.100608,-1072.533697
158.986252,4737.318029,8068.244768,-919.314598
158.986573,4293.194464,7994.224174,-612.876398
158.986894,3627.009116,8512.368333,-76.609550
158.987215,3404.947333,8882.471304,0.000000
158.987536,3330.926739,8808.450710,459.657299
158.987857,2960.823768,9474.636058,536.266849
158.988178,2664.741391,9548.656652,766.095498
158.988499,2738.761985,9696.697840,919.314598
158.988820,2738.761985,9696.697840,689.485948
158.989141,3182.885551,9252.574275,1378.971896
158.989462,3478.967927,9030.512492,1455.581446
158.989783,3997.112087,8956.491898,1149.143247
158.990103,4441.235652,8216.285956,1378.971896
158.990424,4959.379811,7994.224174,383.047749
158.990745,5107.421000,7328.038826,76.609550
158.991066,5699.585753,7105.977043,-153.219100
158.991387,6365.771101,6809.894666,-229.828649
158.991708,6735.874072,6809.894666,-459.657299
158.992029,6809.894666,7105.977043,-1149.143247
158.992350,6957.935855,7402.059420,-1532.190996
158.992671,7105.977043,7772.162391,-1378.971896
158.992992,6957.935855,8216.285956,-1762.019645
158.993313,6587.832884,8290.306550,-1915.238745
158.993634,5995.668130,8586.388927,-1608.800546
158.993955,5255.462188,8216.285956,-1762.019645
158.994276,4737.318029,8142.265362,-842.705048
158.994597,4293.194464,8364.327145,-995.924147
158.994918,3849.070898,8734.430116,-306.438199
158.995239,3330.926739,9030.512492,-229.828649
158.995560,3108.864956,8956.491898,306.438199
158.995881,2886.803174,8882.471304,612.876398
158.996202,2664.741391,8586.388927,1149.143247
158.996523,2886.803174,8734.430116,1149.143247
158.996844,2738.761985,8660.409521,766.095498
158.997165,2738.761985,8586.388927,1225.752797
158.997486,3775.050304,8660.409521,1149.143247
158.997807,4219.173869,8438.347739,842.705048
158.998128,4737.318029,7920.203579,766.095498
158.998448,5773.606348,7698.141797,612.876398
158.998769,6143.709319,7402.059420,459.657299
158.999090,6439.791695,7031.956449,0.000000
158.999411,7105.977043,6809.894666,0.000000
158.999732,7254.018232,6587.832884,-459.657299
159.000053,7402.059420,6735.874072,-153.219100
159.000374,7550.100608,6735.874072,-842.705048
159.000695,7550.100608,7031.956449,-1378.971896
159.001016,7550.100608,7254.018232,-1915.238745
159.001337,7402.059420,7179.997637,-1762.019645
159.001658,7105.977043,7179.997637,-1378.971896
159.001979,6217.729913,7402.059420,-1072.533697
159.002300,5403.503377,7624.121203,-1149.143247
159.002621,4885.359217,7624.121203,-842.705048
159.002942,4663.297435,7624.121203,-689.485948
159.003263,4589.276840,7846.182985,-306.438199
159.003584,3997.112087,8660.409521,-153.219100
159.003905,3330.926739,9030.512492,0.000000
159.004226,3182.885551,8882.471304,76.609550
159.004547,3034.844362,9030.512492,306.438199
159.004868,3108.864956,9326.594869,689.485948
159.005189,2960.823768,9474.636058,842.705048
159.005510,3034.844362,9474.636058,919.314598
159.005831,3478.967927,9252.574275,1149.143247
159.006152,3997.112087,8956.491898,1072.533697
159.006473,4515.256246,8142.265362,1302.362347
159.006793,4663.297435,7772.162391,995.924147
159.007114,4885.359217,7402.059420,536.266849
159.007435,5477.523971,7031.956449,229.828649
159.007756,6069.688724,7476.080014,306.438199
159.008077,6587.832884,7105.977043,-229.828649
159.008398,6957.935855,6735.874072,-383.047749
159.008719,7254.018232,7031.956449,-689.485948
159.009040,7105.977043,7550.100608,-1378.971896
159.009361,7328.038826,7772.162391,-1685.410096
159.009682,6809.894666,8142.265362,-1762.019645
159.010003,6513.812290,8142.265362,-2221.676944
159.010324,6143.709319,8290.306550,-1838.629195
159.010645,5551.544565,8216.285956,-1455.581446
159.010966,4663.297435,8290.306550,-995.924147
159.011287,4367.215058,8438.347739,-536.266849
159.011608,3849.070898,8512.368333,-306.438199
159.011929,3404.947333,8660.409521,0.000000
159.012250,2886.803174,9030.512492,459.657299
159.012571,2738.761985,8882.471304,995.924147
159.012892,2442.679609,9178.553681,919.314598
159.013213,2442.679609,9030.512492,919.314598
159.013534,2368.659014,9104.533087,842.705048
159.013855,2516.700203,9178.553681,689.485948
159.014176,3404.947333,9474.636058,1685.410096
159.014497,3701.029710,8882.471304,1225.752797
159.014818,4515.256246,8364.327145,689.485948
159.015138,5107.421000,8142.265362,842.705048
159.015459,5329.482782,7698.141797,383.047749
159.015780,6143.709319,7105.977043,-153.219100
159.016101,6809.894666,6735.874072,-536.266849
159.016422,7105.977043,6439.791695,-383.047749
159.016743,7402.059420,6365.771101,-612.876398
159.017064,7846.182985,6439.791695,-919.314598
159.017385,7772.162391,7179.997637,-1762.019645
159.017706,7698.141797,7179.997637,-1838.629195
159.018027,7402.059420,7328.038826,-1685.410096
159.018348,7254.018232,7328.038826,-1608.800546
159.018669,6735.874072,7772.162391,-1149.143247
159.018990,6143.709319,7772.162391,-995.924147
159.019311,5329.482782,7476.080014,-995.924147
159.019632,4811.338623,7624.121203,-919.314598
159.019953,4515.256246,7698.141797,-536.266849
159.020274,4071.132681,8142.265362,-306.438199
159.020595,3330.926739,8586.388927,0.000000
159.020916,3330.926739,8512.368333,536.266849
159.021237,3478.967927,8956.491898,536.266849
159.021558,3108.864956,9326.594869,842.705048
159.021879,2812.782580,9252.574275,919.314598
159.022200,3108.864956,9474.636058,383.047749
159.022521,3478.967927,8882.471304,842.705048
159.022842,3997.112087,8882.471304,1149.143247
159.023163,3997.112087,8512.368333,1072.533697
159.023483,4737.318029,8216.285956,153.219100
159.023804,4811.338623,7624.121203,689.485948
159.024125,5403.503377,7254.018232,229.828649
159.024446,5773.606348,7476.080014,0.000000
159.024767,6217.729913,7105.977043,-306.438199
159.025088,6291.750507,7031.956449,-306.438199
159.025409,6809.894666,7624.121203,-1302.362347
159.025730,6735.874072,7328.038826,-1455.581446
159.026051,7031.956449,7920.203579,-1685.410096
159.026372,6513.812290,8290.306550,-1762.019645
159.026693,6217.729913,8586.388927,-2145.067394
159.027014,5773.606348,8290.306550,-1608.800546
159.027335,5033.400406,8438.347739,-1532.190996
159.027656,4811.338623,8364.327145,-1302.362347
159.027977,4219.173869,8660.409521,-1072.533697
159.028298,3997.112087,8956.491898,-459.657299
159.028619,3256.906145,9252.574275,0.000000
159.028940,3404.947333,8882.471304,459.657299
159.029261,3034.844362,8882.471304,689.485948
159.029582,2738.761985,9104.533087,1149.143247
159.029903,2442.679609,8956.491898,995.924147
159.030224,2738.761985,8512.368333,766.095498
159.030545,3108.864956,8734.430116,842.705048
159.030866,3701.029710,8364.327145,1149.143247
159.031187,4071.132681,8216.285956,1378.971896
159.031508,4737.318029,8290.306550,1149.143247
159.031828,5699.585753,7920.203579,153.219100
159.032149,5847.626942,7179.997637,306.438199
159.032470,6513.812290,6809.894666,0.000000
159.032791,6957.935855,6661.853478,-76.609550
159.033112,7105.977043,6365.771101,-536.266849
159.033433,7476.080014,6439.791695,-1072.533697
159.033754,7698.141797,6439.791695,-919.314598
159.034075,7476.080014,7031.956449,-1532.190996
159.034396,7476.080014,7402.059420,-1838.629195
159.034717,7179.997637,7772.162391,-1762.019645
159.035038,6809.894666,7254.018232,-1302.362347
159.035359,6143.709319,7476.080014,-1072.533697
159.035680,5403.503377,7550.100608,-1149.143247
159.036001,4811.338623,7920.203579,-1225.752797
159.036322,4367.215058,7846.182985,-536.266849
159.036643,4219.173869,8290.306550,-153.219100
159.036964,4071.132681,8438.347739,0.000000
159.037285,3404.947333,9030.512492,0.000000
159.037606,2886.803174,9252.574275,153.219100
159.037927,2590.720797,9474.636058,459.657299
159.038248,2590.720797,9252.574275,1072.533697
159.038569,3034.844362,9400.615463,1302.362347
159.038890,3182.885551,9622.677246,1149.143247
159.039211,3108.864956,9326.594869,1149.143247
159.039532,3478.967927,9030.512492,1149.143247
159.039853,4145.153275,8512.368333,919.314598
159.040173,4515.256246,7920.203579,689.485948
159.040494,4959.379811,7698.141797,842.705048
159.040815,5329.482782,7402.059420,0.000000
159.041136,5921.647536,7624.121203,-153.219100
159.041457,6439.791695,7031.956449,-459.657299
159.041778,6957.935855,6587.832884,-229.828649
159.042099,7179.997637,7105.977043,-995.924147
159.042420,6957.935855,7402.059420,-1455.581446
159.042741,6957.935855,7772.162391,-1762.019645
159.043062,6735.874072,8216.285956,-1915.238745
159.043383,6513.812290,8216.285956,-1838.629195
159.043704,5995.668130,8438.347739,-1915.238745
159.044025,5551.544565,8142.265362,-1608.800546
159.044346,4737.318029,8142.265362,-1378.971896
159.044667,4441.235652,8290.306550,-689.485948
159.044988,4145.153275,8808.450710,0.000000
159.045309,3478.967927,8660.409521,153.219100
159.045630,3034.844362,8586.388927,383.047749
159.045951,2664.741391,8882.471304,689.485948
159.046272,2664.741391,8882.471304,1149.143247
159.046593,2368.659014,8956.491898,612.876398
159.046914,3108.864956,8364.327145,536.266849
159.047235,3182.885551,8586.388927,919.314598
159.047556,3627.009116,8660.409521,1149.143247
159.047877,4219.173869,8512.368333,995.924147
159.048198,5181.441594,8290.306550,842.705048
159.048518,5551.544565,8142.265362,153.219100
159.048839,5773.606348,7550.100608,229.828649
159.049160,6661.853478,6883.915261,0.000000
159.049481,6661.853478,7105.977043,0.000000
159.049802,7254.018232,6217.729913,-612.876398
159.050123,7550.100608,6439.791695,-919.314598
159.050444,7550.100608,6735.874072,-1532.190996
159.050765,7402.059420,7179.997637,-1762.019645
159.051086,7920.203579,7328.038826,-1685.410096
159.051407,7772.162391,7698.141797,-1072.533697
159.051728,7031.956449,7624.121203,-1532.190996
159.052049,6513.812290,7772.162391,-1302.362347
159.052370,5625.565159,7698.141797,-1225.752797
159.052691,4959.379811,7550.100608,-1685.410096
159.053012,4589.276840,8068.244768,-306.438199
159.053333,4145.153275,8142.265362,-153.219100
159.053654,3552.988522,8586.388927,-229.828649
159.053975,3182.885551,8734.430116,76.609550
159.054296,2590.720797,9252.574275,766.095498
159.054617,2886.803174,9030.512492,842.705048
159.054938,2590.720797,9474.636058,766.095498
159.055259,2664.741391,9474.636058,1149.143247
159.055580,3034.844362,9030.512492,1302.362347
159.055901,3552.988522,9326.594869,842.705048
159.056222,3478.967927,8956.491898,1455.581446
159.056543,3923.091493,8364.327145,1149.143247
159.056863,4663.297435,7772.162391,612.876398
159.057184,4737.318029,7328.038826,1149.143247
159.057505,5551.544565,7105.977043,383.047749
159.057826,5921.647536,7105.977043,-76.609550
159.058147,6291.750507,6735.874072,-306.438199
159.058468,6809.894666,6661.853478,-536.266849
159.058789,7105.977043,7105.977043,-1072.533697
159.059110,6587.832884,7698.141797,-1608.800546
159.059431,7105.977043,7772.162391,-1762.019645
159.059752,6735.874072,8068.244768,-1915.238745
159.060073,6365.771101,8290.306550,-1991.848295
159.060394,5773.606348,8438.347739,-1685.410096
159.060715,5033.400406,8142.265362,-1532.190996
159.061036,4811.338623,8216.285956,-1608.800546
159.061357,4145.153275,8438.347739,-383.047749
159.061678,3627.009116,8734.430116,76.609550
159.061999,3256.906145,8586.388927,229.828649
159.062320,3256.906145,8882.471304,306.438199
159.062641,2738.761985,9104.533087,689.485948
159.062962,2442.679609,9178.553681,995.924147
159.063283,2664.741391,8808.450710,842.705048
159.063604,2812.782580,8882.471304,1302.362347
159.063925,3330.926739,9030.512492,766.095498
159.064246,3552.988522,8882.471304,1149.143247
159.064567,4293.194464,8808.450710,1072.533697
159.064888,5033.400406,8438.347739,766.095498
159.065208,5847.626942,7550.100608,383.047749
159.065529,6365.771101,7328.038826,153.219100
159.065850,6809.894666,6957.935855,-153.219100
159.066171,7328.038826,6513.812290,-383.047749
159.066492,7550.100608,6735.874072,-459.657299
159.066813,7698.141797,6735.874072,-919.314598
159.067134,7476.080014,6957.935855,-1149.143247
159.067455,7994.224174,7105.977043,-1455.581446
159.067775,7624.121203,7328.038826,-1685.410096
159.068096,7402.059420,7550.100608,-1532.190996
159.068417,6513.812290,7772.162391,-1225.752797
159.068738,6291.750507,7772.162391,-1302.362347
159.069059,4811.338623,7846.182985,-1302.362347
159.069380,4589.276840,7920.203579,-1149.143247
159.069701,3997.112087,7994.224174,-459.657299
159.070021,3627.009116,8808.450710,-153.219100
159.070342,3478.967927,9030.512492,0.000000
159.070663,2664.741391,9030.512492,689.485948
159.070984,2812.782580,9252.574275,383.047749
159.071305,2442.679609,9548.656652,766.095498
159.071626,2294.638420,9622.677246,995.924147
159.071947,2368.659014,9696.697840,842.705048
159.072267,2812.782580,9548.656652,1149.143247
159.072588,3256.906145,9400.615463,1225.752797
159.072909,3478.967927,8734.430116,2068.457845
159.073230,3923.091493,8438.347739,1378.971896
159.073551,4663.297435,7846.182985,536.266849
159.073872,4885.359217,7328.038826,842.705048
159.074193,5477.523971,7031.956449,153.219100
159.074513,6291.750507,7031.956449,-306.438199
159.074834,6661.853478,6957.935855,0.000000
159.075155,6957.935855,6883.915261,-689.485948
159.075476,7031.956449,7105.977043,-1072.533697
159.075797,7328.038826,7179.997637,-1378.971896
159.076118,7476.080014,7402.059420,-1685.410096
159.076439,6809.894666,7772.162391,-1915.238745
159.076760,6883.915261,7994.224174,-1608.800546
159.077080,6365.771101,8142.265362,-1915.238745
159.077401,5551.544565,7920.203579,-1455.581446
159.077722,4811.338623,8438.347739,-766.095498
159.078043,4367.215058,8290.306550,-306.438199
159.078364,3849.070898,8290.306550,153.219100
159.078685,3627.009116,8438.347739,0.000000
159.079006,3330.926739,8512.368333,612.876398
159.079326,3108.864956,8734.430116,536.266849
159.079647,2886.803174,8734.430116,1072.533697
159.079968,2960.823768,8660.409521,995.924147
159.080289,3108.864956,8438.347739,1072.533697
159.080610,3478.967927,8364.327145,1072.533697
159.080931,4071.132681,8512.368333,1149.143247
159.081252,4737.318029,7994.224174,1072.533697
159.081572,4959.379811,7698.141797,919.314598
159.081893,5995.668130,7624.121203,383.047749
159.082214,6143.709319,7550.100608,76.609550
159.082535,6513.812290,7254.018232,-383.047749
159.082856,7031.956449,6587.832884,-612.876398
159.083177,7476.080014,6439.791695,-689.485948
159.083498,7698.141797,6513.812290,-536.266849
159.083818,7698.141797,7105.977043,-1378.971896
159.084139,7105.977043,7550.100608,-1838.629195
159.084460,7328.038826,7402.059420,-1685.410096
159.084781,7179.997637,7920.203579,-1608.800546
159.085102,6587.832884,8142.265362,-1378.971896
159.085423,6143.709319,7846.182985,-1455.581446
159.085744,5107.421000,7772.162391,-1532.190996
159.086065,4589.276840,7846.182985,-842.705048
159.086385,4145.153275,8068.244768,-229.828649
159.086706,3775.050304,8734.430116,0.000000
159.087027,3775.050304,8586.388927,76.609550
159.087348,3108.864956,9178.553681,0.000000
159.087669,2886.803174,9400.615463,383.047749
159.087990,2664.741391,9548.656652,842.705048
159.088311,2886.803174,9770.718434,1149.143247
159.088631,2886.803174,9400.615463,766.095498
159.088952,2960.823768,9178.553681,1072.533697
159.089273,3256.906145,9104.533087,995.924147
159.089594,3701.029710,9178.553681,1378.971896
159.089915,4367.215058,8956.491898,995.924147
159.090236,4737.318029,7846.182985,383.047749
159.090557,5403.503377,7328.038826,229.828649
159.090877,5551.544565,7105.977043,0.000000
159.091198,6069.688724,7031.956449,0.000000
159.091519,6587.832884,6809.894666,-766.095498
159.091840,7031.956449,6883.915261,-689.485948
159.092161,7031.956449,7254.018232,-1225.752797
159.092482,7105.977043,7624.121203,-1685.410096
159.092803,7105.977043,7994.224174,-2068.457845
159.093123,6365.771101,8660.409521,-1378.971896
159.093444,6143.709319,8142.265362,-2068.457845
159.093765,5773.606348,7994.224174,-1532.190996
159.094086,5033.400406,8216.285956,-1225.752797
159.094407,4441.235652,8216.285956,-689.485948
159.094728,3923.091493,8438.347739,-383.047749
159.095049,3478.967927,8660.409521,76.609550
159.095370,3256.906145,8586.388927,76.609550
159.095690,2738.761985,8586.388927,383.047749
159.096011,2812.782580,8808.450710,919.314598
159.096332,2812.782580,8216.285956,536.266849
159.096653,2738.761985,9030.512492,689.485948
159.096974,2738.761985,8660.409521,919.314598
159.097295,3404.947333,8438.347739,1149.143247
159.097616,4145.153275,8660.409521,1225.752797
159.097936,4737.318029,8290.306550,1378.971896
159.098257,5255.462188,7920.203579,919.314598
159.098578,6069.688724,7328.038826,383.047749
159.098899,6661.853478,7105.977043,229.828649
159.099220,7105.977043,6883.915261,0.000000
159.099541,7254.018232,6365.771101,-153.219100
159.099862,7846.182985,5995.668130,-459.657299
159.100182,7994.224174,6365.771101,-1072.533697
159.100503,7920.203579,6809.894666,-1302.362347
159.100824,7698.141797,7105.977043,-1072.533697
159.101145,7698.141797,7476.080014,-1608.800546
159.101466,7328.038826,7624.121203,-1608.800546
159.101787,6809.894666,7624.121203,-1378.971896
159.102108,6217.729913,7624.121203,-1225.752797
159.102429,5255.462188,7550.100608,-1149.143247
159.102749,4737.318029,7624.121203,-536.266849
159.103070,4071.132681,8142.265362,0.000000
159.103391,3849.070898,8512.368333,-383.047749
159.103712,3478.967927,8734.430116,-306.438199
159.104033,3256.906145,9178.553681,-229.828649
159.104354,2590.720797,9474.636058,306.438199
159.104675,2738.761985,9548.656652,689.485948
159.104995,2516.700203,9918.759623,1072.533697
159.105316,2590.720797,9844.739029,842.705048
159.105637,2664.741391,9770.718434,1685.410096
159.105958,2516.700203,9844.739029,995.924147
159.106279,3404.947333,9104.533087,1378.971896
159.106600,3552.988522,9178.553681,919.314598
159.106921,3997.112087,8290.306550,612.876398
159.107241,4737.318029,7624.121203,306.438199
159.107562,5329.482782,7254.018232,76.609550
159.107883,5921.647536,7031.956449,0.000000
159.108204,6439.791695,7105.977043,-536.266849
159.108525,6735.874072,7179.997637,-612.876398
159.108846,7105.977043,7179.997637,-689.485948
159.109167,7254.018232,7550.100608,-1149.143247
159.109487,7179.997637,7846.182985,-1685.410096
159.109808,6957.935855,8142.265362,-1991.848295
159.110129,6365.771101,7994.224174,-1915.238745
159.110450,6069.688724,8068.244768,-2145.067394
159.110771,5625.565159,7994.224174,-1532.190996
159.111092,4811.338623,8142.265362,-1149.143247
159.111413,4515.256246,8216.285956,-383.047749
159.111734,3701.029710,8882.471304,0.000000
159.112054,3256.906145,9030.512492,306.438199
159.112375,2738.761985,8882.471304,229.828649
159.112696,2812.782580,8586.388927,766.095498
159.113017,2368.659014,9178.553681,919.314598
159.113338,2294.638420,9030.512492,842.705048
159.113659,2368.659014,9104.533087,919.314598
159.113980,2738.761985,8882.471304,1072.533697
159.114300,3108.864956,8882.471304,1302.362347
159.114621,4071.132681,8364.327145,1455.581446
159.114942,4885.359217,8216.285956,1608.800546
159.115263,4885.359217,8364.327145,1072.533697
159.115584,5625.565159,7476.080014,76.609550
159.115905,6291.750507,7105.977043,0.000000
159.116226,7031.956449,5995.668130,-383.047749
159.116546,7328.038826,5995.668130,-383.047749
159.116867,7772.162391,6439.791695,-383.047749
159.117188,7698.141797,6735.874072,-1149.143247
159.117509,7920.203579,6809.894666,-1608.800546
159.117830,8290.306550,7031.956449,-1762.019645
159.118151,7994.224174,7105.977043,-1608.800546
159.118472,7031.956449,7476.080014,-1685.410096
159.118792,6957.935855,7179.997637,-1608.800546
159.119113,5995.668130,7402.059420,-1532.190996
159.119434,5625.565159,7328.038826,-1225.752797
159.119755,5181.441594,7698.141797,-766.095498
159.120076,4663.297435,7846.182985,-689.485948
159.120397,3923.091493,8364.327145,-306.438199
159.120718,3404.947333,8660.409521,0.000000
159.121039,3182.885551,8734.430116,229.828649
159.121359,3182.885551,9252.574275,766.095498
159.121680,2590.720797,9696.697840,612.876398
159.122001,3034.844362,9178.553681,842.705048
159.122322,2812.782580,9400.615463,995.924147
159.122643,3108.864956,9400.615463,1225.752797
159.122964,3552.988522,8956.491898,1608.800546
159.123285,4145.153275,8586.388927,1072.533697
