#time,accel_x,accel_y,accel_z
121.674616,4959.379811,8068.244768,-229.828649
121.674936,4959.379811,7920.203579,0.000000
121.675257,5255.462188,7994.224174,-229.828649
121.675577,4885.359217,7624.121203,0.000000
121.675898,5033.400406,7772.162391,-459.657299
121.676219,4737.318029,8142.265362,-383.047749
121.676539,4811.338623,7994.224174,0.000000
121.676860,4959.379811,8142.265362,0.000000
121.677180,5033.400406,7994.224174,-306.438199
121.677501,4959.379811,8068.244768,76.609550
121.677822,5033.400406,8068.244768,229.828649
121.678142,5033.400406,8068.244768,-306.438199
121.678463,5181.441594,7772.162391,0.000000
121.678783,5033.400406,7994.224174,0.000000
121.679104,5255.462188,8068.244768,-459.657299
121.679425,4811.338623,8216.285956,0.000000
121.679745,4811.338623,8068.244768,0.000000
121.680066,4959.379811,8142.265362,-76.609550
121.680387,4885.359217,8216.285956,0.000000
121.680707,4811.338623,8290.306550,-306.438199
121.681028,4959.379811,8216.285956,-229.828649
121.681348,5033.400406,8216.285956,0.000000
121.681669,4885.359217,8216.285956,-153.219100
121.681990,4885.359217,8290.306550,-153.219100
121.682310,5181.441594,8290.306550,-229.828649
121.682631,5033.400406,8364.327145,-766.095498
121.682951,4885.359217,7994.224174,-306.438199
121.683272,4737.318029,8438.347739,-229.828649
121.683593,4811.338623,7772.162391,76.609550
121.683913,4885.359217,8364.327145,0.000000
121.684234,5033.400406,7994.224174,-229.828649
121.684554,4811.338623,8142.265362,-459.657299
121.684875,4663.297435,7624.121203,-383.047749
121.685196,4219.173869,7550.100608,-306.438199
121.685516,4071.132681,8142.265362,-536.266849
121.685837,4367.215058,9178.553681,-536.266849
121.686157,4515.256246,9844.739029,-1149.143247
121.686478,4737.318029,9992.780217,-1225.752797
121.686799,4589.276840,9622.677246,-689.485948
121.687119,3552.988522,9104.533087,0.000000
121.687440,2960.823768,8512.368333,842.705048
121.687760,2886.803174,8956.491898,842.705048
121.688081,2664.741391,9178.553681,229.828649
121.688402,2516.700203,9104.533087,-459.657299
121.688722,2886.803174,8512.368333,-612.876398
121.689043,3478.967927,8956.491898,0.000000
121.689364,3108.864956,9474.636058,229.828649
121.689684,2368.659014,9252.574275,536.266849
121.690005,2294.638420,8586.388927,306.438199
121.690325,2294.638420,9104.533087,-383.047749
121.690646,2072.576638,10066.800811,-1149.143247
121.690967,2146.597232,11399.171507,-1685.410096
121.691287,1850.514855,11917.315666,-1225.752797
121.691608,1480.411884,11769.274478,-919.314598
121.691928,592.164754,10658.965565,-1225.752797
121.692249,-148.041188,11177.109724,-1608.800546
121.692570,-1406.391290,11917.315666,-1072.533697
121.692890,-1628.453072,12435.459826,0.000000
121.693211,-1480.411884,11991.336260,919.314598
121.693531,-1554.432478,11769.274478,995.924147
121.693852,-1480.411884,11695.253884,1608.800546
121.694173,-2294.638420,12583.501014,1455.581446
121.694493,-2738.761985,12139.377449,995.924147
121.694814,-2220.617826,10584.944971,-536.266849
121.695134,-1406.391290,10066.800811,-153.219100
121.695455,-666.185348,9918.759623,919.314598
121.695776,-740.205942,10510.924376,1149.143247
121.696096,-296.082377,11029.068536,536.266849
121.696417,518.144159,11103.089130,-995.924147
121.696737,1184.329507,11177.109724,-1532.190996
121.697058,2368.659014,9918.759623,-995.924147
121.697379,2738.761985,10436.903782,76.609550
121.697699,3182.885551,10807.006753,153.219100
121.698020,2442.679609,10066.800811,-1378.971896
121.698341,2146.597232,9400.615463,-2451.505594
121.698661,2072.576638,9326.594869,-2145.067394
121.698982,2146.597232,10510.924376,-1072.533697
121.699302,2072.576638,10436.903782,-459.657299
121.699623,1850.514855,10584.944971,-919.314598
121.699944,1258.350101,11251.130318,-459.657299
121.700264,518.144159,11251.130318,459.657299
121.700585,-370.102971,10584.944971,612.876398
121.700905,-592.164754,9992.780217,612.876398
121.701226,-296.082377,9918.759623,459.657299
121.701547,0.000000,10510.924376,842.705048
121.701867,-518.144159,11103.089130,1915.238745
121.702188,0.000000,11325.150913,1149.143247
121.702508,296.082377,11251.130318,1149.143247
121.702829,888.247130,11399.171507,842.705048
121.703150,592.164754,11399.171507,153.219100
121.703470,1036.288319,10881.027347,-306.438199
121.703791,1406.391290,10362.883188,-306.438199
121.704111,1850.514855,9622.677246,153.219100
121.704432,1258.350101,8660.409521,536.266849
121.704753,1554.432478,7994.224174,0.000000
121.705073,2294.638420,9178.553681,-383.047749
121.705394,2664.741391,10362.883188,-229.828649
121.705714,2516.700203,10362.883188,-383.047749
121.706035,3182.885551,10288.862594,-995.924147
121.706356,3404.947333,10214.842000,-1225.752797
121.706676,2886.803174,9918.759623,-766.095498
121.706997,2368.659014,9844.739029,-1302.362347
121.707318,2590.720797,10288.862594,-1149.143247
121.707638,1998.556043,10807.006753,-766.095498
121.707959,1406.391290,11177.109724,-229.828649
121.708279,1184.329507,10732.986159,-536.266849
121.708600,370.102971,11029.068536,-1302.362347
121.708921,-962.267725,9992.780217,-919.314598
121.709241,-1110.308913,8956.491898,-689.485948
121.709562,-1332.370696,8216.285956,0.000000
121.709882,-666.185348,9326.594869,1072.533697
121.710203,0.000000,11695.253884,1838.629195
121.710524,0.000000,13619.789333,1149.143247
121.710844,0.000000,14285.974681,383.047749
121.711165,1258.350101,13841.851115,0.000000
121.711485,1702.473667,11769.274478,-306.438199
121.711806,666.185348,9770.718434,0.000000
121.712127,592.164754,9622.677246,229.828649
121.712447,-740.205942,9918.759623,-689.485948
121.712768,-1850.514855,9992.780217,-1762.019645
121.713088,-1110.308913,10140.821405,-1915.238745
121.713409,-370.102971,10732.986159,-1302.362347
121.713730,0.000000,11991.336260,-306.438199
121.714050,148.041188,13323.706956,0.000000
121.714371,962.267725,13397.727550,-612.876398
121.714691,1036.288319,13249.686362,-383.047749
121.715012,1258.350101,12213.398043,612.876398
121.715333,1628.453072,11325.150913,383.047749
121.715653,666.185348,9992.780217,-842.705048
121.715974,1554.432478,8290.306550,-919.314598
121.716295,2368.659014,8734.430116,-1072.533697
121.716615,1110.308913,9178.553681,919.314598
121.716936,1110.308913,9474.636058,1225.752797
121.717256,1110.308913,9104.533087,842.705048
121.717577,1258.350101,8808.450710,0.000000
121.717898,1776.494261,8660.409521,0.000000
121.718218,2664.741391,9252.574275,0.000000
121.718539,2960.823768,10732.986159,0.000000
121.718859,2368.659014,11991.336260,-536.266849
121.719180,2442.679609,11547.212695,-1225.752797
121.719501,2664.741391,11473.192101,-1225.752797
121.719821,2812.782580,10584.944971,-1072.533697
121.720142,2886.803174,8734.430116,229.828649
121.720462,3775.050304,8438.347739,919.314598
121.720783,2886.803174,8734.430116,1685.410096
121.721104,2590.720797,8438.347739,1762.019645
121.721424,2664.741391,6365.771101,1532.190996
121.721745,2664.741391,5477.523971,459.657299
121.722065,1776.494261,4959.379811,-306.438199
121.722386,4071.132681,5255.462188,-842.705048
121.722707,5699.585753,8290.306550,-919.314598
121.723027,5773.606348,11695.253884,-995.924147
121.723348,6143.709319,12065.356855,-2068.457845
121.723668,6587.832884,10955.047942,-2451.505594
121.723989,4885.359217,7328.038826,-1455.581446
121.724310,4959.379811,5921.647536,766.095498
121.724630,5403.503377,7550.100608,2068.457845
121.724951,3923.091493,9252.574275,76.609550
121.725271,3182.885551,10510.924376,-2145.067394
121.725592,3997.112087,9696.697840,-2298.286494
121.725913,4293.194464,7698.141797,-1838.629195
121.726233,3256.906145,5995.668130,383.047749
121.726554,3775.050304,6365.771101,1149.143247
121.726875,3997.112087,7624.121203,842.705048
121.727195,3330.926739,8216.285956,995.924147
121.727516,3923.091493,8734.430116,1608.800546
121.727836,5329.482782,9474.636058,1302.362347
121.728157,5107.421000,10955.047942,995.924147
121.728478,4811.338623,11769.274478,-766.095498
121.728798,4885.359217,10362.883188,-2681.334243
121.729119,5477.523971,7846.182985,-3064.381992
121.729439,6291.750507,5477.523971,-229.828649
121.729760,6069.688724,4293.194464,612.876398
121.730081,5625.565159,4737.318029,76.609550
121.730401,6587.832884,7624.121203,-229.828649
121.730722,6957.935855,9918.759623,459.657299
121.731042,7402.059420,10362.883188,919.314598
121.731363,8512.368333,9326.594869,459.657299
121.731684,7624.121203,7920.203579,-1149.143247
121.732004,6217.729913,5995.668130,-2374.896044
121.732325,4663.297435,5033.400406,-2757.943793
121.732645,3923.091493,5181.441594,-2068.457845
121.732966,3849.070898,7105.977043,76.609550
121.733287,4293.194464,9696.697840,2374.896044
121.733607,4441.235652,11695.253884,1685.410096
121.733928,4219.173869,12361.439231,383.047749
121.734248,3330.926739,10955.047942,-1072.533697
121.734569,3108.864956,8216.285956,-1532.190996
121.734890,2516.700203,6291.750507,-383.047749
121.735211,2812.782580,5255.462188,459.657299
121.735532,3849.070898,6291.750507,919.314598
121.735852,4145.153275,8808.450710,153.219100
121.736173,3923.091493,11769.274478,383.047749
121.736494,4367.215058,11843.295072,76.609550
121.736815,4959.379811,10066.800811,612.876398
121.737135,5403.503377,7105.977043,1149.143247
121.737456,5107.421000,5033.400406,1225.752797
121.737777,5625.565159,4737.318029,689.485948
121.738097,4959.379811,5477.523971,-459.657299
121.738418,4737.318029,6587.832884,-459.657299
121.738739,5995.668130,9400.615463,-459.657299
121.739060,6513.812290,9252.574275,-1149.143247
121.739380,5921.647536,8808.450710,-1378.971896
121.739701,7031.956449,8808.450710,-1149.143247
121.740022,5181.441594,7550.100608,-1378.971896
121.740343,4367.215058,6735.874072,-1532.190996
121.740663,5329.482782,6957.935855,-383.047749
121.740984,5255.462188,8660.409521,0.000000
121.741305,4367.215058,9104.533087,153.219100
121.741626,4367.215058,8660.409521,-383.047749
121.741946,3997.112087,7920.203579,-1302.362347
121.742267,4367.215058,7254.018232,-689.485948
121.742588,4885.359217,7550.100608,842.705048
121.742908,4441.235652,7698.141797,842.705048
121.743229,4367.215058,8216.285956,689.485948
121.743550,4219.173869,9030.512492,1608.800546
121.743871,3923.091493,9844.739029,1149.143247
121.744191,4071.132681,9400.615463,459.657299
121.744512,4293.194464,7920.203579,0.000000
121.744833,4293.194464,7105.977043,-1149.143247
121.745154,4441.235652,7105.977043,-1072.533697
121.745474,4367.215058,7772.162391,-536.266849
121.745795,4219.173869,8364.327145,306.438199
121.746116,5181.441594,9844.739029,919.314598
121.746437,6439.791695,10362.883188,919.314598
121.746757,5921.647536,8808.450710,-842.705048
121.747078,5773.606348,7179.997637,-1149.143247
121.747399,5921.647536,6809.894666,-1608.800546
121.747719,5699.585753,7550.100608,-1608.800546
121.748040,5625.565159,8364.327145,-1302.362347
121.748361,5477.523971,9474.636058,-919.314598
121.748682,5625.565159,9400.615463,306.438199
121.749002,4959.379811,9474.636058,919.314598
121.749323,4219.173869,8068.244768,459.657299
121.749644,3923.091493,6883.915261,-689.485948
121.749965,4737.318029,6365.771101,-919.314598
121.750285,5329.482782,5625.565159,-842.705048
121.750606,5995.668130,6957.935855,306.438199
121.750927,5773.606348,8882.471304,919.314598
121.751248,6143.709319,10510.924376,0.000000
121.751568,5773.606348,10214.842000,76.609550
121.751889,5551.544565,8216.285956,-383.047749
121.752210,5107.421000,5995.668130,-995.924147
121.752530,6143.709319,5773.606348,-383.047749
121.752851,5329.482782,7179.997637,306.438199
121.753172,3775.050304,8882.471304,-153.219100
121.753493,4737.318029,9326.594869,0.000000
121.753813,5847.626942,8808.450710,995.924147
121.754134,5329.482782,7846.182985,919.314598
121.754455,4811.338623,7105.977043,1072.533697
121.754776,4441.235652,6735.874072,0.000000
121.755096,4811.338623,5995.668130,-689.485948
121.755417,5107.421000,6291.750507,-459.657299
121.755738,6365.771101,6883.915261,229.828649
121.756059,6661.853478,8956.491898,383.047749
121.756379,6439.791695,10732.986159,153.219100
121.756700,6439.791695,9844.739029,-995.924147
121.757021,6587.832884,7550.100608,-1532.190996
121.757342,6587.832884,5403.503377,-229.828649
121.757662,5995.668130,4959.379811,383.047749
121.757983,4737.318029,6217.729913,536.266849
121.758304,5107.421000,8734.430116,-536.266849
121.758624,5403.503377,9844.739029,-612.876398
121.758945,6365.771101,9474.636058,0.000000
121.759266,6439.791695,7920.203579,1915.238745
121.759587,5329.482782,6809.894666,1455.581446
121.759907,4589.276840,6217.729913,689.485948
121.760228,3849.070898,6735.874072,-229.828649
121.760549,3923.091493,6957.935855,0.000000
121.760870,4811.338623,8068.244768,689.485948
121.761190,5551.544565,9326.594869,1378.971896
121.761511,5107.421000,9326.594869,76.609550
121.761832,4589.276840,8512.368333,-842.705048
121.762153,4293.194464,6957.935855,-919.314598
121.762473,4219.173869,6883.915261,-689.485948
121.762794,4515.256246,7105.977043,0.000000
121.763115,4959.379811,8364.327145,76.609550
121.763435,5107.421000,9992.780217,153.219100
121.763756,5477.523971,10955.047942,229.828649
121.764077,5255.462188,10584.944971,153.219100
121.764398,4145.153275,8216.285956,-383.047749
121.764718,3997.112087,5995.668130,-383.047749
121.765039,4663.297435,5107.421000,-229.828649
121.765360,4293.194464,5403.503377,0.000000
121.765681,4589.276840,7031.956449,0.000000
121.766001,5181.441594,8882.471304,-153.219100
121.766322,5403.503377,10140.821405,612.876398
121.766643,5847.626942,9030.512492,689.485948
121.766964,6513.812290,6661.853478,0.000000
121.767284,6587.832884,5477.523971,-1378.971896
121.767605,5921.647536,6809.894666,-1378.971896
121.767926,5995.668130,8290.306550,-1225.752797
121.768246,6069.688724,9252.574275,-1225.752797
121.768567,7105.977043,10436.903782,612.876398
121.768888,6883.915261,10140.821405,383.047749
121.769209,4737.318029,8290.306550,0.000000
121.769529,4441.235652,6513.812290,-919.314598
121.769850,4663.297435,5477.523971,-536.266849
121.770171,4811.338623,4811.338623,-306.438199
121.770492,5255.462188,6217.729913,459.657299
121.770812,5255.462188,8142.265362,0.000000
121.771133,4959.379811,9844.739029,0.000000
121.771454,5403.503377,11251.130318,612.876398
121.771775,5995.668130,9770.718434,306.438199
121.772095,5773.606348,7698.141797,-612.876398
121.772416,5995.668130,6513.812290,-459.657299
121.772737,5773.606348,7031.956449,-689.485948
121.773057,4737.318029,8216.285956,-383.047749
121.773378,5477.523971,9474.636058,536.266849
121.773699,6217.729913,10436.903782,306.438199
121.774020,5625.565159,9474.636058,459.657299
121.774340,4959.379811,7105.977043,0.000000
121.774661,4737.318029,5255.462188,-153.219100
121.774982,4589.276840,4811.338623,0.000000
121.775303,4885.359217,5403.503377,0.000000
121.775623,5625.565159,6957.935855,-995.924147
121.775944,6143.709319,9548.656652,-612.876398
121.776265,6513.812290,10881.027347,229.828649
121.776586,5551.544565,10066.800811,536.266849
121.776906,5625.565159,8142.265362,-536.266849
121.777227,5033.400406,6439.791695,-1302.362347
121.777548,4515.256246,5107.421000,-1225.752797
121.777868,4441.235652,5181.441594,-1149.143247
121.778189,4663.297435,7031.956449,-919.314598
121.778510,5181.441594,9548.656652,-459.657299
121.778831,5107.421000,11103.089130,-766.095498
121.779151,5329.482782,9400.615463,-76.609550
121.779472,5625.565159,7031.956449,306.438199
121.779793,5551.544565,5625.565159,536.266849
121.780114,4737.318029,4959.379811,229.828649
121.780434,4219.173869,6661.853478,0.000000
121.780755,4515.256246,8660.409521,-153.219100
121.781076,5255.462188,10066.800811,-612.876398
121.781397,6587.832884,10436.903782,0.000000
121.781717,5625.565159,9400.615463,-383.047749
121.782038,4737.318029,7550.100608,-766.095498
121.782359,4663.297435,6587.832884,-306.438199
121.782680,4663.297435,5921.647536,-153.219100
121.783000,4811.338623,6513.812290,153.219100
121.783321,5107.421000,8882.471304,229.828649
121.783642,5403.503377,11399.171507,-153.219100
121.783962,4959.379811,11917.315666,-459.657299
121.784283,5625.565159,10066.800811,76.609550
121.784604,5921.647536,7179.997637,766.095498
121.784925,4959.379811,5995.668130,1302.362347
121.785245,3627.009116,6439.791695,995.924147
121.785566,3034.844362,7476.080014,0.000000
121.785887,4071.132681,8586.388927,0.000000
121.786208,5255.462188,9918.759623,842.705048
121.786528,5477.523971,9696.697840,1149.143247
121.786849,4885.359217,8438.347739,229.828649
121.787170,4219.173869,7624.121203,-536.266849
121.787491,3997.112087,7624.121203,-689.485948
121.787811,3849.070898,6957.935855,-229.828649
121.788132,4515.256246,7402.059420,-383.047749
121.788453,5477.523971,9326.594869,229.828649
121.788773,5107.421000,10955.047942,383.047749
121.789094,4811.338623,10436.903782,-689.485948
121.789415,4589.276840,8512.368333,-1532.190996
121.789736,4737.318029,5921.647536,-995.924147
121.790056,5477.523971,4737.318029,229.828649
121.790377,5255.462188,5107.421000,612.876398
121.790698,4367.215058,6069.688724,306.438199
121.791019,4293.194464,7550.100608,0.000000
121.791339,4737.318029,8512.368333,-459.657299
121.791660,5625.565159,8364.327145,-766.095498
121.791981,6439.791695,7846.182985,-842.705048
121.792302,6217.729913,7105.977043,-1455.581446
121.792622,5403.503377,7105.977043,-1915.238745
121.792943,4663.297435,7105.977043,-766.095498
121.793264,4515.256246,8586.388927,-383.047749
121.793584,4959.379811,9400.615463,-689.485948
121.793905,5255.462188,10288.862594,-459.657299
121.794226,5625.565159,9474.636058,-1378.971896
121.794547,4737.318029,8142.265362,-995.924147
121.794867,4959.379811,6735.874072,0.000000
121.795188,4515.256246,6143.709319,306.438199
121.795509,4515.256246,6217.729913,689.485948
121.795830,4737.318029,6809.894666,766.095498
121.796150,5255.462188,8216.285956,766.095498
121.796471,5551.544565,9622.677246,0.000000
121.796792,5921.647536,10955.047942,-229.828649
121.797113,5033.400406,9548.656652,-1378.971896
121.797433,6143.709319,8068.244768,-1685.410096
121.797754,6809.894666,7624.121203,-306.438199
121.798075,4959.379811,8068.244768,-766.095498
121.798395,4663.297435,8438.347739,-1378.971896
121.798716,5107.421000,10732.986159,-842.705048
121.799037,4441.235652,10732.986159,0.000000
121.799358,4737.318029,9178.553681,306.438199
121.799678,5477.523971,7994.224174,76.609550
121.799999,3849.070898,7550.100608,-766.095498
121.800320,3034.844362,8586.388927,0.000000
121.800641,3034.844362,8438.347739,0.000000
121.800961,3775.050304,8512.368333,-229.828649
121.801282,4441.235652,8882.471304,1302.362347
121.801603,4441.235652,9474.636058,1072.533697
121.801924,3330.926739,9030.512492,-76.609550
121.802244,2368.659014,8808.450710,-766.095498
121.802565,3701.029710,8882.471304,-766.095498
121.802886,3997.112087,7994.224174,-153.219100
121.803206,4367.215058,7846.182985,0.000000
121.803527,4219.173869,9030.512492,-76.609550
121.803848,3923.091493,9918.759623,-459.657299
121.804169,3701.029710,9252.574275,-536.266849
121.804489,4589.276840,7994.224174,306.438199
121.804810,5551.544565,7031.956449,0.000000
121.805131,5033.400406,6957.935855,0.000000
121.805452,4145.153275,7105.977043,-153.219100
121.805772,4737.318029,7105.977043,-306.438199
121.806093,4811.338623,7994.224174,0.000000
121.806414,5033.400406,7550.100608,689.485948
121.806735,5477.523971,7179.997637,229.828649
121.807055,5329.482782,6735.874072,-766.095498
121.807376,5181.441594,7105.977043,-1225.752797
121.807697,6217.729913,6957.935855,-612.876398
121.808017,5625.565159,6291.750507,-842.705048
121.808338,5477.523971,6883.915261,-536.266849
121.808659,6957.935855,8956.491898,0.000000
121.808980,6291.750507,9844.739029,153.219100
121.809300,5181.441594,9696.697840,-766.095498
121.809621,5551.544565,8216.285956,-1149.143247
121.809942,5625.565159,7105.977043,-766.095498
121.810263,5181.441594,6365.771101,842.705048
121.810583,5403.503377,6735.874072,1072.533697
121.810904,4515.256246,7846.182985,383.047749
121.811225,4885.359217,8734.430116,459.657299
121.811546,4737.318029,8956.491898,612.876398
121.811866,4515.256246,7624.121203,0.000000
121.812187,5033.400406,7624.121203,306.438199
121.812508,5181.441594,7698.141797,842.705048
121.812829,4663.297435,7994.224174,-76.609550
121.813149,4219.173869,8364.327145,-919.314598
121.813470,4293.194464,9844.739029,-612.876398
121.813791,4293.194464,11177.109724,0.000000
121.814111,4071.132681,11029.068536,-306.438199
121.814432,3849.070898,10140.821405,-842.705048
121.814753,3552.988522,8734.430116,-1149.143247
121.815074,3627.009116,7550.100608,-229.828649
121.815394,4293.194464,7402.059420,383.047749
121.815715,3256.906145,7994.224174,919.314598
121.816036,3775.050304,8586.388927,306.438199
121.816357,4441.235652,9104.533087,-612.876398
121.816677,4737.318029,8364.327145,-689.485948
121.816998,5181.441594,7846.182985,-383.047749
121.817319,5181.441594,7105.977043,0.000000
121.817640,4441.235652,7179.997637,-536.266849
121.817960,4293.194464,7402.059420,-766.095498
121.818281,4663.297435,8364.327145,-689.485948
121.818602,4811.338623,9918.759623,-689.485948
121.818922,5107.421000,10362.883188,-766.095498
121.819243,5329.482782,10066.800811,-1072.533697
121.819564,5255.462188,8882.471304,-842.705048
121.819885,4367.215058,7328.038826,-459.657299
121.820205,3923.091493,6513.812290,0.000000
121.820526,3775.050304,6365.771101,0.000000
121.820847,3775.050304,7105.977043,306.438199
121.821168,4885.359217,8660.409521,76.609550
121.821488,5921.647536,9030.512492,0.000000
121.821809,5847.626942,9104.533087,0.000000
121.822130,5329.482782,8290.306550,76.609550
121.822451,5181.441594,7476.080014,0.000000
121.822771,4737.318029,7031.956449,306.438199
121.823092,5551.544565,7254.018232,0.000000
121.823413,6143.709319,8068.244768,153.219100
121.823733,6291.750507,9400.615463,-229.828649
121.824054,5551.544565,9696.697840,-1149.143247
121.824375,5625.565159,8734.430116,-1302.362347
121.824696,5773.606348,7920.203579,-229.828649
121.825016,5329.482782,7105.977043,689.485948
121.825337,4959.379811,6513.812290,919.314598
121.825658,5181.441594,6809.894666,536.266849
121.825979,5551.544565,8512.368333,919.314598
121.826299,6069.688724,9474.636058,842.705048
121.826620,5329.482782,7698.141797,-383.047749
121.826941,5847.626942,6143.709319,-612.876398
121.827262,6143.709319,6587.832884,383.047749
121.827582,4885.359217,6957.935855,153.219100
121.827903,4441.235652,7254.018232,-306.438199
121.828224,6365.771101,8068.244768,-689.485948
121.828544,5625.565159,9548.656652,-306.438199
121.828865,4663.297435,9400.615463,-612.876398
121.829186,4885.359217,8882.471304,-995.924147
121.829507,4515.256246,8142.265362,-766.095498
121.829827,4663.297435,7624.121203,153.219100
121.830148,4663.297435,6735.874072,153.219100
121.830469,3775.050304,5995.668130,-612.876398
121.830790,3997.112087,7994.224174,76.609550
121.831110,4737.318029,10140.821405,689.485948
121.831431,4145.153275,9474.636058,229.828649
121.831752,4959.379811,7772.162391,-612.876398
121.832073,5625.565159,6883.915261,-919.314598
121.832393,5107.421000,6661.853478,-612.876398
121.832714,4441.235652,7179.997637,383.047749
121.833035,4219.173869,7550.100608,-153.219100
121.833355,4737.318029,8882.471304,-459.657299
121.833676,5033.400406,10362.883188,76.609550
121.833997,4811.338623,10881.027347,-612.876398
121.834318,4145.153275,9548.656652,-1455.581446
121.834638,4811.338623,8734.430116,-153.219100
121.834959,4811.338623,7402.059420,459.657299
121.835280,3627.009116,6143.709319,0.000000
121.835601,3775.050304,6735.874072,153.219100
121.835921,4293.194464,8956.491898,1149.143247
121.836242,4515.256246,10362.883188,383.047749
121.836563,4515.256246,9548.656652,-689.485948
121.836884,5773.606348,7698.141797,-1302.362347
121.837205,7402.059420,7105.977043,0.000000
121.837525,6365.771101,6809.894666,612.876398
121.837846,5329.482782,6587.832884,0.000000
121.838167,5699.585753,6809.894666,-766.095498
121.838488,6291.750507,9548.656652,0.000000
121.838808,6217.729913,10510.924376,459.657299
121.839129,7105.977043,9104.533087,-612.876398
121.839450,6217.729913,7920.203579,-995.924147
121.839771,5699.585753,7254.018232,-689.485948
121.840091,4885.359217,6143.709319,0.000000
121.840412,4589.276840,5773.606348,459.657299
121.840733,4959.379811,6883.915261,842.705048
121.841054,5995.668130,8586.388927,1149.143247
121.841374,5773.606348,8586.388927,306.438199
121.841695,5625.565159,7994.224174,-995.924147
121.842016,5403.503377,7328.038826,-842.705048
121.842337,5773.606348,6439.791695,-459.657299
121.842657,5477.523971,5255.462188,76.609550
121.842978,5329.482782,5255.462188,229.828649
121.843299,5255.462188,7698.141797,153.219100
121.843620,5477.523971,8808.450710,0.000000
121.843941,5477.523971,9474.636058,-919.314598
121.844261,5921.647536,8882.471304,-1072.533697
121.844582,6143.709319,7624.121203,-229.828649
121.844903,5477.523971,6957.935855,0.000000
121.845224,4959.379811,6587.832884,-76.609550
121.845544,4293.194464,6365.771101,-153.219100
121.845865,4959.379811,7179.997637,612.876398
121.846186,6069.688724,8882.471304,1455.581446
121.846507,5551.544565,9178.553681,0.000000
121.846827,5477.523971,8734.430116,-612.876398
121.847148,5699.585753,7698.141797,-153.219100
121.847469,4959.379811,6735.874072,-229.828649
121.847790,5181.441594,6217.729913,306.438199
121.848110,5329.482782,7254.018232,383.047749
121.848431,4959.379811,9178.553681,0.000000
121.848752,4589.276840,10584.944971,0.000000
121.849073,4293.194464,10066.800811,-76.609550
121.849393,4441.235652,8734.430116,-612.876398
121.849714,4145.153275,8068.244768,-612.876398
121.850035,4071.132681,8586.388927,-459.657299
121.850356,3478.967927,8586.388927,-383.047749
121.850677,2960.823768,9252.574275,229.828649
121.850997,3627.009116,9992.780217,995.924147
121.851318,3404.947333,10584.944971,766.095498
121.851639,3256.906145,9548.656652,766.095498
121.851960,3627.009116,8808.450710,383.047749
121.852280,3849.070898,7624.121203,-229.828649
121.852601,4293.194464,7105.977043,0.000000
121.852922,4811.338623,6883.915261,0.000000
121.853243,5107.421000,8290.306550,383.047749
121.853563,4959.379811,9992.780217,766.095498
121.853884,5625.565159,10214.842000,229.828649
121.854205,5773.606348,7920.203579,-766.095498
121.854526,5847.626942,6513.812290,-536.266849
121.854846,6365.771101,6069.688724,-153.219100
121.855167,5625.565159,5773.606348,-1225.752797
121.855488,5847.626942,6069.688724,-1608.800546
121.855809,7031.956449,7624.121203,-689.485948
121.856129,7328.038826,8068.244768,-536.266849
121.856450,7105.977043,7624.121203,-306.438199
121.856771,7254.018232,6883.915261,-689.485948
121.857092,7476.080014,6587.832884,-766.095498
121.857412,6957.935855,5773.606348,-766.095498
121.857733,6291.750507,4959.379811,-842.705048
121.858054,7031.956449,5625.565159,-536.266849
121.858375,6513.812290,7402.059420,0.000000
121.858696,5773.606348,9104.533087,-383.047749
121.859016,5921.647536,9400.615463,-1149.143247
121.859337,6069.688724,8068.244768,-1072.533697
121.859658,5477.523971,6957.935855,153.219100
121.859979,5551.544565,6069.688724,1225.752797
121.860299,4441.235652,6513.812290,459.657299
121.860620,3701.029710,7994.224174,-536.266849
121.860941,4367.215058,9696.697840,153.219100
121.861262,5255.462188,10214.842000,0.000000
121.861582,5847.626942,9030.512492,0.000000
121.861903,5329.482782,7846.182985,0.000000
121.862224,4441.235652,7476.080014,-689.485948
121.862545,3775.050304,7550.100608,0.000000
121.862865,4515.256246,7698.141797,306.438199
121.863186,5477.523971,8512.368333,229.828649
121.863507,6143.709319,10362.883188,306.438199
121.863828,5477.523971,10881.027347,-383.047749
121.864148,4441.235652,9696.697840,-1532.190996
121.864469,4959.379811,8364.327145,-995.924147
121.864790,5107.421000,7105.977043,-919.314598
121.865111,4293.194464,5847.626942,0.000000
121.865432,3997.112087,6883.915261,383.047749
121.865752,3997.112087,9326.594869,306.438199
121.866073,3997.112087,10881.027347,229.828649
121.866394,4737.318029,10510.924376,-612.876398
121.866715,5033.400406,8438.347739,-1762.019645
121.867035,4663.297435,6735.874072,-1072.533697
121.867356,4367.215058,6365.771101,-459.657299
121.867677,3478.967927,7031.956449,-919.314598
121.867998,3923.091493,8216.285956,-689.485948
121.868318,5107.421000,10140.821405,0.000000
121.868639,5033.400406,11029.068536,229.828649
121.868960,4811.338623,10807.006753,0.000000
121.869281,4219.173869,8734.430116,-229.828649
121.869601,3404.947333,6661.853478,-995.924147
121.869922,3627.009116,5255.462188,383.047749
121.870243,3330.926739,5551.544565,1149.143247
121.870564,4145.153275,7179.997637,1072.533697
121.870884,4737.318029,9474.636058,1302.362347
121.871205,4959.379811,10584.944971,76.609550
121.871526,5107.421000,9918.759623,-383.047749
121.871847,5329.482782,7328.038826,-459.657299
121.872168,6217.729913,6217.729913,-536.266849
121.872488,6217.729913,6069.688724,0.000000
121.872809,6217.729913,7105.977043,153.219100
121.873130,5773.606348,8364.327145,-995.924147
121.873451,5551.544565,9474.636058,-919.314598
121.873771,6735.874072,9326.594869,-459.657299
121.874092,6513.812290,8364.327145,229.828649
121.874413,6513.812290,6883.915261,459.657299
121.874734,5477.523971,5477.523971,0.000000
121.875054,4737.318029,5107.421000,-229.828649
121.875375,4293.194464,5847.626942,153.219100
121.875696,4959.379811,7920.203579,612.876398
121.876017,5403.503377,9770.718434,919.314598
121.876337,6661.853478,10288.862594,229.828649
121.876658,5477.523971,8734.430116,-919.314598
121.876979,4737.318029,6365.771101,-1991.848295
121.877300,4959.379811,6217.729913,-995.924147
121.877620,4219.173869,6957.935855,0.000000
121.877941,3923.091493,7698.141797,0.000000
121.878262,5477.523971,9400.615463,-229.828649
121.878583,5329.482782,10214.842000,-612.876398
121.878903,4589.276840,10436.903782,-919.314598
121.879224,4885.359217,8882.471304,-229.828649
121.879545,4367.215058,7254.018232,-842.705048
121.879866,3701.029710,6069.688724,0.000000
121.880187,3849.070898,5773.606348,306.438199
121.880507,3552.988522,7105.977043,229.828649
121.880828,3256.906145,10066.800811,842.705048
121.881149,3775.050304,11695.253884,689.485948
121.881470,4737.318029,10436.903782,-1072.533697
121.881790,4811.338623,7920.203579,-1455.581446
121.882111,4737.318029,7105.977043,-766.095498
121.882432,4515.256246,7031.956449,-536.266849
121.882753,3478.967927,7550.100608,-995.924147
121.883073,4293.194464,8882.471304,-1072.533697
121.883394,5551.544565,10362.883188,-612.876398
121.883715,5329.482782,11473.192101,229.828649
121.884036,5107.421000,10732.986159,383.047749
121.884356,4071.132681,9030.512492,-842.705048
121.884677,3627.009116,7031.956449,-1225.752797
121.884998,3627.009116,5773.606348,-842.705048
121.885319,3775.050304,6217.729913,229.828649
121.885639,4663.297435,8290.306550,766.095498
121.885960,4515.256246,10881.027347,995.924147
121.886281,4441.235652,11917.315666,153.219100
121.886602,5107.421000,10658.965565,-689.485948
121.886923,5329.482782,7772.162391,-689.485948
121.887243,4811.338623,6069.688724,-536.266849
121.887564,5255.462188,6143.709319,153.219100
121.887885,4663.297435,6809.894666,0.000000
121.888206,5107.421000,8438.347739,0.000000
121.888526,5477.523971,9992.780217,-229.828649
121.888847,5625.565159,10658.965565,229.828649
121.889168,5329.482782,9178.553681,0.000000
121.889489,4885.359217,7254.018232,-229.828649
121.889809,4885.359217,5551.544565,-306.438199
121.890130,4811.338623,4959.379811,0.000000
121.890451,4663.297435,5773.606348,0.000000
121.890772,5329.482782,7772.162391,306.438199
121.891092,6069.688724,9622.677246,689.485948
121.891413,6365.771101,9326.594869,76.609550
121.891734,6661.853478,7476.080014,-842.705048
121.892055,6513.812290,6069.688724,-995.924147
121.892375,6143.709319,5847.626942,-383.047749
121.892696,5329.482782,6069.688724,-306.438199
121.893017,5699.585753,7328.038826,-612.876398
121.893338,6291.750507,8734.430116,0.000000
121.893658,5625.565159,9548.656652,153.219100
121.893979,5921.647536,9178.553681,153.219100
121.894300,4959.379811,8290.306550,-229.828649
121.894621,4367.215058,6365.771101,-995.924147
121.894942,4737.318029,5551.544565,-383.047749
121.895262,4145.153275,6217.729913,383.047749
121.895583,4071.132681,7846.182985,1302.362347
121.895904,4811.338623,9992.780217,1378.971896
121.896225,4663.297435,10732.986159,153.219100
121.896545,4441.235652,9918.759623,-612.876398
121.896866,4663.297435,8586.388927,-306.438199
121.897187,4071.132681,6957.935855,153.219100
121.897508,3552.988522,7031.956449,-536.266849
121.897828,3627.009116,8068.244768,229.828649
121.898149,3849.070898,9474.636058,76.609550
121.898470,4071.132681,10510.924376,229.828649
121.898791,4367.215058,10584.944971,306.438199
121.899111,4737.318029,9992.780217,-459.657299
121.899432,3923.091493,8586.388927,-306.438199
121.899753,3775.050304,7105.977043,-459.657299
121.900074,3552.988522,6809.894666,-842.705048
121.900394,3552.988522,7031.956449,612.876398
121.900715,4145.153275,8290.306550,1149.143247
121.901036,5033.400406,10584.944971,1225.752797
121.901357,4885.359217,10658.965565,-153.219100
121.901678,5181.441594,9326.594869,-1915.238745
121.901998,5255.462188,7254.018232,-2221.676944
121.902319,5403.503377,5995.668130,-1532.190996
121.902640,5329.482782,6513.812290,-153.219100
121.902961,4811.338623,7698.141797,0.000000
121.903281,5181.441594,9474.636058,-153.219100
121.903602,5551.544565,10584.944971,-229.828649
121.903923,5551.544565,9548.656652,0.000000
121.904244,5255.462188,8364.327145,0.000000
121.904564,5033.400406,6809.894666,-76.609550
121.904885,4589.276840,6365.771101,-383.047749
121.905206,4663.297435,6069.688724,-689.485948
121.905527,4737.318029,6809.894666,229.828649
121.905847,5329.482782,8808.450710,919.314598
121.906168,5329.482782,9918.759623,995.924147
121.906489,5551.544565,9770.718434,-459.657299
121.906810,5403.503377,8068.244768,-995.924147
121.907130,6143.709319,6513.812290,-1302.362347
121.907451,5995.668130,5847.626942,-383.047749
121.907772,5255.462188,6143.709319,-536.266849
121.908093,5329.482782,7920.203579,-383.047749
121.908414,6143.709319,10288.862594,153.219100
121.908734,6439.791695,10658.965565,536.266849
121.909055,6809.894666,9400.615463,229.828649
121.909376,5551.544565,7254.018232,-536.266849
121.909697,5107.421000,5551.544565,-1149.143247
121.910017,4885.359217,4959.379811,0.000000
121.910338,5181.441594,5921.647536,612.876398
121.910659,5033.400406,7402.059420,612.876398
121.910980,5847.626942,9400.615463,842.705048
121.911300,5847.626942,10214.842000,153.219100
121.911621,5403.503377,9252.574275,-229.828649
121.911942,5625.565159,7105.977043,-612.876398
121.912263,5329.482782,6365.771101,-459.657299
121.912583,4663.297435,6513.812290,-306.438199
121.912904,3923.091493,7846.182985,-229.828649
121.913225,4145.153275,9844.739029,76.609550
121.913546,4219.173869,10732.986159,612.876398
121.913866,4737.318029,9992.780217,306.438199
121.914187,4737.318029,8586.388927,76.609550
121.914508,4367.215058,6957.935855,-612.876398
121.914829,3775.050304,6365.771101,-536.266849
121.915149,3627.009116,6143.709319,0.000000
121.915470,4145.153275,7031.956449,229.828649
121.915791,4737.318029,8512.368333,1225.752797
121.916112,4885.359217,9696.697840,1225.752797
121.916433,5181.441594,9474.636058,0.000000
121.916753,5107.421000,8290.306550,-1072.533697
121.917074,4737.318029,7179.997637,-1608.800546
121.917395,5033.400406,6439.791695,-1608.800546
121.917716,5181.441594,7105.977043,-1608.800546
121.918036,5033.400406,8808.450710,-766.095498
121.918357,5255.462188,10288.862594,0.000000
121.918678,4663.297435,10584.944971,229.828649
121.918999,4737.318029,9548.656652,383.047749
121.919319,4737.318029,7994.224174,689.485948
121.919640,4811.338623,6587.832884,-536.266849
121.919961,4515.256246,6291.750507,-689.485948
121.920282,4441.235652,6439.791695,-306.438199
121.920602,4737.318029,7846.182985,536.266849
121.920923,5181.441594,9696.697840,1455.581446
121.921244,5551.544565,9844.739029,1072.533697
121.921565,6217.729913,9474.636058,229.828649
121.921885,6143.709319,7772.162391,-689.485948
121.922206,5551.544565,6513.812290,-1072.533697
121.922527,5477.523971,6143.709319,-536.266849
121.922848,5921.647536,6957.935855,153.219100
121.923169,5699.585753,8586.388927,0.000000
121.923489,5625.565159,9696.697840,306.438199
121.923810,6587.832884,9992.780217,-383.047749
121.924131,6143.709319,8882.471304,-536.266849
121.924452,5625.565159,7031.956449,-766.095498
121.924772,6143.709319,5921.647536,-612.876398
121.925093,5847.626942,5699.585753,153.219100
121.925414,5551.544565,6143.709319,383.047749
121.925735,6143.709319,8438.347739,919.314598
121.926055,5329.482782,9400.615463,153.219100
121.926376,4737.318029,8956.491898,-306.438199
121.926697,5921.647536,8142.265362,-306.438199
121.927018,5921.647536,6291.750507,76.609550
121.927338,5033.400406,5403.503377,-229.828649
121.927659,4959.379811,5477.523971,-383.047749
121.927980,4589.276840,6661.853478,-766.095498
121.928301,4515.256246,9252.574275,536.266849
121.928621,5625.565159,10510.924376,919.314598
121.928942,5625.565159,9844.739029,-766.095498
121.929263,5255.462188,7846.182985,-689.485948
121.929584,4737.318029,6735.874072,-536.266849
121.929904,4589.276840,6143.709319,0.000000
121.930225,4293.194464,5477.523971,0.000000
121.930546,4885.359217,7105.977043,-306.438199
121.930867,5551.544565,9474.636058,-459.657299
121.931188,5403.503377,10584.944971,-383.047749
121.931508,5921.647536,9696.697840,-612.876398
121.931829,5773.606348,8438.347739,-842.705048
121.932150,5255.462188,6735.874072,-76.609550
121.932471,4293.194464,5995.668130,-229.828649
121.932791,4219.173869,6587.832884,-153.219100
121.933112,4367.215058,8660.409521,-306.438199
121.933433,4219.173869,10955.047942,536.266849
121.933754,4811.338623,11399.171507,0.000000
121.934074,4737.318029,10066.800811,-536.266849
121.934395,4441.235652,8660.409521,-306.438199
121.934716,4293.194464,6957.935855,0.000000
121.935036,3330.926739,6217.729913,0.000000
121.935357,3404.947333,7031.956449,229.828649
121.935678,4663.297435,8882.471304,306.438199
121.935999,5551.544565,10436.903782,459.657299
121.936319,5847.626942,10362.883188,76.609550
121.936640,5921.647536,8882.471304,-383.047749
121.936961,5033.400406,7105.977043,-766.095498
121.937281,4811.338623,6217.729913,0.000000
121.937602,5181.441594,6291.750507,306.438199
121.937923,5403.503377,7105.977043,0.000000
121.938243,5995.668130,8808.450710,-76.609550
121.938564,5773.606348,10362.883188,-153.219100
121.938885,5181.441594,10288.862594,-459.657299
121.939206,5477.523971,8512.368333,-229.828649
121.939526,5329.482782,6439.791695,-612.876398
121.939847,5181.441594,5329.482782,0.000000
121.940168,5255.462188,5773.606348,536.266849
121.940488,4959.379811,6587.832884,536.266849
121.940809,5477.523971,8068.244768,383.047749
121.941130,5773.606348,8882.471304,0.000000
121.941450,6365.771101,8660.409521,0.000000
121.941771,6069.688724,7105.977043,-229.828649
121.942092,5847.626942,5847.626942,-153.219100
121.942412,5699.585753,5181.441594,-689.485948
121.942733,5255.462188,5255.462188,-919.314598
121.943054,5995.668130,7105.977043,-306.438199
121.943375,6513.812290,9252.574275,0.000000
121.943695,5921.647536,10288.862594,-689.485948
121.944016,6513.812290,9770.718434,-842.705048
121.944337,5551.544565,8068.244768,-1532.190996
121.944657,4589.276840,6513.812290,-919.314598
121.944978,4737.318029,5847.626942,612.876398
121.945299,4293.194464,6735.874072,1072.533697
121.945619,3997.112087,8438.347739,536.266849
121.945940,4219.173869,10288.862594,689.485948
121.946261,4441.235652,10584.944971,153.219100
121.946582,4737.318029,9326.594869,-459.657299
121.946902,4959.379811,7402.059420,0.000000
121.947223,4441.235652,6143.709319,-612.876398
121.947544,4219.173869,6143.709319,0.000000
121.947864,4441.235652,7698.141797,229.828649
121.948185,4663.297435,9844.739029,0.000000
121.948506,4663.297435,10881.027347,-612.876398
121.948826,5329.482782,11103.089130,-612.876398
121.949147,5625.565159,10214.842000,-612.876398
121.949468,4737.318029,7920.203579,-612.876398
121.949789,4441.235652,6735.874072,-153.219100
121.950109,3997.112087,6587.832884,766.095498
121.950430,3552.988522,7179.997637,459.657299
121.950751,4737.318029,8808.450710,1302.362347
121.951071,5329.482782,9622.677246,459.657299
121.951392,5107.421000,9178.553681,0.000000
121.951713,5181.441594,8142.265362,-229.828649
121.952033,5255.462188,6513.812290,-1072.533697
121.952354,3849.070898,6069.688724,-1149.143247
121.952675,4885.359217,6069.688724,-612.876398
121.952996,4959.379811,7179.997637,-459.657299
121.953316,4663.297435,9474.636058,76.609550
121.953637,5477.523971,10658.965565,-459.657299
121.953958,5995.668130,10436.903782,-919.314598
121.954278,4959.379811,8882.471304,-1608.800546
121.954599,5107.421000,7179.997637,-536.266849
121.954920,4737.318029,6513.812290,0.000000
121.955240,3404.947333,6143.709319,-612.876398
121.955561,4145.153275,7328.038826,153.219100
121.955882,5329.482782,9548.656652,1455.581446
121.956203,5181.441594,10066.800811,1149.143247
121.956523,5033.400406,8956.491898,153.219100
121.956844,5403.503377,7550.100608,-536.266849
121.957165,4959.379811,6587.832884,-842.705048
121.957485,4811.338623,5773.606348,153.219100
121.957806,5329.482782,6069.688724,153.219100
121.958127,5699.585753,8512.368333,-536.266849
121.958447,5773.606348,10436.903782,536.266849
121.958768,5625.565159,10584.944971,0.000000
121.959089,5847.626942,9178.553681,-995.924147
121.959410,5551.544565,7402.059420,-1072.533697
121.959730,5625.565159,6809.894666,-995.924147
121.960051,5403.503377,6217.729913,-536.266849
121.960372,4959.379811,6883.915261,229.828649
121.960692,5403.503377,8512.368333,995.924147
121.961013,5699.585753,10066.800811,919.314598
121.961334,5329.482782,9844.739029,459.657299
121.961654,5255.462188,8216.285956,-766.095498
121.961975,5551.544565,6735.874072,-459.657299
121.962296,4959.379811,6069.688724,153.219100
121.962617,4737.318029,6365.771101,0.000000
121.962937,3923.091493,7254.018232,-459.657299
121.963258,4367.215058,9030.512492,0.000000
121.963579,4663.297435,10288.862594,383.047749
121.963899,4737.318029,9844.739029,0.000000
121.964220,4293.194464,8660.409521,-153.219100
121.964541,3997.112087,7105.977043,-229.828649
121.964861,3627.009116,6513.812290,-536.266849
121.965182,3701.029710,6809.894666,76.609550
121.965503,4219.173869,7698.141797,459.657299
121.965823,4145.153275,9326.594869,0.000000
121.966144,4293.194464,10140.821405,0.000000
121.966465,4811.338623,10214.842000,-306.438199
121.966786,5551.544565,8364.327145,-612.876398
121.967106,5181.441594,6365.771101,-459.657299
121.967427,4737.318029,5847.626942,-995.924147
121.967748,4071.132681,6513.812290,-612.876398
121.968068,4145.153275,8216.285956,612.876398
121.968389,4959.379811,9696.697840,306.438199
121.968710,5625.565159,9844.739029,-229.828649
121.969030,6291.750507,9844.739029,-919.314598
121.969351,4885.359217,8660.409521,-919.314598
121.969672,3923.091493,7254.018232,-842.705048
121.969993,4145.153275,6957.935855,-536.266849
121.970313,4515.256246,7624.121203,229.828649
121.970634,4589.276840,9030.512492,612.876398
121.970955,4811.338623,10658.965565,842.705048
121.971275,4737.318029,11103.089130,0.000000
121.971596,4737.318029,9992.780217,-306.438199
121.971917,4589.276840,7550.100608,0.000000
121.972237,4959.379811,6143.709319,-76.609550
121.972558,4737.318029,6143.709319,229.828649
121.972879,5329.482782,7105.977043,459.657299
121.973200,4885.359217,9252.574275,229.828649
121.973520,5181.441594,9992.780217,76.609550
121.973841,5181.441594,9770.718434,536.266849
121.974162,6069.688724,8068.244768,229.828649
121.974482,5625.565159,7031.956449,76.609550
121.974803,4811.338623,6217.729913,-306.438199
121.975124,4515.256246,6587.832884,-842.705048
121.975444,4737.318029,7476.080014,-536.266849
121.975765,5255.462188,8734.430116,153.219100
121.976086,5995.668130,9104.533087,306.438199
121.976407,6069.688724,8586.388927,-306.438199
121.976727,5255.462188,7476.080014,-766.095498
121.977048,5107.421000,6587.832884,-766.095498
121.977369,5033.400406,5773.606348,-536.266849
121.977689,5329.482782,5921.647536,-383.047749
121.978010,5773.606348,6957.935855,153.219100
121.978331,5477.523971,8290.306550,229.828649
121.978651,5255.462188,8808.450710,76.609550
121.978972,5181.441594,8660.409521,-229.828649
121.979293,4515.256246,7920.203579,-1072.533697
121.979614,5181.441594,7105.977043,-766.095498
121.979934,5625.565159,6809.894666,-76.609550
121.980255,4959.379811,6217.729913,-536.266849
121.980576,4737.318029,7105.977043,0.000000
121.980896,4959.379811,9252.574275,842.705048
121.981217,5255.462188,10214.842000,383.047749
121.981538,4737.318029,9104.533087,-689.485948
121.981858,6143.709319,7698.141797,-1072.533697
121.982179,5255.462188,7624.121203,-1149.143247
121.982500,4293.194464,7772.162391,-995.924147
121.982821,4663.297435,8438.347739,0.000000
121.983141,4663.297435,9252.574275,0.000000
121.983462,4737.318029,9770.718434,689.485948
121.983783,5107.421000,10436.903782,842.705048
121.984103,3923.091493,9992.780217,0.000000
121.984424,3108.864956,8364.327145,-612.876398
121.984745,3478.967927,7698.141797,-153.219100
121.985065,4071.132681,7328.038826,0.000000
121.985386,4219.173869,7254.018232,536.266849
121.985707,4441.235652,9178.553681,842.705048
121.986028,4293.194464,10807.006753,612.876398
121.986348,4293.194464,11177.109724,229.828649
121.986669,4959.379811,9104.533087,0.000000
121.986990,5329.482782,7402.059420,-459.657299
121.987310,5329.482782,7031.956449,0.000000
121.987631,5181.441594,6957.935855,76.609550
121.987952,4737.318029,7624.121203,-383.047749
121.988272,5329.482782,8808.450710,0.000000
121.988593,5625.565159,10066.800811,-229.828649
121.988914,6439.791695,9104.533087,-459.657299
121.989234,6143.709319,8216.285956,-229.828649
121.989555,4737.318029,7105.977043,-306.438199
121.989876,3997.112087,5847.626942,-383.047749
121.990197,4071.132681,5699.585753,0.000000
121.990517,4071.132681,6513.812290,153.219100
121.990838,4219.173869,8734.430116,1225.752797
121.991159,4737.318029,9622.677246,229.828649
121.991479,4737.318029,9252.574275,-842.705048
121.991800,4885.359217,7772.162391,-919.314598
121.992121,4367.215058,6143.709319,-612.876398
121.992441,4811.338623,5773.606348,-153.219100
121.992762,5033.400406,6365.771101,-76.609550
121.993083,5033.400406,8290.306550,-612.876398
121.993404,5181.441594,9696.697840,-459.657299
121.993724,5847.626942,9992.780217,153.219100
121.994045,5995.668130,9474.636058,-229.828649
121.994366,5773.606348,7846.182985,0.000000
121.994686,4959.379811,6069.688724,0.000000
121.995007,4811.338623,5477.523971,-459.657299
121.995328,4589.276840,6143.709319,536.266849
121.995648,4885.359217,8216.285956,1149.143247
121.995969,6513.812290,9844.739029,1378.971896
121.996290,6957.935855,9770.718434,0.000000
121.996611,6143.709319,8512.368333,-1072.533697
121.996931,6587.832884,7105.977043,-842.705048
121.997252,5477.523971,6069.688724,-842.705048
121.997573,5107.421000,6143.709319,-842.705048
121.997893,6587.832884,7105.977043,0.000000
121.998214,6439.791695,9030.512492,383.047749
121.998535,5699.585753,10362.883188,-306.438199
121.998855,5625.565159,10362.883188,-536.266849
121.999176,4811.338623,9474.636058,-229.828649
121.999497,4663.297435,7550.100608,306.438199
121.999818,4811.338623,6513.812290,153.219100
122.000138,3923.091493,5773.606348,-536.266849
122.000459,3256.906145,7179.997637,0.000000
122.000780,3701.029710,9696.697840,1149.143247
122.001100,4219.173869,11325.150913,612.876398
122.001421,4737.318029,10955.047942,-306.438199
122.001742,5625.565159,8734.430116,-766.095498
122.002062,4737.318029,7031.956449,-1225.752797
122.002383,3552.988522,6069.688724,-306.438199
122.002704,3552.988522,7105.977043,-153.219100
122.003025,4071.132681,7846.182985,-383.047749
122.003345,4885.359217,9548.656652,-153.219100
122.003666,5773.606348,10584.944971,229.828649
122.003987,5329.482782,9918.759623,-612.876398
122.004307,4737.318029,7994.224174,-459.657299
122.004628,4811.338623,5995.668130,-536.266849
122.004949,4737.318029,4219.173869,-766.095498
122.005269,5329.482782,5107.421000,-153.219100
122.005590,5625.565159,7920.203579,153.219100
122.005911,5329.482782,10732.986159,-76.609550
122.006232,5477.523971,11695.253884,-842.705048
122.006552,5995.668130,9918.759623,-842.705048
122.006873,6217.729913,7254.018232,-459.657299
122.007194,5995.668130,5403.503377,-383.047749
122.007514,4737.318029,5107.421000,76.609550
122.007835,4515.256246,6809.894666,-766.095498
122.008156,4663.297435,9622.677246,-612.876398
122.008476,5329.482782,11325.150913,383.047749
122.008797,6217.729913,11103.089130,689.485948
122.009118,6069.688724,9770.718434,842.705048
122.009439,4811.338623,7105.977043,459.657299
122.009759,3849.070898,5403.503377,536.266849
122.010080,3701.029710,5329.482782,76.609550
122.010401,4219.173869,6661.853478,536.266849
122.010721,4811.338623,9400.615463,383.047749
122.011042,5477.523971,11251.130318,306.438199
122.011363,5625.565159,11473.192101,612.876398
122.011683,5551.544565,8734.430116,306.438199
122.012004,5107.421000,6143.709319,76.609550
122.012325,4885.359217,4885.359217,-383.047749
122.012646,4959.379811,5773.606348,-766.095498
122.012966,5255.462188,8142.265362,-919.314598
122.013287,5477.523971,10584.944971,-766.095498
122.013608,5995.668130,11029.068536,-459.657299
122.013928,6587.832884,10288.862594,76.609550
122.014249,5847.626942,8438.347739,612.876398
122.014570,4811.338623,5847.626942,306.438199
122.014890,3997.112087,3849.070898,-919.314598
122.015211,4441.235652,3627.009116,-1378.971896
122.015532,4885.359217,6513.812290,-306.438199
122.015852,4515.256246,9622.677246,536.266849
122.016173,5329.482782,10955.047942,76.609550
122.016494,5995.668130,9918.759623,0.000000
122.016815,5403.503377,7550.100608,536.266849
122.017135,4515.256246,5181.441594,0.000000
122.017456,4515.256246,4737.318029,-842.705048
122.017777,4663.297435,6291.750507,-1378.971896
122.018097,5033.400406,8512.368333,-995.924147
122.018418,6217.729913,11473.192101,-76.609550
122.018739,5921.647536,11399.171507,-153.219100
122.019059,4885.359217,9548.656652,383.047749
122.019380,4589.276840,7698.141797,689.485948
122.019701,3552.988522,5995.668130,0.000000
122.020022,3775.050304,4737.318029,-306.438199
122.020342,4737.318029,5551.544565,-536.266849
122.020663,5329.482782,8216.285956,76.609550
122.020984,5033.400406,10288.862594,689.485948
122.021304,5181.441594,10510.924376,76.609550
122.021625,5255.462188,9622.677246,-383.047749
122.021946,5033.400406,7698.141797,-306.438199
122.022266,4811.338623,6957.935855,-459.657299
122.022587,5477.523971,6587.832884,-766.095498
122.022908,5773.606348,8068.244768,-1149.143247
122.023229,5847.626942,9992.780217,-1149.143247
122.023549,5773.606348,11029.068536,-612.876398
122.023870,5773.606348,10584.944971,612.876398
122.024191,5625.565159,8808.450710,919.314598
122.024511,4885.359217,6957.935855,459.657299
122.024832,4367.215058,5329.482782,0.000000
122.025153,3701.029710,4367.215058,-612.876398
122.025473,4811.338623,6143.709319,0.000000
122.025794,5477.523971,8882.471304,1072.533697
122.026115,5255.462188,10214.842000,306.438199
122.026436,5625.565159,9548.656652,-459.657299
122.026756,5551.544565,7994.224174,-383.047749
122.027077,5033.400406,6735.874072,-536.266849
122.027398,4737.318029,5773.606348,-995.924147
122.027718,5551.544565,6143.709319,-1532.190996
122.028039,5329.482782,8290.306550,-1455.581446
122.028360,6069.688724,10066.800811,-842.705048
122.028680,5921.647536,10807.006753,-766.095498
122.029001,5255.462188,9474.636058,0.000000
122.029322,4811.338623,7328.038826,306.438199
122.029643,4885.359217,5847.626942,0.000000
122.029963,3849.070898,5033.400406,-383.047749
122.030284,3182.885551,5995.668130,-459.657299
122.030605,3701.029710,8142.265362,153.219100
122.030925,3923.091493,9992.780217,689.485948
122.031246,4441.235652,10140.821405,1149.143247
122.031567,5181.441594,8734.430116,459.657299
122.031887,5033.400406,7254.018232,-612.876398
122.032208,4219.173869,6735.874072,-459.657299
122.032529,3923.091493,6883.915261,-919.314598
122.032850,4811.338623,8808.450710,-995.924147
122.033170,5847.626942,10214.842000,-612.876398
122.033491,5773.606348,11473.192101,-76.609550
122.033812,5329.482782,11029.068536,0.000000
122.034132,5255.462188,9474.636058,76.609550
122.034453,3997.112087,7328.038826,306.438199
122.034774,3997.112087,5551.544565,-153.219100
122.035094,4441.235652,5255.462188,0.000000
122.035415,4811.338623,7328.038826,229.828649
122.035736,4663.297435,9474.636058,1072.533697
122.036057,4737.318029,10436.903782,842.705048
122.036377,5255.462188,9844.739029,766.095498
122.036698,5699.585753,7772.162391,612.876398
122.037019,5255.462188,5995.668130,229.828649
122.037340,5255.462188,5107.421000,-842.705048
122.037660,5625.565159,6365.771101,-1838.629195
122.037981,5255.462188,8512.368333,-1915.238745
122.038302,6291.750507,10362.883188,-919.314598
122.038623,7179.997637,11029.068536,459.657299
122.038944,6587.832884,9918.759623,459.657299
122.039264,5477.523971,7698.141797,229.828649
122.039585,4219.173869,5773.606348,-306.438199
122.039906,3627.009116,4737.318029,-919.314598
122.040227,4219.173869,5477.523971,-229.828649
122.040548,4737.318029,6735.874072,383.047749
122.040868,5033.400406,9178.553681,689.485948
122.041189,5329.482782,9844.739029,689.485948
122.041510,4811.338623,9696.697840,306.438199
122.041831,4589.276840,7254.018232,0.000000
122.042152,4589.276840,5995.668130,-536.266849
122.042472,4663.297435,5699.585753,-612.876398
122.042793,4959.379811,6587.832884,-536.266849
122.043114,5181.441594,9178.553681,-536.266849
122.043435,5033.400406,11325.150913,-766.095498
122.043756,5033.400406,11769.274478,-1455.581446
122.044076,4737.318029,9844.739029,-766.095498
122.044397,5995.668130,7698.141797,383.047749
122.044718,5403.503377,5329.482782,689.485948
122.045039,4663.297435,4959.379811,383.047749
122.045360,4145.153275,6069.688724,153.219100
122.045680,3775.050304,8512.368333,0.000000
122.046001,4071.132681,10584.944971,766.095498
122.046322,6735.874072,10140.821405,612.876398
122.046643,6291.750507,9326.594869,76.609550
122.046964,5181.441594,7698.141797,-383.047749
122.047284,4071.132681,6809.894666,-842.705048
122.047605,4145.153275,7254.018232,-1072.533697
122.047926,4293.194464,8882.471304,-612.876398
122.048247,5625.565159,10807.006753,0.000000
122.048568,4959.379811,11843.295072,-383.047749
122.048888,4145.153275,11251.130318,-995.924147
122.049209,3404.947333,9918.759623,612.876398
122.049530,3182.885551,7994.224174,766.095498
122.049851,2886.803174,5995.668130,76.609550
122.050172,2812.782580,5329.482782,0.000000
122.050492,3330.926739,7328.038826,0.000000
122.050813,3108.864956,9770.718434,536.266849
122.051134,3775.050304,11177.109724,306.438199
122.051455,4441.235652,10140.821405,459.657299
122.051776,5403.503377,7920.203579,0.000000
122.052096,4885.359217,6291.750507,76.609550
122.052417,4515.256246,5255.462188,-766.095498
122.052738,4219.173869,6513.812290,-1991.848295
122.053059,5551.544565,8956.491898,-1838.629195
122.053380,6291.750507,9770.718434,-1608.800546
122.053700,7179.997637,9992.780217,-459.657299
122.054021,7179.997637,8586.388927,76.609550
122.054342,5847.626942,6883.915261,-229.828649
122.054663,4515.256246,4737.318029,-459.657299
122.054984,4145.153275,4441.235652,-153.219100
122.055304,5625.565159,5329.482782,0.000000
122.055625,6735.874072,7328.038826,0.000000
122.055946,6217.729913,8956.491898,0.000000
122.056267,5699.585753,9030.512492,-459.657299
122.056588,5403.503377,9104.533087,-689.485948
122.056908,4959.379811,7476.080014,-306.438199
122.057229,4959.379811,6069.688724,-153.219100
122.057550,6217.729913,5773.606348,-306.438199
122.057871,5107.421000,7254.018232,-1225.752797
122.058192,4959.379811,9400.615463,-1149.143247
122.058512,5107.421000,10955.047942,-1149.143247
122.058833,5625.565159,11103.089130,-306.438199
122.059154,5921.647536,9918.759623,153.219100
122.059475,5403.503377,8290.306550,459.657299
122.059796,4071.132681,6217.729913,-306.438199
122.060116,3701.029710,5921.647536,76.609550
122.060437,4145.153275,7105.977043,995.924147
122.060758,4441.235652,8808.450710,1149.143247
122.061079,5773.606348,9918.759623,1455.581446
122.061400,5625.565159,10436.903782,229.828649
122.061720,5107.421000,9400.615463,0.000000
122.062041,4219.173869,7772.162391,0.000000
122.062362,4589.276840,6587.832884,-766.095498
122.062683,5625.565159,6587.832884,-919.314598
122.063004,5921.647536,7772.162391,-459.657299
122.063324,5773.606348,9474.636058,-459.657299
122.063645,5033.400406,11177.109724,-842.705048
122.063966,4737.318029,11325.150913,-1378.971896
122.064287,4589.276840,9844.739029,-1149.143247
122.064608,4515.256246,7476.080014,-229.828649
122.064928,4515.256246,6217.729913,0.000000
122.065249,3552.988522,6143.709319,0.000000
122.065570,2368.659014,7328.038826,0.000000
122.065891,2812.782580,8882.471304,0.000000
122.066212,3627.009116,9400.615463,306.438199
122.066532,4885.359217,9030.512492,612.876398
122.066853,5699.585753,7402.059420,76.609550
122.067174,5181.441594,6513.812290,-229.828649
122.067495,4441.235652,6143.709319,-766.095498
122.067816,4441.235652,6217.729913,-306.438199
122.068136,5329.482782,7179.997637,-306.438199
122.068457,6217.729913,8290.306550,-536.266849
122.068778,6957.935855,9622.677246,-689.485948
122.069099,6143.709319,9696.697840,-995.924147
122.069420,5329.482782,8438.347739,-1608.800546
122.069740,5107.421000,6661.853478,-995.924147
122.070061,5329.482782,5033.400406,0.000000
122.070382,5773.606348,5625.565159,1072.533697
122.070703,5107.421000,7328.038826,919.314598
122.071024,4811.338623,8882.471304,0.000000
122.071344,5329.482782,9178.553681,229.828649
122.071665,5921.647536,8290.306550,0.000000
122.071986,6291.750507,6661.853478,383.047749
122.072307,5773.606348,6217.729913,0.000000
122.072628,5403.503377,7031.956449,-919.314598
122.072948,4515.256246,8068.244768,-1378.971896
122.073269,4885.359217,9104.533087,-766.095498
122.073590,5773.606348,10288.862594,0.000000
122.073911,7031.956449,10362.883188,1225.752797
122.074232,6291.750507,9474.636058,766.095498
122.074552,4811.338623,8290.306550,229.828649
122.074873,3775.050304,6957.935855,-612.876398
122.075194,4219.173869,7031.956449,0.000000
122.075515,4145.153275,8142.265362,459.657299
122.075836,4441.235652,8734.430116,1072.533697
122.076156,5403.503377,10066.800811,1455.581446
122.076477,4663.297435,9992.780217,766.095498
122.076798,3849.070898,8956.491898,459.657299
122.077119,4219.173869,7920.203579,0.000000
122.077440,4219.173869,6365.771101,-536.266849
122.077760,4515.256246,6365.771101,-153.219100
122.078081,5181.441594,7920.203579,459.657299
122.078402,4959.379811,9326.594869,-153.219100
122.078723,4515.256246,10436.903782,-612.876398
122.079043,5181.441594,10288.862594,-612.876398
122.079364,4885.359217,8956.491898,-1149.143247
122.079685,4811.338623,6735.874072,-766.095498
122.080006,4885.359217,5255.462188,-689.485948
122.080327,4737.318029,5995.668130,0.000000
122.080647,4589.276840,7105.977043,76.609550
122.080968,4663.297435,9030.512492,76.609550
122.081289,4737.318029,9400.615463,-842.705048
122.081610,5255.462188,8734.430116,-536.266849
122.081931,5625.565159,8290.306550,459.657299
122.082251,4811.338623,6587.832884,153.219100
122.082572,5255.462188,5329.482782,-766.095498
122.082893,5551.544565,5847.626942,-995.924147
122.083214,5033.400406,7772.162391,-689.485948
122.083535,4885.359217,9326.594869,-459.657299
122.083855,4811.338623,10288.862594,-383.047749
122.084176,5033.400406,9770.718434,-383.047749
122.084497,5329.482782,8142.265362,0.000000
122.084818,5107.421000,6513.812290,153.219100
122.085139,5329.482782,6143.709319,0.000000
122.085459,4293.194464,6735.874072,306.438199
122.085780,4071.132681,9030.512492,153.219100
122.086101,4441.235652,10288.862594,459.657299
122.086422,5551.544565,10288.862594,1302.362347
122.086743,6143.709319,9548.656652,536.266849
122.087063,5699.585753,7328.038826,0.000000
122.087384,5403.503377,6291.750507,-766.095498
122.087705,5033.400406,5773.606348,-153.219100
122.088026,5921.647536,6661.853478,459.657299
122.088347,6439.791695,8660.409521,689.485948
122.088667,6217.729913,9770.718434,0.000000
122.088988,6439.791695,9844.739029,-842.705048
122.089309,6291.750507,9030.512492,-612.876398
122.089630,5403.503377,7994.224174,-383.047749
122.089951,5625.565159,5921.647536,-536.266849
122.090271,6291.750507,5329.482782,-76.609550
122.090592,5255.462188,7254.018232,0.000000
122.090913,4811.338623,9104.533087,612.876398
122.091234,5403.503377,9252.574275,0.000000
122.091555,5995.668130,8586.388927,-306.438199
122.091875,6069.688724,7624.121203,0.000000
122.092196,5773.606348,6143.709319,536.266849
122.092517,4737.318029,5625.565159,-612.876398
122.092838,4145.153275,6439.791695,-1378.971896
122.093159,4589.276840,7402.059420,-612.876398
122.093479,4885.359217,9178.553681,0.000000
122.093800,5847.626942,9622.677246,383.047749
122.094121,5255.462188,9474.636058,0.000000
122.094442,4293.194464,8512.368333,-689.485948
122.094763,3997.112087,7105.977043,-689.485948
122.095083,3404.947333,6291.750507,-536.266849
122.095404,4145.153275,6809.894666,-383.047749
122.095725,4367.215058,7772.162391,383.047749
122.096046,4959.379811,9622.677246,306.438199
122.096367,4737.318029,10658.965565,383.047749
122.096687,4441.235652,9400.615463,76.609550
122.097008,4663.297435,7698.141797,0.000000
122.097329,4811.338623,6439.791695,-306.438199
122.097650,5033.400406,6217.729913,-383.047749
122.097971,5181.441594,7476.080014,0.000000
122.098291,4885.359217,8956.491898,306.438199
122.098612,5255.462188,10066.800811,-306.438199
122.098933,4885.359217,10140.821405,-689.485948
122.099254,4885.359217,9400.615463,-612.876398
122.099575,4811.338623,8364.327145,-306.438199
122.099895,4441.235652,6587.832884,-306.438199
122.100216,4663.297435,6143.709319,-612.876398
122.100537,4589.276840,7254.018232,-306.438199
122.100858,4663.297435,9770.718434,229.828649
122.101179,5033.400406,10362.883188,229.828649
122.101499,5255.462188,9696.697840,0.000000
122.101820,5477.523971,8882.471304,-229.828649
122.102141,4885.359217,7698.141797,0.000000
122.102462,4071.132681,6661.853478,0.000000
122.102783,4737.318029,6883.915261,-306.438199
122.103103,5847.626942,7920.203579,76.609550
122.103424,5181.441594,8290.306550,0.000000
122.103745,5625.565159,8808.450710,229.828649
122.104066,5625.565159,9252.574275,306.438199
122.104387,5329.482782,8882.471304,-153.219100
122.104707,4811.338623,6661.853478,-766.095498
122.105028,5847.626942,5329.482782,-383.047749
122.105349,5551.544565,5551.544565,-306.438199
122.105670,5403.503377,6883.915261,0.000000
122.105991,5107.421000,8364.327145,-76.609550
122.106311,5033.400406,9696.697840,-1532.190996
122.106632,6365.771101,9696.697840,-689.485948
122.106953,6587.832884,8290.306550,0.000000
122.107274,5847.626942,6587.832884,-1225.752797
122.107595,5551.544565,5773.606348,-919.314598
122.107915,5181.441594,6365.771101,76.609550
122.108236,5181.441594,7550.100608,76.609550
122.108557,5921.647536,8290.306550,153.219100
122.108878,6143.709319,9770.718434,0.000000
122.109199,5921.647536,9918.759623,-689.485948
122.109519,5033.400406,8364.327145,0.000000
122.109840,4811.338623,6957.935855,-229.828649
122.110161,4737.318029,5551.544565,-459.657299
122.110482,4663.297435,5995.668130,229.828649
122.110803,4367.215058,7994.224174,153.219100
122.111123,4293.194464,9696.697840,153.219100
122.111444,4737.318029,11177.109724,0.000000
122.111765,5107.421000,10584.944971,-536.266849
122.112086,5033.400406,8364.327145,-383.047749
122.112407,5329.482782,7105.977043,0.000000
122.112727,4367.215058,7105.977043,229.828649
122.113048,3182.885551,7994.224174,0.000000
122.113369,3552.988522,9770.718434,0.000000
122.113690,4145.153275,10584.944971,383.047749
122.114011,4367.215058,10362.883188,536.266849
122.114331,4293.194464,9030.512492,229.828649
122.114652,3404.947333,7994.224174,-459.657299
122.114973,2590.720797,6957.935855,-612.876398
122.115294,2294.638420,6661.853478,0.000000
122.115615,3552.988522,7846.182985,459.657299
122.115935,5033.400406,9474.636058,1302.362347
122.116256,5329.482782,10288.862594,689.485948
122.116577,4959.379811,9918.759623,-306.438199
122.116898,4811.338623,8142.265362,-459.657299
122.117219,5255.462188,7624.121203,-383.047749
122.117539,5033.400406,6143.709319,-76.609550
122.117860,6291.750507,5255.462188,-229.828649
122.118181,7328.038826,7031.956449,-536.266849
122.118502,5921.647536,9474.636058,0.000000
122.118823,5699.585753,9622.677246,-383.047749
122.119143,6513.812290,8364.327145,-153.219100
122.119464,6513.812290,6217.729913,0.000000
122.119785,7105.977043,5329.482782,995.924147
122.120106,5921.647536,4589.276840,229.828649
122.120427,4515.256246,5107.421000,-1455.581446
122.120747,5033.400406,7254.018232,-536.266849
122.121068,5181.441594,9474.636058,0.000000
122.121389,6587.832884,9400.615463,0.000000
122.121710,5921.647536,8734.430116,229.828649
122.122031,5773.606348,8660.409521,-766.095498
122.122351,4441.235652,7402.059420,-459.657299
122.122672,4071.132681,6291.750507,-306.438199
122.122993,4811.338623,6883.915261,0.000000
122.123314,4811.338623,8586.388927,383.047749
122.123635,4737.318029,9622.677246,0.000000
122.123955,4959.379811,9918.759623,0.000000
122.124276,4219.173869,8660.409521,-153.219100
122.124597,3997.112087,7624.121203,-153.219100
122.124918,4367.215058,6365.771101,0.000000
122.125239,4737.318029,6513.812290,612.876398
122.125559,4663.297435,8734.430116,995.924147
122.125880,4145.153275,10066.800811,689.485948
122.126201,4663.297435,10658.965565,-306.438199
122.126522,4959.379811,10214.842000,-842.705048
122.126843,4811.338623,9178.553681,0.000000
122.127163,5107.421000,7105.977043,-383.047749
122.127484,5107.421000,5995.668130,-842.705048
122.127805,4293.194464,6883.915261,-919.314598
122.128126,4515.256246,8882.471304,-919.314598
122.128447,4441.235652,10214.842000,-612.876398
122.128767,5699.585753,10362.883188,-306.438199
122.129088,5995.668130,9178.553681,-153.219100
122.129409,5033.400406,7550.100608,0.000000
122.129730,4367.215058,6883.915261,153.219100
122.130051,3775.050304,6587.832884,-229.828649
122.130371,3997.112087,7179.997637,-536.266849
122.130692,5033.400406,9030.512492,0.000000
122.131013,5181.441594,9992.780217,0.000000
122.131334,4959.379811,10955.047942,-383.047749
122.131655,5181.441594,9844.739029,0.000000
122.131975,4219.173869,7994.224174,-842.705048
122.132296,3478.967927,6439.791695,-536.266849
122.132617,4293.194464,5551.544565,-153.219100
122.132938,4811.338623,6809.894666,383.047749
122.133259,4737.318029,8660.409521,76.609550
122.133579,5033.400406,10288.862594,0.000000
122.133900,5699.585753,10362.883188,-842.705048
122.134221,6069.688724,9178.553681,306.438199
122.134542,6291.750507,7105.977043,919.314598
122.134863,5107.421000,4811.338623,459.657299
122.135183,4811.338623,4663.297435,-229.828649
122.135504,5625.565159,6883.915261,0.000000
122.135825,5403.503377,9178.553681,0.000000
122.136146,5995.668130,9474.636058,-766.095498
122.136467,7550.100608,8956.491898,-536.266849
122.136787,6809.894666,7698.141797,-229.828649
122.137108,5033.400406,5847.626942,0.000000
122.137429,4959.379811,5033.400406,-459.657299
122.137750,5107.421000,5773.606348,-536.266849
122.138071,5181.441594,8808.450710,-536.266849
122.138392,6291.750507,10362.883188,0.000000
122.138713,6143.709319,10584.944971,-919.314598
122.139033,4959.379811,9770.718434,-306.438199
122.139354,4293.194464,7994.224174,306.438199
122.139675,3552.988522,5477.523971,306.438199
122.139996,3034.844362,4737.318029,383.047749
122.140317,3552.988522,5625.565159,229.828649
122.140638,4367.215058,8216.285956,0.000000
122.140958,3701.029710,10436.903782,0.000000
122.141279,4441.235652,11103.089130,-306.438199
122.141600,5625.565159,10288.862594,76.609550
122.141921,5107.421000,8586.388927,153.219100
122.142242,4071.132681,6735.874072,229.828649
122.142563,3997.112087,6143.709319,-612.876398
122.142884,4145.153275,7624.121203,-1149.143247
122.143204,4737.318029,10066.800811,-536.266849
122.143525,5625.565159,10807.006753,-153.219100
122.143846,5847.626942,10066.800811,0.000000
122.144167,5699.585753,8586.388927,536.266849
122.144488,4515.256246,7328.038826,842.705048
122.144809,3108.864956,5921.647536,-306.438199
122.145129,3034.844362,4737.318029,-612.876398
122.145450,4589.276840,5773.606348,0.000000
122.145771,5255.462188,8734.430116,612.876398
122.146092,5995.668130,10362.883188,229.828649
122.146413,6143.709319,11399.171507,-1149.143247
122.146734,6217.729913,10732.986159,-1762.019645
122.147055,5847.626942,8068.244768,-919.314598
122.147375,5773.606348,5773.606348,76.609550
122.147696,6291.750507,5329.482782,459.657299
122.148017,5847.626942,7920.203579,76.609550
122.148338,5033.400406,10510.924376,-459.657299
122.148659,4737.318029,11917.315666,-1072.533697
122.148980,5255.462188,10807.006753,-459.657299
122.149300,5551.544565,8364.327145,842.705048
122.149621,4293.194464,6365.771101,1838.629195
122.149942,2960.823768,4811.338623,1762.019645
122.150263,2812.782580,5773.606348,919.314598
122.150584,3108.864956,7179.997637,612.876398
122.150905,4515.256246,9474.636058,612.876398
122.151225,5773.606348,9918.759623,536.266849
122.151546,5255.462188,9622.677246,-153.219100
122.151867,4811.338623,7772.162391,-383.047749
122.152188,4811.338623,6069.688724,-766.095498
122.152509,4885.359217,5403.503377,-842.705048
122.152830,5477.523971,6587.832884,-766.095498
122.153151,5773.606348,8660.409521,-1378.971896
122.153471,6069.688724,10510.924376,-2068.457845
122.153792,6291.750507,10510.924376,-612.876398
122.154113,6143.709319,8882.471304,153.219100
122.154434,5921.647536,6291.750507,995.924147
122.154755,5329.482782,4737.318029,383.047749
122.155076,4663.297435,4145.153275,-689.485948
122.155396,5107.421000,5551.544565,-995.924147
122.155717,5033.400406,7402.059420,229.828649
122.156038,5773.606348,9474.636058,689.485948
122.156359,5847.626942,9622.677246,229.828649
122.156680,6143.709319,8882.471304,-766.095498
122.157001,4885.359217,7105.977043,-612.876398
122.157322,4219.173869,5921.647536,-919.314598
122.157642,4737.318029,6661.853478,-766.095498
122.157963,5329.482782,8290.306550,-612.876398
122.158284,5477.523971,10658.965565,-459.657299
122.158605,5921.647536,11547.212695,-229.828649
122.158926,5329.482782,10881.027347,-229.828649
122.159247,4219.173869,8882.471304,76.609550
122.159567,3923.091493,6957.935855,459.657299
122.159888,3775.050304,5403.503377,0.000000
122.160209,4145.153275,5477.523971,536.266849
122.160530,5033.400406,7698.141797,689.485948
122.160851,4885.359217,10140.821405,689.485948
122.161172,4885.359217,10881.027347,76.609550
122.161493,4959.379811,10510.924376,0.000000
122.161813,5033.400406,8734.430116,0.000000
122.162134,5107.421000,6365.771101,0.000000
122.162455,4959.379811,5921.647536,-766.095498
122.162776,5181.441594,7846.182985,-995.924147
122.163097,5255.462188,10362.883188,-1302.362347
122.163418,5551.544565,11695.253884,-1072.533697
122.163738,6661.853478,10362.883188,0.000000
122.164059,6513.812290,8216.285956,459.657299
122.164380,5107.421000,5921.647536,766.095498
122.164701,3923.091493,5551.544565,383.047749
122.165022,3182.885551,4959.379811,-383.047749
122.165343,4071.132681,5625.565159,-612.876398
122.165663,6439.791695,7550.100608,383.047749
122.165984,5403.503377,9474.636058,536.266849
122.166305,5625.565159,9770.718434,0.000000
122.166626,5181.441594,9178.553681,-229.828649
122.166947,4589.276840,7698.141797,-1072.533697
122.167268,4811.338623,5699.585753,-612.876398
122.167589,5551.544565,5921.647536,0.000000
122.167909,5033.400406,7920.203579,-766.095498
122.168230,4441.235652,10214.842000,-1225.752797
122.168551,4737.318029,11325.150913,-536.266849
122.168872,5403.503377,9992.780217,-459.657299
122.169193,5403.503377,8216.285956,459.657299
122.169514,4441.235652,6513.812290,689.485948
122.169834,3552.988522,5773.606348,76.609550
122.170155,2590.720797,6217.729913,229.828649
122.170476,3775.050304,7624.121203,536.266849
122.170797,4959.379811,9178.553681,919.314598
122.171118,5181.441594,10362.883188,459.657299
122.171439,5255.462188,10584.944971,306.438199
122.171760,4885.359217,9178.553681,-153.219100
122.172080,4515.256246,7254.018232,-383.047749
122.172401,4885.359217,6143.709319,-536.266849
122.172722,4959.379811,6809.894666,-536.266849
122.173043,5625.565159,9178.553681,-459.657299
122.173364,5625.565159,11103.089130,0.000000
122.173685,5107.421000,11029.068536,-536.266849
122.174005,4737.318029,9104.533087,-76.609550
122.174326,5181.441594,6291.750507,383.047749
122.174647,4589.276840,4589.276840,919.314598
122.174968,4219.173869,4293.194464,689.485948
122.175289,5773.606348,5625.565159,-383.047749
122.175610,6439.791695,7772.162391,-229.828649
122.175931,6069.688724,9326.594869,0.000000
122.176251,6883.915261,10066.800811,383.047749
122.176572,6809.894666,7994.224174,306.438199
122.176893,6439.791695,5329.482782,-383.047749
122.177214,6439.791695,4737.318029,-689.485948
122.177535,5921.647536,5255.462188,-2298.286494
122.177856,5625.565159,7698.141797,-2451.505594
122.178176,6365.771101,10658.965565,-919.314598
122.178497,6661.853478,11103.089130,536.266849
122.178818,6439.791695,10140.821405,919.314598
122.179139,5477.523971,7772.162391,536.266849
122.179460,2738.761985,5921.647536,-919.314598
122.179781,2072.576638,5107.421000,-536.266849
122.180101,3775.050304,5477.523971,383.047749
122.180422,4959.379811,7328.038826,842.705048
122.180743,5403.503377,9400.615463,612.876398
122.181064,4515.256246,10881.027347,-689.485948
122.181385,3552.988522,11029.068536,-612.876398
122.181706,3552.988522,9030.512492,0.000000
122.182027,4367.215058,6439.791695,919.314598
122.182347,4885.359217,5477.523971,-459.657299
122.182668,4737.318029,7328.038826,-1149.143247
122.182989,4145.153275,10881.027347,-1991.848295
122.183310,4293.194464,12583.501014,-1225.752797
122.183631,5181.441594,12065.356855,-383.047749
122.183952,6291.750507,10066.800811,76.609550
122.184272,5699.585753,7550.100608,153.219100
122.184593,4293.194464,6439.791695,0.000000
122.184914,3256.906145,5773.606348,0.000000
122.185235,3330.926739,6587.832884,0.000000
122.185556,4811.338623,7994.224174,536.266849
122.185877,6069.688724,10066.800811,1225.752797
122.186198,5847.626942,10807.006753,689.485948
122.186518,5699.585753,9252.574275,229.828649
122.186839,5033.400406,7179.997637,0.000000
122.187160,3997.112087,5329.482782,-383.047749
122.187481,4367.215058,5329.482782,-76.609550
122.187802,5403.503377,7254.018232,-306.438199
122.188123,5773.606348,10362.883188,-995.924147
122.188443,5403.503377,11251.130318,-995.924147
122.188764,5847.626942,10807.006753,-919.314598
122.189085,5329.482782,8586.388927,-612.876398
122.189406,4145.153275,5847.626942,-306.438199
122.189727,4367.215058,4589.276840,0.000000
122.190048,3775.050304,4441.235652,306.438199
122.190369,3923.091493,5847.626942,229.828649
122.190689,4811.338623,8808.450710,536.266849
122.191010,5403.503377,10584.944971,-306.438199
122.191331,5847.626942,10362.883188,-229.828649
122.191652,6143.709319,7624.121203,0.000000
122.191973,5847.626942,5181.441594,-383.047749
122.192294,4885.359217,4515.256246,0.000000
122.192614,4515.256246,5329.482782,-612.876398
122.192935,5551.544565,7920.203579,-1225.752797
122.193256,6661.853478,10362.883188,-612.876398
122.193577,7254.018232,10955.047942,153.219100
122.193898,6513.812290,10140.821405,-306.438199
122.194219,5255.462188,7254.018232,-612.876398
122.194539,4071.132681,5403.503377,0.000000
122.194860,4293.194464,5181.441594,153.219100
122.195181,4589.276840,5847.626942,-306.438199
122.195502,5403.503377,8216.285956,0.000000
122.195823,5477.523971,10955.047942,383.047749
122.196144,4737.318029,11769.274478,229.828649
122.196465,4811.338623,10807.006753,306.438199
122.196785,4737.318029,8142.265362,383.047749
122.197106,4737.318029,6217.729913,-383.047749
122.197427,4515.256246,6069.688724,0.000000
122.197748,4219.173869,7772.162391,-306.438199
122.198069,4589.276840,10066.800811,-383.047749
122.198390,4737.318029,11769.274478,0.000000
122.198710,5403.503377,11843.295072,459.657299
122.199031,4959.379811,10214.842000,766.095498
122.199352,4293.194464,7550.100608,383.047749
122.199673,3256.906145,5551.544565,-306.438199
122.199994,3552.988522,5107.421000,0.000000
122.200315,3627.009116,6809.894666,0.000000
122.200636,4737.318029,9474.636058,229.828649
122.200956,4737.318029,11695.253884,612.876398
122.201277,4737.318029,11547.212695,536.266849
122.201598,4737.318029,8882.471304,0.000000
122.201919,4219.173869,5699.585753,-919.314598
122.202240,4293.194464,4219.173869,-1302.362347
122.202561,4441.235652,5181.441594,-1378.971896
122.202881,5255.462188,7698.141797,-1149.143247
122.203202,6143.709319,10362.883188,-1455.581446
122.203523,5181.441594,11325.150913,-919.314598
122.203844,5773.606348,10214.842000,-612.876398
122.204165,5551.544565,7698.141797,-459.657299
122.204486,4441.235652,4885.359217,-459.657299
122.204807,4293.194464,4515.256246,-536.266849
122.205127,4515.256246,5181.441594,-766.095498
122.205448,4811.338623,7698.141797,-689.485948
122.205769,5625.565159,10362.883188,0.000000
122.206090,5847.626942,11473.192101,153.219100
122.206411,6217.729913,9992.780217,0.000000
122.206732,5551.544565,6809.894666,0.000000
122.207052,4663.297435,5255.462188,0.000000
122.207373,4811.338623,5033.400406,536.266849
122.207694,5181.441594,6735.874072,0.000000
122.208015,5773.606348,9178.553681,-536.266849
122.208336,5625.565159,11917.315666,-536.266849
122.208657,5329.482782,11917.315666,536.266849
122.208977,5329.482782,10066.800811,536.266849
122.209298,5329.482782,7254.018232,612.876398
122.209619,4367.215058,4959.379811,229.828649
122.209940,3552.988522,4515.256246,-229.828649
122.210261,3997.112087,5995.668130,-229.828649
122.210582,4663.297435,9400.615463,383.047749
122.210903,5773.606348,11991.336260,1685.410096
122.211223,6365.771101,11769.274478,1225.752797
122.211544,5699.585753,9104.533087,459.657299
122.211865,5403.503377,6587.832884,-536.266849
122.212186,4515.256246,4663.297435,-306.438199
122.212507,4071.132681,4737.318029,-459.657299
122.212828,4589.276840,7476.080014,-766.095498
122.213148,6143.709319,10584.944971,-306.438199
122.213469,6143.709319,11547.212695,-459.657299
122.213790,5625.565159,10510.924376,-306.438199
122.214111,5255.462188,8142.265362,-536.266849
122.214432,3404.947333,5477.523971,-689.485948
122.214753,2886.803174,4071.132681,-76.609550
122.215074,3627.009116,5181.441594,-306.438199
122.215394,4811.338623,7994.224174,-306.438199
122.215715,5033.400406,10658.965565,0.000000
122.216036,4737.318029,11843.295072,-153.219100
122.216357,4515.256246,10362.883188,-459.657299
122.216678,4811.338623,7476.080014,0.000000
122.216999,4071.132681,5255.462188,459.657299
122.217319,3775.050304,5033.400406,-459.657299
122.217640,3849.070898,6069.688724,-995.924147
122.217961,4737.318029,8512.368333,-842.705048
122.218282,5181.441594,10807.006753,-229.828649
122.218603,5995.668130,11029.068536,689.485948
122.218924,5551.544565,9696.697840,153.219100
122.219245,4441.235652,7402.059420,0.000000
122.219565,3701.029710,5255.462188,-612.876398
122.219886,4071.132681,5181.441594,-536.266849
122.220207,5255.462188,6735.874072,-459.657299
122.220528,6365.771101,10214.842000,0.000000
122.220849,5477.523971,11917.315666,0.000000
122.221170,5477.523971,11325.150913,0.000000
122.221490,5847.626942,9696.697840,-153.219100
122.221811,5551.544565,7105.977043,76.609550
122.222132,4737.318029,5107.421000,-689.485948
122.222453,5181.441594,5255.462188,-842.705048
122.222774,5699.585753,7105.977043,0.000000
122.223095,5995.668130,9770.718434,766.095498
122.223415,5699.585753,10658.965565,1072.533697
122.223736,5625.565159,10066.800811,306.438199
122.224057,5625.565159,9104.533087,76.609550
122.224378,4959.379811,6735.874072,-229.828649
122.224699,4515.256246,5107.421000,0.000000
122.225020,4589.276840,4737.318029,-459.657299
122.225341,4737.318029,6661.853478,-306.438199
122.225661,4959.379811,9622.677246,306.438199
122.225982,5403.503377,11251.130318,612.876398
122.226303,5477.523971,10658.965565,-536.266849
122.226624,5255.462188,8068.244768,-612.876398
122.226945,4441.235652,5773.606348,-306.438199
122.227266,4145.153275,4663.297435,-612.876398
122.227586,4589.276840,5403.503377,-383.047749
122.227907,4589.276840,7772.162391,-536.266849
122.228228,5551.544565,10584.944971,-306.438199
122.228549,4737.318029,10807.006753,-153.219100
122.228870,4737.318029,9992.780217,0.000000
122.229191,4959.379811,8290.306550,-306.438199
122.229512,4515.256246,5699.585753,-229.828649
122.229832,3849.070898,4811.338623,-612.876398
122.230153,3849.070898,5551.544565,-995.924147
122.230474,4663.297435,8586.388927,-459.657299
122.230795,4959.379811,11029.068536,536.266849
122.231116,5255.462188,10881.027347,919.314598
122.231437,6365.771101,9178.553681,0.000000
122.231757,5403.503377,7031.956449,-612.876398
122.232078,4737.318029,5847.626942,-612.876398
122.232399,4367.215058,5847.626942,-536.266849
122.232720,4589.276840,7105.977043,-766.095498
122.233041,5551.544565,9844.739029,0.000000
122.233362,6143.709319,11325.150913,766.095498
122.233683,5699.585753,11695.253884,306.438199
122.234003,4959.379811,9474.636058,0.000000
122.234324,3775.050304,7031.956449,-383.047749
122.234645,3034.844362,5329.482782,0.000000
122.234966,3478.967927,5329.482782,383.047749
122.235287,4589.276840,7254.018232,76.609550
122.235608,6143.709319,10436.903782,0.000000
122.235928,5921.647536,12287.418637,-459.657299
122.236249,5329.482782,11177.109724,0.000000
122.236570,6291.750507,7920.203579,0.000000
122.236891,6809.894666,5699.585753,459.657299
122.237212,5921.647536,4811.338623,842.705048
122.237533,5033.400406,5699.585753,-995.924147
122.237853,5255.462188,7994.224174,-1532.190996
122.238174,5625.565159,10732.986159,-766.095498
122.238495,6217.729913,11177.109724,612.876398
122.238816,6735.874072,9178.553681,612.876398
122.239137,5847.626942,6291.750507,0.000000
122.239457,3923.091493,4811.338623,0.000000
122.239778,2812.782580,3627.009116,-612.876398
122.240099,3552.988522,5107.421000,-306.438199
122.240419,5773.606348,8216.285956,306.438199
122.240740,6143.709319,10807.006753,766.095498
122.241061,6291.750507,11029.068536,-306.438199
122.241381,5847.626942,9474.636058,-842.705048
122.241702,4737.318029,6883.915261,-1072.533697
122.242023,4589.276840,5181.441594,-842.705048
122.242343,4515.256246,4663.297435,-1378.971896
122.242664,4737.318029,6217.729913,-1455.581446
122.242985,5773.606348,9326.594869,-842.705048
122.243305,5699.585753,11621.233289,0.000000
122.243626,5329.482782,11103.089130,612.876398
122.243947,5107.421000,8364.327145,153.219100
122.244267,5403.503377,5995.668130,459.657299
122.244588,4515.256246,4441.235652,-229.828649
122.244909,3997.112087,4441.235652,-229.828649
122.245230,4885.359217,7254.018232,-383.047749
122.245550,5477.523971,10140.821405,0.000000
122.245871,4959.379811,11695.253884,229.828649
122.246192,6365.771101,11251.130318,306.438199
122.246512,5255.462188,9326.594869,0.000000
122.246833,4145.153275,7179.997637,0.000000
122.247154,3478.967927,5625.565159,0.000000
122.247474,3923.091493,5551.544565,-766.095498
122.247795,5255.462188,7550.100608,-459.657299
122.248116,5847.626942,11029.068536,766.095498
122.248436,4515.256246,12287.418637,-153.219100
122.248757,4885.359217,11917.315666,0.000000
122.249078,4885.359217,9548.656652,536.266849
122.249398,4293.194464,6661.853478,153.219100
122.249719,3478.967927,5033.400406,306.438199
122.250040,3256.906145,5181.441594,-536.266849
122.250360,3923.091493,7698.141797,0.000000
122.250681,4145.153275,10510.924376,1072.533697
122.251002,4885.359217,11251.130318,76.609550
122.251322,5403.503377,10214.842000,-306.438199
122.251643,4959.379811,7698.141797,-306.438199
122.251964,4737.318029,6217.729913,-536.266849
122.252285,4219.173869,4663.297435,-612.876398
122.252605,4737.318029,5329.482782,-842.705048
122.252926,5699.585753,8364.327145,-919.314598
122.253247,5773.606348,10584.944971,-229.828649
122.253567,6069.688724,11621.233289,-459.657299
122.253888,5921.647536,10140.821405,0.000000
122.254209,5255.462188,6661.853478,-459.657299
122.254529,4811.338623,4589.276840,-459.657299
122.254850,3923.091493,3775.050304,0.000000
122.255171,4441.235652,4959.379811,-459.657299
122.255491,5033.400406,7624.121203,-612.876398
122.255812,5773.606348,9918.759623,-76.609550
122.256133,5995.668130,10732.986159,-76.609550
122.256453,5699.585753,8808.450710,0.000000
122.256774,5551.544565,7105.977043,76.609550
122.257095,5625.565159,5773.606348,153.219100
122.257415,4885.359217,4811.338623,-536.266849
122.257736,5403.503377,6143.709319,-1378.971896
122.258057,5625.565159,8956.491898,-1072.533697
122.258378,5625.565159,11843.295072,0.000000
122.258698,5995.668130,11621.233289,536.266849
122.259019,5921.647536,9696.697840,0.000000
122.259340,5477.523971,7105.977043,0.000000
122.259660,3849.070898,5033.400406,0.000000
122.259981,2960.823768,4663.297435,-306.438199
122.260302,4219.173869,6217.729913,76.609550
122.260622,5773.606348,9178.553681,1225.752797
122.260943,6069.688724,11695.253884,536.266849
122.261264,5625.565159,11621.233289,-459.657299
122.261584,5255.462188,10066.800811,-1072.533697
122.261905,4885.359217,7846.182985,-306.438199
122.262226,4589.276840,5403.503377,153.219100
122.262546,5403.503377,4885.359217,76.609550
122.262867,6143.709319,7328.038826,-995.924147
122.263188,4959.379811,10510.924376,-689.485948
122.263508,4737.318029,11473.192101,-612.876398
122.263829,5773.606348,10510.924376,459.657299
122.264150,6217.729913,8808.450710,76.609550
122.264470,5107.421000,6143.709319,536.266849
122.264791,4145.153275,4219.173869,0.000000
122.265112,4515.256246,4219.173869,-383.047749
122.265433,3701.029710,6587.832884,-536.266849
122.265753,5551.544565,9178.553681,0.000000
122.266074,6365.771101,10955.047942,-383.047749
122.266395,5625.565159,10807.006753,-995.924147
122.266715,5477.523971,9622.677246,-689.485948
122.267036,4441.235652,7179.997637,-229.828649
122.267357,3330.926739,5477.523971,-766.095498
122.267677,3775.050304,5847.626942,-306.438199
122.267998,4737.318029,7994.224174,-306.438199
122.268319,4885.359217,10362.883188,-612.876398
122.268639,3997.112087,10881.027347,-383.047749
122.268960,4737.318029,9696.697840,0.000000
122.269281,5033.400406,8660.409521,229.828649
122.269601,3552.988522,6587.832884,612.876398
122.269922,3108.864956,4959.379811,-229.828649
122.270243,4219.173869,5551.544565,-229.828649
122.270563,4663.297435,7846.182985,153.219100
122.270884,4367.215058,10362.883188,689.485948
122.271205,5403.503377,10955.047942,-459.657299
122.271526,6069.688724,10584.944971,-1225.752797
122.271846,6291.750507,8438.347739,-229.828649
122.272167,5773.606348,6439.791695,0.000000
122.272488,5255.462188,4885.359217,-536.266849
122.272808,5477.523971,6809.894666,-1378.971896
122.273129,5403.503377,9178.553681,-1072.533697
122.273450,5773.606348,10140.821405,0.000000
122.273770,7328.038826,10066.800811,689.485948
122.274091,6735.874072,9252.574275,612.876398
122.274412,4737.318029,7179.997637,689.485948
122.274732,3849.070898,5625.565159,0.000000
122.275053,3775.050304,4959.379811,76.609550
122.275374,4811.338623,5551.544565,842.705048
122.275694,6661.853478,8068.244768,995.924147
122.276015,5625.565159,9918.759623,306.438199
122.276336,4737.318029,10584.944971,-689.485948
122.276656,5033.400406,9178.553681,0.000000
122.276977,5699.585753,7402.059420,-229.828649
122.277298,4959.379811,5847.626942,-459.657299
122.277618,4959.379811,5847.626942,-1149.143247
122.277939,5107.421000,7846.182985,-1608.800546
122.278260,4663.297435,9992.780217,-842.705048
122.278581,4293.194464,10732.986159,229.828649
122.278901,5181.441594,9770.718434,0.000000
122.279222,4737.318029,8364.327145,995.924147
122.279543,3478.967927,7179.997637,842.705048
122.279863,2442.679609,5847.626942,229.828649
122.280184,3034.844362,5403.503377,-536.266849
122.280505,4071.132681,6661.853478,-153.219100
122.280825,4515.256246,9178.553681,229.828649
122.281146,4737.318029,10732.986159,0.000000
122.281467,4737.318029,11547.212695,-536.266849
122.281787,4367.215058,9770.718434,-459.657299
122.282108,4071.132681,7105.977043,-536.266849
122.282429,4737.318029,5773.606348,-229.828649
122.282749,5033.400406,6661.853478,-1225.752797
122.283070,4367.215058,8364.327145,-1915.238745
122.283391,4515.256246,10288.862594,-1455.581446
122.283711,5255.462188,11029.068536,-536.266849
122.284032,5921.647536,10807.006753,306.438199
122.284353,5329.482782,8660.409521,1149.143247
122.284674,4515.256246,6957.935855,536.266849
122.284994,3849.070898,5255.462188,306.438199
122.285315,3997.112087,5403.503377,536.266849
122.285636,4959.379811,6957.935855,766.095498
122.285956,5773.606348,9992.780217,306.438199
122.286277,5995.668130,11103.089130,-76.609550
122.286598,5921.647536,10214.842000,-919.314598
122.286918,5847.626942,7994.224174,-536.266849
122.287239,5551.544565,6513.812290,383.047749
122.287560,5107.421000,5625.565159,76.609550
122.287880,5329.482782,6661.853478,-995.924147
122.288201,5477.523971,8660.409521,-1532.190996
122.288522,5477.523971,10140.821405,-919.314598
122.288842,6143.709319,10510.924376,76.609550
122.289163,6513.812290,9992.780217,0.000000
122.289484,5181.441594,8586.388927,536.266849
122.289804,4071.132681,6217.729913,229.828649
122.290125,3701.029710,4367.215058,0.000000
122.290446,4071.132681,5255.462188,536.266849
122.290767,4589.276840,7031.956449,842.705048
122.291087,4589.276840,9400.615463,229.828649
122.291408,5477.523971,9918.759623,-766.095498
122.291729,6957.935855,8882.471304,-689.485948
122.292049,6735.874072,6883.915261,0.000000
122.292370,4811.338623,4811.338623,0.000000
122.292691,5181.441594,5403.503377,-1225.752797
122.293011,5699.585753,7994.224174,-1225.752797
122.293332,5033.400406,9474.636058,-1532.190996
122.293653,6957.935855,9992.780217,-842.705048
122.293973,7550.100608,9622.677246,-306.438199
122.294294,5255.462188,9252.574275,0.000000
122.294615,3627.009116,7402.059420,76.609550
122.294935,3627.009116,5625.565159,0.000000
122.295256,4145.153275,4885.359217,306.438199
122.295577,4589.276840,6513.812290,766.095498
122.295897,3997.112087,8956.491898,306.438199
122.296218,3404.947333,10658.965565,-919.314598
122.296539,4071.132681,11177.109724,0.000000
122.296859,5107.421000,9696.697840,306.438199
122.297180,4811.338623,7328.038826,383.047749
122.297501,3775.050304,6143.709319,76.609550
122.297822,3552.988522,7105.977043,-1149.143247
122.298142,3701.029710,9548.656652,-919.314598
122.298463,4441.235652,11325.150913,76.609550
122.298784,5847.626942,11473.192101,76.609550
122.299104,6069.688724,10436.903782,76.609550
122.299425,4885.359217,8808.450710,229.828649
122.299746,3256.906145,6735.874072,76.609550
122.300066,3849.070898,5181.441594,-306.438199
122.300387,4737.318029,5403.503377,229.828649
122.300708,5329.482782,8216.285956,229.828649
122.301028,5181.441594,10510.924376,306.438199
122.301349,5477.523971,11103.089130,-383.047749
122.301670,4885.359217,9770.718434,0.000000
122.301990,4737.318029,7772.162391,306.438199
122.302311,4885.359217,5995.668130,229.828649
122.302632,4959.379811,5551.544565,-536.266849
122.302952,5107.421000,7254.018232,-1455.581446
122.303273,4885.359217,9400.615463,-1149.143247
122.303594,4515.256246,10955.047942,-1225.752797
122.303915,4811.338623,10288.862594,-383.047749
122.304235,5773.606348,9178.553681,842.705048
122.304556,5329.482782,7105.977043,612.876398
122.304877,4441.235652,5033.400406,-76.609550
122.305197,3997.112087,4515.256246,-1225.752797
122.305518,4441.235652,5921.647536,-689.485948
122.305839,5255.462188,8512.368333,306.438199
122.306159,6365.771101,9844.739029,306.438199
122.306480,7105.977043,9696.697840,306.438199
122.306801,6735.874072,7994.224174,0.000000
122.307121,5329.482782,5995.668130,-306.438199
122.307442,5181.441594,4737.318029,-1532.190996
122.307763,5773.606348,5033.400406,-1455.581446
122.308083,6735.874072,6957.935855,-1302.362347
122.308404,6587.832884,9326.594869,-766.095498
122.308725,6217.729913,10436.903782,-459.657299
122.309045,5847.626942,10362.883188,-459.657299
122.309366,5033.400406,8956.491898,0.000000
122.309687,4737.318029,6365.771101,0.000000
122.310007,4441.235652,5107.421000,0.000000
122.310328,4737.318029,5699.585753,229.828649
122.310649,4145.153275,8068.244768,766.095498
122.310970,4071.132681,10436.903782,1072.533697
122.311290,4885.359217,11177.109724,536.266849
122.311611,5625.565159,10362.883188,-306.438199
122.311932,5107.421000,8290.306550,229.828649
122.312252,4293.194464,6291.750507,76.609550
122.312573,4145.153275,5921.647536,0.000000
122.312894,3923.091493,7476.080014,-766.095498
122.313214,4145.153275,9622.677246,-459.657299
122.313535,5181.441594,11695.253884,-536.266849
122.313856,5551.544565,11547.212695,-153.219100
122.314176,4145.153275,10584.944971,-536.266849
122.314497,4145.153275,8290.306550,306.438199
122.314818,3330.926739,6587.832884,-306.438199
122.315138,2812.782580,5477.523971,-459.657299
122.315459,4441.235652,6217.729913,0.000000
122.315780,5181.441594,8882.471304,1072.533697
122.316100,4145.153275,10584.944971,536.266849
122.316421,4145.153275,10214.842000,0.000000
122.316742,5255.462188,8512.368333,76.609550
122.317063,5551.544565,6513.812290,76.609550
122.317383,5033.400406,4737.318029,0.000000
122.317704,5255.462188,5255.462188,-1455.581446
122.318025,6069.688724,7254.018232,-1991.848295
122.318345,5033.400406,9326.594869,-1532.190996
122.318666,5921.647536,10510.924376,-766.095498
122.318987,7105.977043,9696.697840,-229.828649
122.319307,6143.709319,8216.285956,76.609550
122.319628,4663.297435,6513.812290,0.000000
122.319949,4145.153275,4293.194464,-995.924147
122.320269,4663.297435,4219.173869,-842.705048
122.320590,6143.709319,6217.729913,689.485948
122.320911,6143.709319,8290.306550,1225.752797
122.321231,5847.626942,9474.636058,-383.047749
122.321552,5847.626942,9696.697840,-536.266849
122.321873,4737.318029,8438.347739,0.000000
122.322193,4737.318029,5921.647536,0.000000
122.322514,5995.668130,5255.462188,-383.047749
122.322835,5625.565159,6661.853478,-995.924147
122.323155,5107.421000,9030.512492,-1378.971896
122.323476,5477.523971,11029.068536,-306.438199
122.323797,5255.462188,11399.171507,0.000000
122.324118,5181.441594,10510.924376,76.609550
122.324438,4663.297435,8438.347739,919.314598
122.324759,3552.988522,6439.791695,0.000000
122.325080,3552.988522,5625.565159,-153.219100
122.325400,3627.009116,6587.832884,383.047749
122.325721,4071.132681,8956.491898,766.095498
122.326042,4145.153275,10807.006753,919.314598
122.326362,4811.338623,10955.047942,536.266849
122.326683,5625.565159,8956.491898,76.609550
122.327004,5181.441594,7328.038826,842.705048
122.327324,4959.379811,6439.791695,-153.219100
122.327645,4959.379811,6513.812290,-1685.410096
122.327966,5995.668130,7920.203579,-1838.629195
122.328286,6513.812290,9696.697840,-1225.752797
122.328607,6365.771101,10066.800811,-459.657299
122.328928,6513.812290,9474.636058,0.000000
122.329248,5625.565159,9030.512492,-536.266849
122.329569,4515.256246,7105.977043,-536.266849
122.329890,4663.297435,5403.503377,0.000000
122.330211,5329.482782,4811.338623,-689.485948
122.330531,4811.338623,6513.812290,0.000000
122.330852,4367.215058,9326.594869,612.876398
122.331173,4589.276840,10436.903782,306.438199
122.331493,5255.462188,10140.821405,0.000000
122.331814,5625.565159,8290.306550,229.828649
122.332135,4663.297435,5995.668130,-229.828649
122.332455,3997.112087,5847.626942,-995.924147
122.332776,3997.112087,6439.791695,-689.485948
122.333097,4589.276840,8364.327145,-612.876398
122.333417,5329.482782,9696.697840,-459.657299
122.333738,5847.626942,9770.718434,-229.828649
122.334059,5773.606348,9918.759623,153.219100
122.334379,4737.318029,8290.306550,306.438199
122.334700,3627.009116,6587.832884,-153.219100
122.335021,4145.153275,4885.359217,-766.095498
122.335341,5477.523971,5921.647536,-76.609550
122.335662,5255.462188,8216.285956,536.266849
122.335983,5033.400406,10362.883188,306.438199
122.336303,5403.503377,10732.986159,0.000000
122.336624,5699.585753,9030.512492,0.000000
122.336945,6291.750507,6957.935855,842.705048
122.337266,5551.544565,6069.688724,459.657299
122.337586,5255.462188,5847.626942,-459.657299
122.337907,5181.441594,7105.977043,-842.705048
122.338228,5255.462188,9622.677246,-919.314598
122.338548,5699.585753,10807.006753,0.000000
122.338869,5847.626942,10066.800811,0.000000
122.339190,5625.565159,8956.491898,459.657299
122.339510,4885.359217,7105.977043,459.657299
122.339831,3552.988522,5847.626942,0.000000
122.340152,4219.173869,5403.503377,-612.876398
122.340473,5033.400406,7179.997637,-383.047749
122.340793,5403.503377,9918.759623,459.657299
122.341114,4959.379811,10362.883188,1072.533697
122.341435,5699.585753,9252.574275,536.266849
122.341755,5403.503377,8068.244768,612.876398
122.342076,4219.173869,6587.832884,612.876398
122.342397,4293.194464,5329.482782,-612.876398
122.342718,5107.421000,5699.585753,-1302.362347
122.343038,5847.626942,7550.100608,-766.095498
122.343359,6365.771101,9992.780217,-76.609550
122.343680,6291.750507,10066.800811,-306.438199
122.344000,5625.565159,9474.636058,-766.095498
122.344321,5329.482782,7624.121203,0.000000
122.344642,4959.379811,5477.523971,-153.219100
122.344963,4663.297435,4515.256246,-612.876398
122.345283,4663.297435,5921.647536,-1072.533697
122.345604,4959.379811,8586.388927,-689.485948
122.345925,4737.318029,10807.006753,0.000000
122.346245,4885.359217,10214.842000,0.000000
122.346566,5773.606348,9326.594869,229.828649
122.346887,5181.441594,7772.162391,612.876398
122.347208,3997.112087,6661.853478,0.000000
122.347528,3997.112087,6365.771101,-842.705048
122.347849,5551.544565,7550.100608,-383.047749
122.348170,5551.544565,9622.677246,76.609550
122.348490,5403.503377,10288.862594,536.266849
122.348811,5255.462188,10066.800811,0.000000
122.349132,4515.256246,8882.471304,-229.828649
122.349453,4663.297435,6957.935855,536.266849
122.349773,3775.050304,6069.688724,0.000000
122.350094,4441.235652,5551.544565,0.000000
122.350415,4959.379811,8586.388927,0.000000
122.350736,4663.297435,11177.109724,383.047749
122.351056,4663.297435,11177.109724,383.047749
122.351377,5773.606348,9622.677246,-153.219100
122.351698,5181.441594,8216.285956,306.438199
122.352018,4145.153275,6883.915261,0.000000
122.352339,4145.153275,6217.729913,-689.485948
122.352660,4515.256246,6957.935855,-689.485948
122.352981,5551.544565,8882.471304,-76.609550
122.353301,5477.523971,10362.883188,0.000000
122.353622,4663.297435,9918.759623,-383.047749
122.353943,5033.400406,9178.553681,153.219100
122.354263,4367.215058,7920.203579,919.314598
122.354584,4071.132681,5995.668130,229.828649
122.354905,3775.050304,4737.318029,-536.266849
122.355226,4145.153275,5625.565159,-1225.752797
122.355546,4885.359217,8512.368333,-536.266849
122.355867,5699.585753,10214.842000,76.609550
122.356188,6069.688724,10510.924376,-153.219100
122.356508,6439.791695,9030.512492,-383.047749
122.356829,5551.544565,7254.018232,76.609550
122.357150,4737.318029,5847.626942,-229.828649
122.357471,4589.276840,4737.318029,-536.266849
122.357791,5551.544565,5995.668130,-919.314598
122.358112,6143.709319,8660.409521,-1072.533697
122.358433,5921.647536,10362.883188,-919.314598
122.358753,5847.626942,10436.903782,0.000000
122.359074,5625.565159,8734.430116,76.609550
122.359395,4885.359217,7105.977043,1072.533697
122.359716,3404.947333,5477.523971,689.485948
122.360036,3182.885551,4811.338623,76.609550
122.360357,5181.441594,7328.038826,76.609550
122.360678,5255.462188,10214.842000,383.047749
122.360998,5107.421000,11399.171507,-306.438199
122.361319,5403.503377,10066.800811,-689.485948
122.361640,4959.379811,8142.265362,0.000000
122.361961,4589.276840,6957.935855,766.095498
122.362281,4441.235652,6069.688724,1149.143247
122.362602,4219.173869,5847.626942,-689.485948
122.362923,5847.626942,8216.285956,-919.314598
122.363243,5921.647536,10732.986159,0.000000
122.363564,5921.647536,10955.047942,0.000000
122.363885,5847.626942,9696.697840,-153.219100
122.364206,5403.503377,8290.306550,229.828649
122.364526,4367.215058,6291.750507,459.657299
122.364847,4441.235652,5255.462188,229.828649
122.365168,4737.318029,5773.606348,-536.266849
122.365488,4959.379811,8068.244768,-459.657299
122.365809,4959.379811,9918.759623,842.705048
122.366130,5181.441594,10362.883188,306.438199
122.366451,5255.462188,8734.430116,0.000000
122.366771,5255.462188,6957.935855,0.000000
122.367092,4663.297435,5921.647536,-689.485948
122.367413,3923.091493,6291.750507,-1302.362347
122.367733,4441.235652,7328.038826,-1225.752797
122.368054,5625.565159,9474.636058,-612.876398
122.368375,5847.626942,10955.047942,153.219100
122.368696,5403.503377,10362.883188,383.047749
122.369016,4589.276840,8808.450710,-689.485948
122.369337,4367.215058,7105.977043,-536.266849
122.369658,3552.988522,5847.626942,0.000000
122.369978,3775.050304,5033.400406,0.000000
122.370299,4663.297435,5995.668130,0.000000
122.370620,4663.297435,8734.430116,536.266849
122.370941,4441.235652,10436.903782,229.828649
122.371261,5255.462188,10140.821405,0.000000
122.371582,5625.565159,8956.491898,-919.314598
122.371903,5107.421000,7402.059420,-536.266849
122.372223,4959.379811,6661.853478,-612.876398
122.372544,4811.338623,6291.750507,-306.438199
122.372865,5255.462188,8216.285956,-919.314598
122.373186,5921.647536,10510.924376,-689.485948
122.373506,5329.482782,10881.027347,-842.705048
122.373827,5403.503377,9992.780217,-383.047749
122.374148,5403.503377,7772.162391,536.266849
122.374468,4811.338623,5699.585753,919.314598
122.374789,3997.112087,4737.318029,306.438199
122.375110,3552.988522,5255.462188,-459.657299
122.375431,4441.235652,7476.080014,-612.876398
122.375751,5181.441594,11029.068536,153.219100
122.376072,5847.626942,11695.253884,0.000000
122.376393,5921.647536,10288.862594,-153.219100
122.376713,5773.606348,7994.224174,-536.266849
122.377034,4441.235652,6661.853478,-766.095498
122.377355,3849.070898,5477.523971,-689.485948
122.377676,4811.338623,6069.688724,-1378.971896
122.377996,5551.544565,8512.368333,-306.438199
122.378317,5699.585753,9992.780217,306.438199
122.378638,6143.709319,10288.862594,229.828649
122.378958,5773.606348,9030.512492,153.219100
122.379279,4885.359217,6587.832884,383.047749
122.379600,4737.318029,4737.318029,536.266849
122.379921,4737.318029,3552.988522,0.000000
122.380241,5181.441594,5181.441594,-306.438199
122.380562,5699.585753,8734.430116,-536.266849
122.380883,6217.729913,11769.274478,-459.657299
122.381203,5847.626942,11843.295072,-766.095498
122.381524,5033.400406,9622.677246,-919.314598
122.381845,5995.668130,7624.121203,-76.609550
122.382166,4145.153275,6143.709319,-842.705048
122.382486,2516.700203,5403.503377,-1072.533697
122.382807,3775.050304,7105.977043,-1149.143247
122.383128,5255.462188,10066.800811,-383.047749
122.383448,5477.523971,11843.295072,383.047749
122.383769,4959.379811,11769.274478,383.047749
122.384090,3997.112087,9252.574275,-459.657299
122.384411,3552.988522,6809.894666,612.876398
122.384731,2812.782580,5773.606348,1225.752797
122.385052,4515.256246,5551.544565,459.657299
122.385373,4589.276840,7179.997637,0.000000
122.385693,4959.379811,10584.944971,0.000000
122.386014,4959.379811,12139.377449,-383.047749
122.386335,5181.441594,10807.006753,-153.219100
122.386656,5107.421000,8142.265362,76.609550
122.386976,5255.462188,6513.812290,0.000000
122.387297,3701.029710,5773.606348,-229.828649
122.387618,4663.297435,6217.729913,-919.314598
122.387938,5181.441594,8438.347739,-689.485948
122.388259,5995.668130,11029.068536,0.000000
122.388580,6291.750507,11769.274478,0.000000
122.388901,6143.709319,9844.739029,-306.438199
122.389221,5033.400406,6957.935855,-383.047749
122.389542,5181.441594,5181.441594,306.438199
122.389863,3849.070898,4293.194464,153.219100
122.390183,3775.050304,4737.318029,-995.924147
122.390504,5329.482782,7254.018232,0.000000
122.390825,5921.647536,9770.718434,459.657299
122.391146,6365.771101,9770.718434,-383.047749
122.391466,6143.709319,8808.450710,-229.828649
122.391787,4885.359217,7254.018232,-1149.143247
122.392108,4071.132681,5625.565159,-995.924147
122.392428,4811.338623,5181.441594,-689.485948
122.392749,6069.688724,6439.791695,-766.095498
122.393070,6439.791695,9770.718434,0.000000
122.393391,5625.565159,11769.274478,0.000000
122.393711,5477.523971,11251.130318,-689.485948
122.394032,5107.421000,8586.388927,-383.047749
122.394353,5329.482782,5995.668130,842.705048
122.394673,4663.297435,4441.235652,1225.752797
122.394994,3627.009116,4071.132681,306.438199
122.395315,3849.070898,6809.894666,76.609550
122.395636,4811.338623,9844.739029,689.485948
122.395956,5625.565159,10658.965565,612.876398
122.396277,6143.709319,10066.800811,153.219100
122.396598,6217.729913,9030.512492,-383.047749
122.396918,4367.215058,7846.182985,-459.657299
122.397239,3552.988522,6365.771101,-306.438199
122.397560,5033.400406,6143.709319,-459.657299
122.397881,6291.750507,8956.491898,-306.438199
122.398201,6069.688724,11769.274478,0.000000
122.398522,5773.606348,11547.212695,-612.876398
122.398843,5551.544565,10288.862594,-842.705048
122.399163,5033.400406,7031.956449,383.047749
122.399484,4293.194464,4959.379811,1915.238745
122.399805,4219.173869,4071.132681,459.657299
122.400126,4515.256246,5699.585753,0.000000
122.400446,4515.256246,8586.388927,0.000000
122.400767,4811.338623,10436.903782,229.828649
122.401088,5403.503377,11177.109724,383.047749
122.401408,5403.503377,9844.739029,76.609550
122.401729,4959.379811,7772.162391,-153.219100
122.402050,4071.132681,5847.626942,-919.314598
122.402371,4293.194464,4885.359217,-1225.752797
122.402691,4367.215058,5921.647536,-536.266849
122.403012,5329.482782,9104.533087,0.000000
122.403333,5773.606348,11547.212695,-229.828649
122.403653,5477.523971,11473.192101,-229.828649
122.403974,5329.482782,8882.471304,459.657299
122.404295,5181.441594,5921.647536,-459.657299
122.404616,3701.029710,4663.297435,0.000000
122.404936,3404.947333,4367.215058,-536.266849
122.405257,4293.194464,6143.709319,-536.266849
122.405578,5625.565159,9400.615463,-229.828649
122.405898,5773.606348,11103.089130,766.095498
122.406219,5699.585753,10362.883188,-306.438199
122.406540,5255.462188,8808.450710,-1149.143247
122.406861,4885.359217,7105.977043,-842.705048
122.407181,4515.256246,5625.565159,0.000000
122.407502,5033.400406,5033.400406,-459.657299
122.407823,5773.606348,7328.038826,-76.609550
122.408144,5921.647536,10955.047942,0.000000
122.408464,5255.462188,12731.542202,76.609550
122.408785,5921.647536,11251.130318,0.000000
122.409106,6217.729913,7920.203579,689.485948
122.409426,4885.359217,4737.318029,919.314598
122.409747,4219.173869,4071.132681,536.266849
122.410068,3775.050304,5477.523971,153.219100
122.410389,4293.194464,7772.162391,0.000000
122.410709,6735.874072,10288.862594,459.657299
122.411030,6809.894666,10955.047942,383.047749
122.411351,5477.523971,9622.677246,0.000000
122.411671,5033.400406,7846.182985,0.000000
122.411992,4441.235652,6291.750507,-536.266849
122.412313,4219.173869,5625.565159,-536.266849
122.412634,5255.462188,7105.977043,-1072.533697
122.412954,5329.482782,9548.656652,-1149.143247
122.413275,4589.276840,11991.336260,-689.485948
122.413596,4441.235652,12287.418637,689.485948
122.413916,5181.441594,9992.780217,-306.438199
122.414237,5255.462188,6291.750507,536.266849
122.414558,4071.132681,4145.153275,229.828649
122.414879,3108.864956,3404.947333,-536.266849
122.415199,3997.112087,4737.318029,-306.438199
122.415520,5551.544565,8068.244768,76.609550
122.415841,6735.874072,10288.862594,306.438199
122.416161,6809.894666,10140.821405,-306.438199
122.416482,6365.771101,9326.594869,-1072.533697
122.416803,5329.482782,7328.038826,-995.924147
122.417124,5255.462188,5033.400406,-919.314598
122.417444,5181.441594,4367.215058,-766.095498
122.417765,5921.647536,7105.977043,-2451.505594
122.418086,6365.771101,10584.944971,-995.924147
122.418406,5699.585753,12879.583391,-689.485948
122.418727,5255.462188,11547.212695,-153.219100
122.419048,5403.503377,8882.471304,76.609550
122.419369,4071.132681,5403.503377,766.095498
122.419689,2590.720797,3627.009116,766.095498
122.420010,3478.967927,3997.112087,536.266849
122.420331,4441.235652,7994.224174,689.485948
122.420651,4663.297435,11251.130318,229.828649
122.420972,5329.482782,12583.501014,-689.485948
122.421293,5773.606348,11103.089130,-306.438199
122.421614,5773.606348,9252.574275,689.485948
122.421934,4515.256246,7328.038826,1072.533697
122.422255,3701.029710,5773.606348,0.000000
122.422576,4663.297435,6587.832884,-1225.752797
122.422896,6069.688724,9622.677246,-612.876398
122.423217,6883.915261,12361.439231,-306.438199
122.423538,6513.812290,12287.418637,-383.047749
122.423859,5995.668130,9844.739029,0.000000
122.424179,5255.462188,7105.977043,1532.190996
122.424500,4515.256246,4959.379811,1455.581446
122.424821,3478.967927,3627.009116,612.876398
122.425141,4367.215058,4811.338623,-536.266849
122.425462,5625.565159,8290.306550,0.000000
122.425783,6143.709319,10881.027347,459.657299
122.426104,6291.750507,10955.047942,0.000000
122.426424,5995.668130,9326.594869,-842.705048
122.426745,5403.503377,7105.977043,-766.095498
122.427066,4737.318029,5181.441594,0.000000
122.427386,4145.153275,4589.276840,-306.438199
122.427707,5107.421000,5921.647536,-1608.800546
122.428028,6143.709319,9030.512492,-1378.971896
122.428349,5403.503377,11029.068536,-919.314598
122.428669,5625.565159,10584.944971,-383.047749
122.428990,5107.421000,7994.224174,-153.219100
122.429311,4737.318029,5773.606348,459.657299
122.429631,3478.967927,4367.215058,229.828649
122.429952,2368.659014,4737.318029,0.000000
122.430273,3923.091493,6365.771101,-689.485948
122.430594,5477.523971,9548.656652,153.219100
122.430914,5477.523971,11473.192101,306.438199
122.431235,4959.379811,10288.862594,-1302.362347
122.431556,4885.359217,8586.388927,-1685.410096
122.431876,4441.235652,6809.894666,-459.657299
122.432197,3627.009116,5773.606348,306.438199
122.432518,4293.194464,5921.647536,0.000000
122.432839,5255.462188,8808.450710,-383.047749
122.433159,5625.565159,12139.377449,0.000000
122.433480,4959.379811,12805.562797,-306.438199
122.433801,5403.503377,10362.883188,0.000000
122.434121,5033.400406,7698.141797,76.609550
122.434442,4441.235652,5995.668130,995.924147
122.434763,3552.988522,5921.647536,612.876398
122.435084,3923.091493,6217.729913,-459.657299
122.435404,5477.523971,8956.491898,-383.047749
122.435725,6661.853478,11251.130318,766.095498
122.436046,5921.647536,11103.089130,0.000000
122.436366,5773.606348,9844.739029,0.000000
122.436687,5625.565159,7994.224174,-383.047749
122.437008,4737.318029,6587.832884,-153.219100
122.437329,4663.297435,5773.606348,459.657299
122.437649,4811.338623,6735.874072,-153.219100
122.437970,5403.503377,9696.697840,76.609550
122.438291,5847.626942,11547.212695,229.828649
122.438612,5255.462188,10807.006753,0.000000
122.438932,5403.503377,8290.306550,0.000000
122.439253,4885.359217,5995.668130,383.047749
122.439574,3627.009116,5181.441594,383.047749
122.439895,3182.885551,4145.153275,-383.047749
122.440215,4959.379811,5181.441594,0.000000
122.440536,5995.668130,8290.306550,229.828649
122.440857,5329.482782,9992.780217,0.000000
122.441178,5255.462188,9918.759623,-689.485948
122.441499,6217.729913,8290.306550,-1378.971896
122.441819,5921.647536,6143.709319,-612.876398
122.442140,5625.565159,4737.318029,-306.438199
122.442461,4959.379811,4811.338623,-1302.362347
122.442782,5477.523971,7105.977043,-1991.848295
122.443102,5773.606348,10140.821405,-919.314598
122.443423,6069.688724,11399.171507,-612.876398
122.443744,6365.771101,9770.718434,-383.047749
122.444065,5107.421000,7328.038826,-612.876398
122.444385,3775.050304,5995.668130,-612.876398
122.444706,2294.638420,4737.318029,153.219100
122.445027,2590.720797,5033.400406,536.266849
122.445348,4959.379811,7994.224174,536.266849
122.445669,5773.606348,11695.253884,689.485948
122.445989,5773.606348,12731.542202,153.219100
122.446310,4515.256246,11103.089130,-459.657299
122.446631,4293.194464,8068.244768,153.219100
122.446952,4441.235652,5551.544565,612.876398
122.447272,4367.215058,5403.503377,306.438199
122.447593,4737.318029,7698.141797,-689.485948
122.447914,5181.441594,11177.109724,-1225.752797
122.448235,5255.462188,13397.727550,-459.657299
122.448555,5033.400406,12361.439231,0.000000
122.448876,5477.523971,9548.656652,1072.533697
122.449197,5477.523971,6883.915261,1685.410096
122.449518,4219.173869,5033.400406,1149.143247
122.449839,3182.885551,4737.318029,-76.609550
122.450159,3330.926739,6513.812290,-766.095498
122.450480,4811.338623,9918.759623,153.219100
122.450801,6217.729913,11473.192101,919.314598
122.451122,6439.791695,10807.006753,459.657299
122.451442,5773.606348,7920.203579,-536.266849
122.451763,4737.318029,5551.544565,-689.485948
122.452084,3478.967927,4663.297435,0.000000
122.452405,3627.009116,4959.379811,-306.438199
122.452725,5699.585753,7105.977043,-919.314598
122.453046,6883.915261,9918.759623,-766.095498
122.453367,6735.874072,10881.027347,-919.314598
122.453688,5477.523971,9992.780217,-612.876398
122.454009,4737.318029,8438.347739,-1149.143247
122.454329,4071.132681,5477.523971,-383.047749
122.454650,3923.091493,4367.215058,153.219100
122.454971,4737.318029,4811.338623,0.000000
122.455292,4663.297435,7179.997637,0.000000
122.455612,4737.318029,10288.862594,76.609550
122.455933,4663.297435,10881.027347,-229.828649
122.456254,4737.318029,9326.594869,-76.609550
122.456575,5255.462188,7698.141797,306.438199
122.456895,4663.297435,5921.647536,383.047749
122.457216,3330.926739,5329.482782,-536.266849
122.457537,3552.988522,6143.709319,-995.924147
122.457858,5033.400406,9178.553681,-689.485948
122.458179,5995.668130,11843.295072,0.000000
122.458499,6365.771101,12361.439231,0.000000
122.458820,5921.647536,10955.047942,-153.219100
122.459141,4885.359217,7772.162391,536.266849
122.459462,3849.070898,5699.585753,995.924147
122.459782,3256.906145,4811.338623,229.828649
122.460103,4737.318029,5773.606348,0.000000
122.460424,5847.626942,8882.471304,306.438199
122.460745,6809.894666,11177.109724,459.657299
122.461065,6069.688724,11103.089130,306.438199
122.461386,5921.647536,9474.636058,-153.219100
122.461707,5551.544565,7179.997637,76.609550
122.462028,5403.503377,5847.626942,459.657299
122.462348,5477.523971,5477.523971,-76.609550
122.462669,5477.523971,7476.080014,-536.266849
122.462990,6217.729913,8660.409521,-383.047749
122.463311,5921.647536,10732.986159,-689.485948
122.463632,5403.503377,10066.800811,-612.876398
122.463952,5477.523971,8734.430116,-842.705048
122.464273,5477.523971,6883.915261,76.609550
122.464594,3478.967927,5255.462188,536.266849
122.464915,3478.967927,4367.215058,0.000000
122.465235,4219.173869,6069.688724,0.000000
122.465556,5033.400406,9548.656652,-383.047749
122.465877,5329.482782,10658.965565,-153.219100
122.466198,5255.462188,10066.800811,-1072.533697
122.466518,5255.462188,8734.430116,-1072.533697
122.466839,4515.256246,6883.915261,383.047749
122.467160,3775.050304,4737.318029,536.266849
122.467481,3849.070898,5329.482782,-306.438199
122.467802,4959.379811,7920.203579,-459.657299
122.468122,5551.544565,10362.883188,-459.657299
122.468443,5551.544565,10881.027347,-1149.143247
122.468764,5255.462188,9252.574275,-1225.752797
122.469085,5625.565159,8142.265362,153.219100
122.469405,4663.297435,6069.688724,306.438199
122.469726,3997.112087,4737.318029,0.000000
122.470047,4959.379811,5847.626942,-536.266849
122.470368,4737.318029,8882.471304,-689.485948
122.470688,5181.441594,10955.047942,-383.047749
122.471009,5625.565159,11695.253884,229.828649
122.471330,5847.626942,10881.027347,229.828649
122.471651,5181.441594,7772.162391,-229.828649
122.471972,4441.235652,6365.771101,383.047749
122.472292,3330.926739,6217.729913,76.609550
122.472613,2886.803174,7550.100608,0.000000
122.472934,4737.318029,10510.924376,919.314598
122.473255,5551.544565,11991.336260,0.000000
122.473575,5329.482782,11251.130318,0.000000
122.473896,4885.359217,9252.574275,-229.828649
122.474217,4441.235652,7105.977043,919.314598
122.474538,3108.864956,6513.812290,1378.971896
122.474858,2960.823768,6143.709319,1302.362347
122.475179,4737.318029,7105.977043,0.000000
122.475500,5921.647536,9252.574275,536.266849
122.475821,5329.482782,10955.047942,1072.533697
122.476142,5255.462188,9992.780217,-306.438199
122.476462,5181.441594,7920.203579,-1225.752797
122.476783,5107.421000,5921.647536,-536.266849
122.477104,5329.482782,4737.318029,0.000000
122.477425,5477.523971,5255.462188,-383.047749
122.477745,5551.544565,6957.935855,-766.095498
122.478066,6069.688724,9474.636058,-766.095498
122.478387,5625.565159,10214.842000,-536.266849
122.478708,5625.565159,8512.368333,-689.485948
122.479028,6439.791695,6661.853478,-306.438199
122.479349,4737.318029,5625.565159,0.000000
122.479670,2960.823768,5255.462188,-536.266849
122.479991,2960.823768,5477.523971,-1149.143247
122.480312,4515.256246,7550.100608,-689.485948
122.480632,5625.565159,9918.759623,612.876398
122.480953,5403.503377,11029.068536,76.609550
122.481274,4441.235652,9474.636058,-1455.581446
122.481595,3923.091493,7698.141797,-1378.971896
122.481915,4145.153275,6957.935855,306.438199
122.482236,4663.297435,5847.626942,1072.533697
122.482557,5033.400406,5921.647536,612.876398
122.482878,5995.668130,8438.347739,0.000000
122.483198,5625.565159,11695.253884,0.000000
122.483519,4959.379811,11547.212695,-153.219100
122.483840,5921.647536,9474.636058,-536.266849
122.484161,7105.977043,7772.162391,306.438199
122.484481,5699.585753,6439.791695,689.485948
122.484802,4737.318029,6143.709319,76.609550
122.485123,4515.256246,6883.915261,0.000000
122.485444,5921.647536,8586.388927,-153.219100
122.485765,6587.832884,9918.759623,766.095498
122.486085,6587.832884,9992.780217,-153.219100
122.486406,6365.771101,9474.636058,-1302.362347
122.486727,5403.503377,8216.285956,-689.485948
122.487048,4663.297435,7328.038826,0.000000
122.487368,4737.318029,6143.709319,842.705048
122.487689,4737.318029,7031.956449,0.000000
122.488010,5255.462188,9178.553681,-383.047749
122.488331,4441.235652,11399.171507,-306.438199
122.488651,4367.215058,10362.883188,0.000000
122.488972,5107.421000,8512.368333,-536.266849
122.489293,4663.297435,6587.832884,0.000000
122.489614,2812.782580,5773.606348,0.000000
122.489935,2812.782580,5329.482782,689.485948
122.490255,3701.029710,6735.874072,229.828649
122.490576,5181.441594,9326.594869,612.876398
122.490897,4959.379811,9992.780217,-76.609550
122.491218,5329.482782,9030.512492,-1608.800546
122.491538,5699.585753,7624.121203,-1532.190996
122.491859,4959.379811,6143.709319,-229.828649
122.492180,4737.318029,4663.297435,229.828649
122.492501,5477.523971,4959.379811,-612.876398
122.492821,5329.482782,7179.997637,-1072.533697
122.493142,5699.585753,9474.636058,-612.876398
122.493463,6291.750507,10288.862594,-306.438199
122.493784,6735.874072,9104.533087,-919.314598
122.494105,5995.668130,7179.997637,-76.609550
122.494425,4663.297435,6069.688724,-229.828649
122.494746,3404.947333,5107.421000,-153.219100
122.495067,3775.050304,6217.729913,-306.438199
122.495388,5329.482782,8290.306550,306.438199
122.495708,5847.626942,10214.842000,306.438199
122.496029,5403.503377,11177.109724,-689.485948
122.496350,4737.318029,10658.965565,-1455.581446
122.496671,4589.276840,8956.491898,-995.924147
122.496991,4145.153275,7402.059420,229.828649
122.497312,3923.091493,6735.874072,1072.533697
122.497633,4811.338623,7550.100608,919.314598
122.497954,4737.318029,10288.862594,459.657299
122.498275,4959.379811,11103.089130,229.828649
122.498595,5403.503377,10584.944971,459.657299
122.498916,5551.544565,8882.471304,306.438199
122.499237,5625.565159,7772.162391,153.219100
122.499558,4959.379811,5625.565159,76.609550
122.499878,4737.318029,5255.462188,153.219100
122.500199,5329.482782,6217.729913,459.657299
122.500520,5773.606348,8068.244768,612.876398
122.500841,6217.729913,9992.780217,0.000000
122.501161,6365.771101,10066.800811,-766.095498
122.501482,5551.544565,8068.244768,-1991.848295
122.501803,5921.647536,7105.977043,-1072.533697
122.502124,5255.462188,6365.771101,-229.828649
