#time,accel_x,accel_y,accel_z
133.457106,3701.029710,6587.832884,2911.162892
133.457427,3182.885551,6439.791695,2911.162892
133.457748,3256.906145,7920.203579,2834.553343
133.458069,3256.906145,8364.327145,1685.410096
133.458390,2738.761985,9178.553681,1149.143247
133.458711,3404.947333,9770.718434,1532.190996
133.459031,4219.173869,10066.800811,1762.019645
133.459352,3923.091493,10140.821405,2145.067394
133.459673,4441.235652,9104.533087,2451.505594
133.459994,3478.967927,7920.203579,1915.238745
133.460315,2664.741391,6661.853478,1991.848295
133.460636,2960.823768,5625.565159,2068.457845
133.460957,3182.885551,5995.668130,1608.800546
133.461278,3478.967927,7179.997637,229.828649
133.461599,3627.009116,9252.574275,76.609550
133.461920,3330.926739,10658.965565,306.438199
133.462241,3627.009116,11251.130318,229.828649
133.462561,4367.215058,10955.047942,1608.800546
133.462882,3182.885551,10732.986159,1225.752797
133.463203,2294.638420,9696.697840,612.876398
133.463524,1776.494261,8142.265362,0.000000
133.463845,1702.473667,7994.224174,-153.219100
133.464166,2516.700203,8290.306550,76.609550
133.464487,3330.926739,9474.636058,-306.438199
133.464808,3701.029710,10362.883188,-689.485948
133.465129,3108.864956,11251.130318,-536.266849
133.465450,2886.803174,10658.965565,-229.828649
133.465771,3404.947333,8512.368333,229.828649
133.466091,4441.235652,8364.327145,536.266849
133.466412,4737.318029,9992.780217,459.657299
133.466733,3552.988522,10807.006753,-1378.971896
133.467054,3627.009116,9844.739029,-1685.410096
133.467375,4293.194464,10510.924376,-536.266849
133.467696,4367.215058,10436.903782,0.000000
133.468017,3552.988522,9622.677246,229.828649
133.468338,2960.823768,8512.368333,-689.485948
133.468659,2368.659014,8142.265362,-995.924147
133.468980,3256.906145,7624.121203,919.314598
133.469300,3256.906145,7624.121203,1225.752797
133.469621,3775.050304,9326.594869,0.000000
133.469942,3923.091493,10288.862594,-383.047749
133.470263,4737.318029,11103.089130,-1838.629195
133.470584,5181.441594,9696.697840,-1838.629195
133.470905,5107.421000,8290.306550,-1302.362347
133.471226,4885.359217,7550.100608,-1225.752797
133.471547,4145.153275,6513.812290,-1378.971896
133.471868,4737.318029,6809.894666,-2068.457845
133.472189,5625.565159,7031.956449,-919.314598
133.472510,6291.750507,7402.059420,0.000000
133.472830,6735.874072,7624.121203,0.000000
133.473151,6513.812290,7550.100608,-842.705048
133.473472,6661.853478,7402.059420,-766.095498
133.473793,8142.265362,6587.832884,-1072.533697
133.474114,7624.121203,6291.750507,-1608.800546
133.474435,7105.977043,5773.606348,-1302.362347
133.474756,7328.038826,6291.750507,-842.705048
133.475077,7920.203579,6883.915261,-459.657299
133.475398,7550.100608,7105.977043,0.000000
133.475719,7328.038826,7624.121203,0.000000
133.476039,6365.771101,7550.100608,-919.314598
133.476360,6439.791695,7624.121203,-995.924147
133.476681,5921.647536,7254.018232,-1762.019645
133.477002,5921.647536,7402.059420,-995.924147
133.477323,5477.523971,7476.080014,-383.047749
133.477644,5181.441594,8290.306550,383.047749
133.477965,4663.297435,9326.594869,995.924147
133.478286,3923.091493,9622.677246,1302.362347
133.478607,3701.029710,9474.636058,689.485948
133.478928,3330.926739,9474.636058,0.000000
133.479249,3256.906145,9548.656652,-536.266849
133.479569,3256.906145,9030.512492,153.219100
133.479890,3034.844362,8660.409521,536.266849
133.480211,3108.864956,7698.141797,766.095498
133.480532,3256.906145,8290.306550,1455.581446
133.480853,3108.864956,8956.491898,1455.581446
133.481174,3404.947333,9622.677246,1685.410096
133.481495,4219.173869,9104.533087,919.314598
133.481816,4885.359217,8956.491898,536.266849
133.482137,4811.338623,8512.368333,153.219100
133.482458,4737.318029,8290.306550,0.000000
133.482778,4663.297435,7476.080014,-995.924147
133.483099,4737.318029,6883.915261,-459.657299
133.483420,5255.462188,6809.894666,0.000000
133.483741,5181.441594,6735.874072,459.657299
133.484062,4959.379811,7476.080014,0.000000
133.484383,5329.482782,8068.244768,-536.266849
133.484704,5255.462188,8364.327145,-1149.143247
133.485025,5255.462188,7624.121203,-1455.581446
133.485346,5847.626942,6957.935855,-1225.752797
133.485667,5329.482782,7105.977043,-766.095498
133.485988,5107.421000,6957.935855,-766.095498
133.486308,4589.276840,7772.162391,-612.876398
133.486629,4885.359217,7402.059420,-612.876398
133.486950,4959.379811,7772.162391,-612.876398
133.487271,4737.318029,8216.285956,-612.876398
133.487592,4441.235652,8142.265362,-919.314598
133.487913,4663.297435,8216.285956,-842.705048
133.488234,4515.256246,8438.347739,-766.095498
133.488555,4367.215058,7994.224174,-76.609550
133.488876,4367.215058,8364.327145,0.000000
133.489197,3923.091493,8734.430116,459.657299
133.489517,3627.009116,9104.533087,229.828649
133.489838,3627.009116,9252.574275,153.219100
133.490159,4367.215058,8882.471304,-229.828649
133.490480,4589.276840,9252.574275,-612.876398
133.490801,4737.318029,9178.553681,-689.485948
133.491122,4589.276840,9178.553681,-766.095498
133.491443,4737.318029,8512.368333,-689.485948
133.491764,5033.400406,8290.306550,-766.095498
133.492085,5329.482782,8438.347739,306.438199
133.492406,5921.647536,8068.244768,0.000000
133.492727,6291.750507,7698.141797,-306.438199
133.493047,6513.812290,7920.203579,-995.924147
133.493368,6809.894666,7698.141797,-1532.190996
133.493689,7105.977043,7476.080014,-1532.190996
133.494010,7254.018232,7105.977043,-1149.143247
133.494331,7328.038826,7105.977043,-1302.362347
133.494652,7105.977043,7328.038826,-1608.800546
133.494973,7328.038826,7254.018232,-1225.752797
133.495294,7179.997637,7550.100608,-1378.971896
133.495615,6513.812290,7920.203579,-995.924147
133.495936,6365.771101,7994.224174,-995.924147
133.496256,5921.647536,8734.430116,-1455.581446
133.496577,5403.503377,8290.306550,-842.705048
133.496898,4811.338623,8438.347739,-919.314598
133.497219,4219.173869,8068.244768,-842.705048
133.497540,3701.029710,8216.285956,-536.266849
133.497861,3256.906145,8586.388927,153.219100
133.498182,2960.823768,8956.491898,0.000000
133.498503,2738.761985,9400.615463,0.000000
133.498824,2442.679609,9548.656652,76.609550
133.499145,2442.679609,9622.677246,383.047749
133.499466,2664.741391,9326.594869,1149.143247
133.499786,2368.659014,9104.533087,306.438199
133.500107,2146.597232,8586.388927,459.657299
133.500428,2812.782580,8512.368333,612.876398
133.500749,3108.864956,8956.491898,459.657299
133.501070,3478.967927,9178.553681,612.876398
133.501391,4219.173869,9030.512492,229.828649
133.501712,4663.297435,8734.430116,0.000000
133.502033,4885.359217,8290.306550,-229.828649
133.502354,5181.441594,7994.224174,0.000000
133.502675,5551.544565,7254.018232,-383.047749
133.502996,5625.565159,6957.935855,0.000000
133.503316,6217.729913,6439.791695,306.438199
133.503637,6291.750507,5995.668130,459.657299
133.503958,6439.791695,6587.832884,383.047749
133.504279,6661.853478,7031.956449,-229.828649
133.504600,6809.894666,6809.894666,-689.485948
133.504921,7105.977043,6661.853478,-919.314598
133.505242,7031.956449,6513.812290,-995.924147
133.505563,7031.956449,6957.935855,0.000000
133.505884,6513.812290,7328.038826,0.000000
133.506205,6365.771101,7476.080014,0.000000
133.506525,5995.668130,7328.038826,0.000000
133.506846,5699.585753,7772.162391,0.000000
133.507167,5403.503377,7846.182985,76.609550
133.507488,4737.318029,7698.141797,-153.219100
133.507809,4441.235652,7550.100608,0.000000
133.508130,4293.194464,7624.121203,306.438199
133.508451,4071.132681,7698.141797,306.438199
133.508772,4441.235652,8216.285956,612.876398
133.509093,3997.112087,8512.368333,1072.533697
133.509414,4145.153275,8586.388927,612.876398
133.509735,3775.050304,8364.327145,536.266849
133.510055,4145.153275,8068.244768,0.000000
133.510376,4589.276840,8216.285956,-229.828649
133.510697,4515.256246,8512.368333,-383.047749
133.511018,4589.276840,8734.430116,-842.705048
133.511339,4737.318029,8734.430116,-995.924147
133.511660,4959.379811,8586.388927,-689.485948
133.511981,5403.503377,8364.327145,0.000000
133.512302,5625.565159,8290.306550,0.000000
133.512623,5477.523971,8216.285956,-919.314598
133.512944,5773.606348,7846.182985,-995.924147
133.513264,5921.647536,7698.141797,-995.924147
133.513585,6143.709319,7624.121203,-842.705048
133.513906,6217.729913,7254.018232,-689.485948
133.514227,6365.771101,7624.121203,-995.924147
133.514548,6365.771101,7920.203579,-1225.752797
133.514869,6217.729913,7994.224174,-1302.362347
133.515190,5995.668130,8290.306550,-1302.362347
133.515511,6069.688724,7920.203579,-689.485948
133.515832,5847.626942,8364.327145,-919.314598
133.516153,5403.503377,8882.471304,-536.266849
133.516474,5107.421000,8512.368333,-689.485948
133.516794,4811.338623,8808.450710,-766.095498
133.517115,4441.235652,8586.388927,-689.485948
133.517436,4219.173869,8660.409521,-383.047749
133.517757,4071.132681,8882.471304,-229.828649
133.518078,3997.112087,8882.471304,76.609550
133.518399,3923.091493,8586.388927,0.000000
133.518720,3627.009116,9178.553681,612.876398
133.519041,3627.009116,8882.471304,459.657299
133.519362,3849.070898,9030.512492,459.657299
133.519683,3404.947333,9104.533087,612.876398
133.520003,3997.112087,8734.430116,0.000000
133.520324,4071.132681,8512.368333,612.876398
133.520645,4367.215058,8512.368333,612.876398
133.520966,4293.194464,8734.430116,459.657299
133.521287,4589.276840,8660.409521,0.000000
133.521608,4737.318029,8364.327145,536.266849
133.521929,5329.482782,8068.244768,306.438199
133.522250,5329.482782,7698.141797,766.095498
133.522571,5625.565159,7328.038826,612.876398
133.522892,5625.565159,7031.956449,689.485948
133.523213,5847.626942,6809.894666,459.657299
133.523533,6143.709319,6365.771101,536.266849
133.523854,6217.729913,6217.729913,766.095498
133.524175,6143.709319,6957.935855,689.485948
133.524496,6217.729913,6883.915261,153.219100
133.524817,6143.709319,6883.915261,0.000000
133.525138,6661.853478,6365.771101,-459.657299
133.525459,6291.750507,6883.915261,-306.438199
133.525780,5921.647536,6883.915261,689.485948
133.526101,6069.688724,7254.018232,459.657299
133.526422,5551.544565,7624.121203,612.876398
133.526742,5255.462188,7772.162391,383.047749
133.527063,4885.359217,7772.162391,153.219100
133.527384,4737.318029,7698.141797,0.000000
133.527705,4367.215058,7254.018232,306.438199
133.528026,4219.173869,7920.203579,0.000000
133.528347,3701.029710,7920.203579,536.266849
133.528668,3849.070898,8216.285956,459.657299
133.528989,3775.050304,8586.388927,612.876398
133.529310,3478.967927,8956.491898,842.705048
133.529631,3108.864956,8512.368333,612.876398
133.529951,3849.070898,8586.388927,459.657299
133.530272,4071.132681,8216.285956,229.828649
133.530593,4515.256246,8734.430116,536.266849
133.530914,4071.132681,9030.512492,0.000000
133.531235,4367.215058,9030.512492,-306.438199
133.531556,4441.235652,8512.368333,-153.219100
133.531877,5255.462188,8364.327145,76.609550
133.532198,5551.544565,7994.224174,306.438199
133.532518,5625.565159,8142.265362,0.000000
133.532839,5699.585753,8142.265362,-229.828649
133.533160,5995.668130,7698.141797,-612.876398
133.533481,5995.668130,7179.997637,-383.047749
133.533802,6143.709319,7402.059420,0.000000
133.534123,6365.771101,7402.059420,-383.047749
133.534444,6587.832884,7920.203579,-919.314598
133.534764,6291.750507,7920.203579,-919.314598
133.535085,6217.729913,7624.121203,-1072.533697
133.535406,6143.709319,7772.162391,-995.924147
133.535727,5995.668130,7994.224174,-766.095498
133.536048,5921.647536,8512.368333,-612.876398
133.536369,5921.647536,8660.409521,-995.924147
133.536690,5329.482782,8956.491898,-612.876398
133.537011,5033.400406,8438.347739,-1072.533697
133.537331,5033.400406,8438.347739,-689.485948
133.537652,4441.235652,8882.471304,-383.047749
133.537973,4145.153275,8734.430116,-306.438199
133.538294,4219.173869,8438.347739,0.000000
133.538615,3849.070898,9030.512492,-229.828649
133.538936,3404.947333,8956.491898,0.000000
133.539257,3775.050304,9030.512492,536.266849
133.539577,3849.070898,8438.347739,306.438199
133.539898,3775.050304,8660.409521,153.219100
133.540219,3701.029710,8438.347739,153.219100
133.540540,3849.070898,8660.409521,229.828649
133.540861,3775.050304,9178.553681,0.000000
133.541182,4367.215058,9252.574275,-76.609550
133.541503,4737.318029,8734.430116,0.000000
133.541824,4959.379811,8438.347739,383.047749
133.542144,4811.338623,8438.347739,76.609550
133.542465,4885.359217,8068.244768,0.000000
133.542786,5255.462188,7402.059420,229.828649
133.543107,5329.482782,7105.977043,306.438199
133.543428,5699.585753,6809.894666,229.828649
133.543749,5625.565159,6365.771101,229.828649
133.544070,5773.606348,6735.874072,612.876398
133.544390,5551.544565,7105.977043,0.000000
133.544711,6143.709319,7031.956449,-153.219100
133.545032,6365.771101,6809.894666,-306.438199
133.545353,6291.750507,7031.956449,-536.266849
133.545674,6291.750507,7105.977043,-229.828649
133.545995,6291.750507,7846.182985,0.000000
133.546316,5625.565159,7624.121203,229.828649
133.546637,5403.503377,7846.182985,0.000000
133.546957,5255.462188,7698.141797,-306.438199
133.547278,4959.379811,7846.182985,-229.828649
133.547599,4811.338623,7772.162391,0.000000
133.547920,4441.235652,8142.265362,153.219100
133.548241,3775.050304,8068.244768,459.657299
133.548562,3997.112087,8290.306550,536.266849
133.548883,3478.967927,8512.368333,612.876398
133.549203,3478.967927,8956.491898,536.266849
133.549524,3552.988522,8438.347739,459.657299
133.549845,3552.988522,8290.306550,229.828649
133.550166,3701.029710,8438.347739,153.219100
133.550487,3775.050304,8882.471304,229.828649
133.550808,4071.132681,8956.491898,689.485948
133.551129,3997.112087,8882.471304,-76.609550
133.551450,4293.194464,8808.450710,-306.438199
133.551770,4589.276840,8808.450710,-229.828649
133.552091,4737.318029,8364.327145,229.828649
133.552412,5551.544565,8438.347739,0.000000
133.552733,5477.523971,7846.182985,-459.657299
133.553054,5551.544565,7624.121203,-306.438199
133.553375,5551.544565,7550.100608,-536.266849
133.553696,5921.647536,7105.977043,-612.876398
133.554016,6439.791695,7328.038826,-995.924147
133.554337,6809.894666,7402.059420,-612.876398
133.554658,6587.832884,7402.059420,-1072.533697
133.554979,6661.853478,7476.080014,-1378.971896
133.555300,6809.894666,7402.059420,-1302.362347
133.555621,6883.915261,7550.100608,-1685.410096
133.555942,6365.771101,7994.224174,-1149.143247
133.556263,6069.688724,8216.285956,-1149.143247
133.556583,5995.668130,8068.244768,-1378.971896
133.556904,5699.585753,8364.327145,-1532.190996
133.557225,5625.565159,8290.306550,-766.095498
133.557546,5181.441594,8586.388927,-842.705048
133.557867,4367.215058,8586.388927,-995.924147
133.558188,4071.132681,8734.430116,-383.047749
133.558509,3923.091493,9030.512492,0.000000
133.558829,4071.132681,9252.574275,306.438199
133.559150,3627.009116,8956.491898,229.828649
133.559471,3478.967927,8882.471304,0.000000
133.559792,3330.926739,8882.471304,0.000000
133.560113,3404.947333,8512.368333,306.438199
133.560434,3849.070898,8660.409521,0.000000
133.560755,3997.112087,8660.409521,0.000000
133.561076,3997.112087,9326.594869,-229.828649
133.561396,4589.276840,8734.430116,-306.438199
133.561717,4663.297435,8956.491898,0.000000
133.562038,4885.359217,8290.306550,0.000000
133.562359,4885.359217,8216.285956,-229.828649
133.562680,5403.503377,7846.182985,-229.828649
133.563001,5255.462188,7772.162391,0.000000
133.563322,5995.668130,7550.100608,-229.828649
133.563642,5847.626942,6957.935855,0.000000
133.563963,5625.565159,6957.935855,-306.438199
133.564284,5625.565159,7254.018232,-306.438199
133.564605,5773.606348,7105.977043,-459.657299
133.564926,6069.688724,7031.956449,-842.705048
133.565247,6439.791695,7031.956449,-1532.190996
133.565568,6217.729913,7402.059420,-612.876398
133.565889,5921.647536,7476.080014,-306.438199
133.566209,5551.544565,7772.162391,-306.438199
133.566530,5551.544565,7624.121203,-306.438199
133.566851,4811.338623,8068.244768,-306.438199
133.567172,4589.276840,7698.141797,-459.657299
133.567493,4441.235652,7920.203579,-306.438199
133.567814,4071.132681,8142.265362,-383.047749
133.568135,4145.153275,8290.306550,153.219100
133.568455,3552.988522,7994.224174,383.047749
133.568776,3552.988522,8512.368333,536.266849
133.569097,3330.926739,8882.471304,766.095498
133.569418,3182.885551,8882.471304,612.876398
133.569739,3108.864956,8142.265362,536.266849
133.570060,3627.009116,8438.347739,0.000000
133.570381,3775.050304,8290.306550,612.876398
133.570702,4219.173869,8808.450710,0.000000
133.571022,3997.112087,8882.471304,0.000000
133.571343,4219.173869,8808.450710,-612.876398
133.571664,4737.318029,8512.368333,-306.438199
133.571985,5477.523971,8216.285956,153.219100
133.572306,5477.523971,7920.203579,0.000000
133.572627,5625.565159,7772.162391,-229.828649
133.572948,5625.565159,7550.100608,-306.438199
133.573268,6069.688724,7105.977043,-459.657299
133.573589,6217.729913,6883.915261,-459.657299
133.573910,6735.874072,6809.894666,-383.047749
133.574231,6661.853478,7105.977043,-689.485948
133.574552,6957.935855,7031.956449,-1225.752797
133.574873,6957.935855,7105.977043,-1149.143247
133.575194,6661.853478,7105.977043,-1225.752797
133.575515,6587.832884,7402.059420,-842.705048
133.575835,6291.750507,7698.141797,-842.705048
133.576156,6365.771101,8068.244768,-1225.752797
133.576477,5995.668130,8142.265362,-842.705048
133.576798,6069.688724,8438.347739,-1302.362347
133.577119,4959.379811,8290.306550,-1225.752797
133.577440,4811.338623,8586.388927,-1072.533697
133.577761,4737.318029,8438.347739,-536.266849
133.578081,4367.215058,9178.553681,0.000000
133.578402,4367.215058,8808.450710,0.000000
133.578723,3923.091493,9104.533087,0.000000
133.579044,3701.029710,8882.471304,229.828649
133.579365,3552.988522,9326.594869,306.438199
133.579686,3701.029710,8586.388927,612.876398
133.580007,3627.009116,8512.368333,383.047749
133.580328,3775.050304,9104.533087,306.438199
133.580648,3997.112087,9104.533087,0.000000
133.580969,3997.112087,9252.574275,-229.828649
133.581290,4515.256246,8882.471304,0.000000
133.581611,4811.338623,8660.409521,76.609550
133.581932,4885.359217,8586.388927,76.609550
133.582253,4737.318029,8438.347739,0.000000
133.582574,4885.359217,8290.306550,-306.438199
133.582894,5403.503377,7846.182985,153.219100
133.583215,5477.523971,7254.018232,229.828649
133.583536,5551.544565,7105.977043,0.000000
133.583857,5551.544565,7105.977043,0.000000
133.584178,5699.585753,7476.080014,-306.438199
133.584499,5625.565159,7105.977043,-229.828649
133.584820,6069.688724,7105.977043,-612.876398
133.585141,6069.688724,6883.915261,-612.876398
133.585461,6143.709319,7179.997637,-153.219100
133.585782,5847.626942,7328.038826,-383.047749
133.586103,5699.585753,8216.285956,0.000000
133.586424,5403.503377,7402.059420,-306.438199
133.586745,5107.421000,7698.141797,0.000000
133.587066,5181.441594,7476.080014,0.000000
133.587387,4811.338623,7846.182985,-229.828649
133.587708,4293.194464,7624.121203,153.219100
133.588028,4441.235652,8068.244768,459.657299
133.588349,4219.173869,7698.141797,306.438199
133.588670,4367.215058,8216.285956,459.657299
133.588991,3552.988522,8290.306550,689.485948
133.589312,3775.050304,8734.430116,842.705048
133.589633,3108.864956,8364.327145,459.657299
133.589954,3997.112087,8364.327145,766.095498
133.590274,3997.112087,7994.224174,842.705048
133.590595,4071.132681,8660.409521,459.657299
133.590916,4589.276840,8512.368333,0.000000
133.591237,4219.173869,8734.430116,-459.657299
133.591558,4663.297435,8438.347739,-153.219100
133.591879,5181.441594,8290.306550,459.657299
133.592200,5625.565159,7698.141797,383.047749
133.592521,5551.544565,7994.224174,153.219100
133.592841,5625.565159,7550.100608,0.000000
133.593162,5921.647536,7105.977043,-153.219100
133.593483,6291.750507,6661.853478,0.000000
133.593804,6439.791695,6957.935855,0.000000
133.594125,7105.977043,7328.038826,-306.438199
133.594446,7031.956449,7179.997637,-995.924147
133.594767,6957.935855,7328.038826,-1378.971896
133.595087,7179.997637,7105.977043,-1225.752797
133.595408,7179.997637,7328.038826,-383.047749
133.595729,7105.977043,7328.038826,-536.266849
133.596050,6513.812290,7846.182985,-459.657299
133.596371,6217.729913,7994.224174,-766.095498
133.596692,5847.626942,8364.327145,-995.924147
133.597013,5255.462188,8290.306550,-842.705048
133.597334,5107.421000,8438.347739,-536.266849
133.597654,4737.318029,8438.347739,-306.438199
133.597975,4145.153275,8808.450710,-306.438199
133.598296,3552.988522,8956.491898,0.000000
133.598617,3552.988522,9400.615463,383.047749
133.598938,3478.967927,9178.553681,229.828649
133.599259,3034.844362,9474.636058,383.047749
133.599580,3034.844362,9178.553681,536.266849
133.599900,3182.885551,9400.615463,153.219100
133.600221,3404.947333,8956.491898,459.657299
133.600542,3552.988522,9252.574275,153.219100
133.600863,3552.988522,9178.553681,76.609550
133.601184,3923.091493,9252.574275,0.000000
133.601505,4219.173869,9104.533087,153.219100
133.601826,4441.235652,8882.471304,76.609550
133.602147,4663.297435,8512.368333,459.657299
133.602467,5033.400406,8142.265362,0.000000
133.602788,5107.421000,7994.224174,76.609550
133.603109,5329.482782,7624.121203,153.219100
133.603430,5477.523971,7105.977043,0.000000
133.603751,6069.688724,6809.894666,0.000000
133.604072,5921.647536,6883.915261,229.828649
133.604393,5995.668130,7105.977043,-306.438199
133.604713,5773.606348,7105.977043,-612.876398
133.605034,6439.791695,6957.935855,-306.438199
133.605355,6735.874072,7031.956449,0.000000
133.605676,6217.729913,7105.977043,-229.828649
133.605997,5847.626942,7698.141797,0.000000
133.606318,5477.523971,7254.018232,-459.657299
133.606639,5551.544565,7476.080014,0.000000
133.606960,5255.462188,7920.203579,-383.047749
133.607280,5329.482782,7402.059420,-229.828649
133.607601,4811.338623,7550.100608,0.000000
133.607922,4441.235652,7994.224174,76.609550
133.608243,4589.276840,7920.203579,383.047749
133.608564,4737.318029,7698.141797,689.485948
133.608885,4367.215058,8068.244768,229.828649
133.609206,3775.050304,8512.368333,842.705048
133.609526,3775.050304,7920.203579,689.485948
133.609847,3849.070898,8068.244768,766.095498
133.610168,4219.173869,8216.285956,1149.143247
133.610489,4219.173869,8364.327145,689.485948
133.610810,4145.153275,8512.368333,153.219100
133.611131,4293.194464,9030.512492,-383.047749
133.611452,4367.215058,8734.430116,0.000000
133.611773,5403.503377,8438.347739,0.000000
133.612093,5181.441594,7698.141797,229.828649
133.612414,5477.523971,7920.203579,76.609550
133.612735,5551.544565,7846.182985,0.000000
133.613056,5699.585753,7550.100608,-306.438199
133.613377,5477.523971,7105.977043,-306.438199
133.613698,6069.688724,7105.977043,0.000000
133.614019,6365.771101,7179.997637,-229.828649
133.614339,6661.853478,7402.059420,-459.657299
133.614660,6809.894666,7031.956449,-1225.752797
133.614981,6735.874072,7105.977043,-1225.752797
133.615302,6809.894666,7179.997637,-995.924147
133.615623,6513.812290,7920.203579,-766.095498
133.615944,6069.688724,8068.244768,-459.657299
133.616265,6069.688724,8290.306550,-689.485948
133.616586,5921.647536,8660.409521,-1378.971896
133.616906,5107.421000,8586.388927,-1225.752797
133.617227,4811.338623,8364.327145,-766.095498
133.617548,4515.256246,8512.368333,-383.047749
133.617869,4071.132681,9030.512492,-459.657299
133.618190,3775.050304,8882.471304,-459.657299
133.618511,3552.988522,9474.636058,306.438199
133.618832,3478.967927,9326.594869,0.000000
133.619152,2812.782580,9474.636058,383.047749
133.619473,3182.885551,8956.491898,306.438199
133.619794,3182.885551,8956.491898,306.438199
133.620115,3404.947333,8956.491898,229.828649
133.620436,3478.967927,9178.553681,153.219100
133.620757,3404.947333,9252.574275,0.000000
133.621078,4145.153275,8956.491898,76.609550
133.621399,4737.318029,8660.409521,0.000000
133.621719,5107.421000,8660.409521,0.000000
133.622040,4885.359217,8512.368333,0.000000
133.622361,5181.441594,8216.285956,-229.828649
133.622682,5255.462188,7846.182985,-459.657299
133.623003,5773.606348,7772.162391,-153.219100
133.623324,5847.626942,7105.977043,0.000000
133.623645,6069.688724,6809.894666,0.000000
133.623965,6143.709319,6735.874072,-306.438199
133.624286,6587.832884,7031.956449,-536.266849
133.624607,6217.729913,6957.935855,0.000000
133.624928,6513.812290,6809.894666,-919.314598
133.625249,6365.771101,6957.935855,-995.924147
133.625570,6439.791695,7328.038826,-459.657299
133.625891,6143.709319,7179.997637,0.000000
133.626212,5773.606348,7328.038826,0.000000
133.626532,5255.462188,7624.121203,0.000000
133.626853,5033.400406,7698.141797,-383.047749
133.627174,4885.359217,7698.141797,-76.609550
133.627495,4441.235652,7920.203579,0.000000
133.627816,4145.153275,8216.285956,0.000000
133.628137,3849.070898,8364.327145,76.609550
133.628458,3849.070898,8290.306550,306.438199
133.628778,3997.112087,8660.409521,612.876398
133.629099,3404.947333,8956.491898,536.266849
133.629420,3182.885551,8734.430116,536.266849
133.629741,3256.906145,8512.368333,306.438199
133.630062,3775.050304,8364.327145,459.657299
133.630383,3775.050304,8660.409521,229.828649
133.630704,3849.070898,9104.533087,76.609550
133.631025,3923.091493,8956.491898,-766.095498
133.631345,4441.235652,8660.409521,-459.657299
133.631666,4589.276840,8882.471304,-306.438199
133.631987,4959.379811,8364.327145,229.828649
133.632308,4959.379811,8364.327145,306.438199
133.632629,5255.462188,8290.306550,-229.828649
133.632950,5255.462188,7476.080014,-536.266849
133.633271,5773.606348,7179.997637,-766.095498
133.633591,5699.585753,7105.977043,-153.219100
133.633912,6069.688724,7105.977043,-612.876398
133.634233,6439.791695,7328.038826,-995.924147
133.634554,6439.791695,7550.100608,-1149.143247
133.634875,6587.832884,7846.182985,-1302.362347
133.635196,6587.832884,7179.997637,-1072.533697
133.635517,6587.832884,7550.100608,-919.314598
133.635837,6365.771101,7402.059420,-536.266849
133.636158,6291.750507,7994.224174,-1072.533697
133.636479,5847.626942,7994.224174,-1149.143247
133.636800,5699.585753,8290.306550,-1072.533697
133.637121,5255.462188,8068.244768,-995.924147
133.637442,5181.441594,8216.285956,-612.876398
133.637763,4885.359217,8586.388927,-459.657299
133.638083,4293.194464,8586.388927,0.000000
133.638404,3997.112087,8956.491898,0.000000
133.638725,3997.112087,8882.471304,306.438199
133.639046,3849.070898,9104.533087,76.609550
133.639367,3849.070898,8882.471304,0.000000
133.639688,3627.009116,8586.388927,306.438199
133.640009,3775.050304,8734.430116,0.000000
133.640329,3775.050304,8808.450710,229.828649
133.640650,4071.132681,9030.512492,153.219100
133.640971,4219.173869,8660.409521,-383.047749
133.641292,4515.256246,8956.491898,-306.438199
133.641613,4589.276840,8734.430116,-153.219100
133.641934,4959.379811,8512.368333,-153.219100
133.642255,5181.441594,8216.285956,0.000000
133.642575,5181.441594,7846.182985,-153.219100
133.642896,5255.462188,7698.141797,0.000000
133.643217,5699.585753,7105.977043,-383.047749
133.643538,5625.565159,7105.977043,-612.876398
133.643859,6365.771101,6883.915261,0.000000
133.644180,5699.585753,7550.100608,-459.657299
133.644501,5995.668130,7179.997637,-689.485948
133.644822,6143.709319,7105.977043,-919.314598
133.645142,6143.709319,7105.977043,-1149.143247
133.645463,6587.832884,7698.141797,-689.485948
133.645784,6069.688724,7328.038826,0.000000
133.646105,5773.606348,7624.121203,-306.438199
133.646426,5403.503377,7402.059420,-383.047749
133.646747,5403.503377,8290.306550,-612.876398
133.647068,4885.359217,8290.306550,-76.609550
133.647388,4441.235652,8068.244768,-689.485948
133.647709,4145.153275,8290.306550,-459.657299
133.648030,3923.091493,8438.347739,0.000000
133.648351,3701.029710,8216.285956,76.609550
133.648672,3849.070898,8586.388927,306.438199
133.648993,3256.906145,8882.471304,383.047749
133.649314,3330.926739,8882.471304,229.828649
133.649634,3182.885551,8660.409521,229.828649
133.649955,3701.029710,8512.368333,0.000000
133.650276,3849.070898,8586.388927,306.438199
133.650597,3997.112087,9030.512492,383.047749
133.650918,4071.132681,9104.533087,-306.438199
133.651239,3923.091493,9104.533087,-536.266849
133.651560,4293.194464,8660.409521,-229.828649
133.651880,5033.400406,8438.347739,0.000000
133.652201,4959.379811,8216.285956,153.219100
133.652522,5107.421000,8290.306550,0.000000
133.652843,5551.544565,7994.224174,-383.047749
133.653164,5699.585753,7550.100608,-536.266849
133.653485,5921.647536,7105.977043,-306.438199
133.653806,6365.771101,7105.977043,-76.609550
133.654126,6365.771101,7254.018232,-306.438199
133.654447,6661.853478,7105.977043,-689.485948
133.654768,6587.832884,7105.977043,-1225.752797
133.655089,6809.894666,6883.915261,-919.314598
133.655410,6809.894666,7105.977043,-383.047749
133.655731,6957.935855,7179.997637,-306.438199
133.656052,6217.729913,7550.100608,-459.657299
133.656372,6365.771101,7772.162391,-612.876398
133.656693,6217.729913,8438.347739,-919.314598
133.657014,5625.565159,8216.285956,-1378.971896
133.657335,5033.400406,8216.285956,-995.924147
133.657656,4811.338623,7994.224174,-536.266849
133.657977,4515.256246,8586.388927,0.000000
133.658298,4367.215058,8660.409521,76.609550
133.658618,3997.112087,8882.471304,0.000000
133.658939,3775.050304,8808.450710,76.609550
133.659260,3627.009116,8882.471304,306.438199
133.659581,3552.988522,8512.368333,536.266849
133.659902,3775.050304,8586.388927,229.828649
133.660223,4071.132681,8586.388927,153.219100
133.660544,3849.070898,8882.471304,306.438199
133.660864,3923.091493,8734.430116,76.609550
133.661185,4145.153275,8882.471304,0.000000
133.661506,4737.318029,8512.368333,0.000000
133.661827,4811.338623,8808.450710,229.828649
133.662148,4885.359217,8290.306550,76.609550
133.662469,4959.379811,8512.368333,-229.828649
133.662790,5403.503377,7772.162391,0.000000
133.663110,5921.647536,7179.997637,306.438199
133.663431,5625.565159,7179.997637,0.000000
133.663752,5847.626942,6957.935855,76.609550
133.664073,5921.647536,6957.935855,-153.219100
133.664394,6069.688724,7105.977043,-536.266849
133.664715,6217.729913,7476.080014,-459.657299
133.665036,6513.812290,6957.935855,-536.266849
133.665357,6217.729913,7105.977043,-612.876398
133.665677,6143.709319,7550.100608,-306.438199
133.665998,6069.688724,8068.244768,0.000000
133.666319,5329.482782,8142.265362,0.000000
133.666640,4959.379811,8290.306550,-229.828649
133.666961,5033.400406,8142.265362,-76.609550
133.667282,4737.318029,8068.244768,-229.828649
133.667603,4367.215058,8068.244768,76.609550
133.667923,3997.112087,8586.388927,383.047749
133.668244,3701.029710,8512.368333,229.828649
133.668565,3849.070898,8734.430116,306.438199
133.668886,3552.988522,8808.450710,459.657299
133.669207,3849.070898,8364.327145,383.047749
133.669528,3256.906145,8808.450710,459.657299
133.669849,3182.885551,8956.491898,536.266849
133.670169,3552.988522,8364.327145,842.705048
133.670490,3923.091493,8734.430116,689.485948
133.670811,3997.112087,8586.388927,76.609550
133.671132,3997.112087,8586.388927,-306.438199
133.671453,4663.297435,8586.388927,76.609550
133.671774,4811.338623,8660.409521,0.000000
133.672095,5329.482782,7920.203579,306.438199
133.672415,5773.606348,7624.121203,229.828649
133.672736,5847.626942,7476.080014,-536.266849
133.673057,5699.585753,7624.121203,-459.657299
133.673378,5773.606348,7105.977043,0.000000
133.673699,6291.750507,6957.935855,-306.438199
133.674020,6735.874072,6957.935855,0.000000
133.674341,6957.935855,6883.915261,-612.876398
133.674661,6809.894666,7031.956449,-1072.533697
133.674982,7105.977043,6957.935855,-1149.143247
133.675303,6957.935855,7105.977043,-383.047749
133.675624,6809.894666,7031.956449,-459.657299
133.675945,6957.935855,7476.080014,-536.266849
133.676266,6661.853478,7772.162391,-766.095498
133.676587,5921.647536,7772.162391,-459.657299
133.676907,5403.503377,7846.182985,-383.047749
133.677228,5329.482782,8068.244768,-459.657299
133.677549,4885.359217,8290.306550,-459.657299
133.677870,4663.297435,8290.306550,0.000000
133.678191,4219.173869,8364.327145,0.000000
133.678512,3997.112087,8956.491898,383.047749
133.678833,3997.112087,8956.491898,306.438199
133.679153,3775.050304,8956.491898,-153.219100
133.679474,3923.091493,9178.553681,153.219100
133.679795,3404.947333,9178.553681,306.438199
133.680116,3627.009116,8808.450710,306.438199
133.680437,3775.050304,8956.491898,306.438199
133.680758,3849.070898,8808.450710,459.657299
133.681079,3997.112087,9326.594869,0.000000
133.681399,4219.173869,9030.512492,0.000000
133.681720,4737.318029,8734.430116,0.000000
133.682041,4959.379811,8290.306550,229.828649
133.682362,4811.338623,8290.306550,-229.828649
133.682683,4811.338623,7920.203579,76.609550
133.683004,5329.482782,7772.162391,0.000000
133.683325,5551.544565,7476.080014,0.000000
133.683645,5625.565159,7328.038826,0.000000
133.683966,5921.647536,6957.935855,0.000000
133.684287,6069.688724,7179.997637,-153.219100
133.684608,6069.688724,7105.977043,-383.047749
133.684929,6143.709319,7179.997637,-766.095498
133.685250,6069.688724,7254.018232,-536.266849
133.685571,6365.771101,7254.018232,153.219100
133.685892,6143.709319,7476.080014,0.000000
133.686212,5625.565159,8216.285956,-229.828649
133.686533,5329.482782,7920.203579,0.000000
133.686854,5181.441594,8068.244768,0.000000
133.687175,4811.338623,7698.141797,-76.609550
133.687496,4663.297435,7994.224174,-459.657299
133.687817,4145.153275,8068.244768,0.000000
133.688138,3997.112087,8364.327145,306.438199
133.688458,4071.132681,8512.368333,306.438199
133.688779,3775.050304,8512.368333,842.705048
133.689100,3552.988522,8586.388927,229.828649
133.689421,3404.947333,8734.430116,459.657299
133.689742,3034.844362,8586.388927,459.657299
133.690063,3627.009116,8216.285956,383.047749
133.690384,3849.070898,8586.388927,459.657299
133.690704,4071.132681,8882.471304,229.828649
133.691025,4293.194464,8882.471304,0.000000
133.691346,4367.215058,8660.409521,-153.219100
133.691667,4885.359217,8216.285956,0.000000
133.691988,5477.523971,7920.203579,383.047749
133.692309,5403.503377,7772.162391,76.609550
133.692630,5403.503377,7624.121203,0.000000
133.692950,5847.626942,7402.059420,0.000000
133.693271,5847.626942,7105.977043,-306.438199
133.693592,6365.771101,7179.997637,-766.095498
133.693913,6661.853478,6809.894666,-153.219100
133.694234,7031.956449,7031.956449,-536.266849
133.694555,6661.853478,7105.977043,-612.876398
133.694876,7031.956449,6883.915261,-995.924147
133.695196,6809.894666,6957.935855,-383.047749
133.695517,6735.874072,7550.100608,-459.657299
133.695838,6587.832884,7179.997637,-383.047749
133.696159,6513.812290,7550.100608,-383.047749
133.696480,6143.709319,7994.224174,-612.876398
133.696801,5773.606348,7920.203579,-766.095498
133.697122,5181.441594,8216.285956,-842.705048
133.697442,4811.338623,8142.265362,-689.485948
133.697763,4515.256246,8290.306550,-153.219100
133.698084,4663.297435,8734.430116,76.609550
133.698405,4071.132681,9400.615463,229.828649
133.698726,3997.112087,9104.533087,0.000000
133.699047,3330.926739,9178.553681,153.219100
133.699368,3627.009116,8956.491898,306.438199
133.699688,3330.926739,8586.388927,76.609550
133.700009,3701.029710,9178.553681,76.609550
133.700330,3552.988522,8956.491898,229.828649
133.700651,3849.070898,9178.553681,229.828649
133.700972,3775.050304,9400.615463,-153.219100
133.701293,4293.194464,9474.636058,-536.266849
133.701614,4441.235652,9252.574275,0.000000
133.701934,4663.297435,8660.409521,0.000000
133.702255,4811.338623,8512.368333,229.828649
133.702576,4885.359217,7994.224174,-306.438199
133.702897,5107.421000,7846.182985,0.000000
133.703218,5773.606348,7698.141797,153.219100
133.703539,5699.585753,7179.997637,0.000000
133.703860,5699.585753,6957.935855,0.000000
133.704180,5921.647536,7254.018232,0.000000
133.704501,6291.750507,7328.038826,-383.047749
133.704822,5995.668130,7105.977043,-536.266849
133.705143,6365.771101,7105.977043,-383.047749
133.705464,6587.832884,7328.038826,-689.485948
133.705785,6217.729913,7476.080014,-306.438199
133.706106,5921.647536,7994.224174,-459.657299
133.706426,5403.503377,8216.285956,-612.876398
133.706747,5329.482782,8068.244768,-383.047749
133.707068,4959.379811,7846.182985,-459.657299
133.707389,4663.297435,7846.182985,-612.876398
133.707710,4441.235652,7846.182985,0.000000
133.708031,3849.070898,8438.347739,76.609550
133.708352,3552.988522,7920.203579,383.047749
133.708673,3923.091493,8438.347739,383.047749
133.708993,3478.967927,8438.347739,536.266849
133.709314,3256.906145,8808.450710,383.047749
133.709635,3108.864956,8734.430116,536.266849
133.709956,3330.926739,8586.388927,459.657299
133.710277,3404.947333,8734.430116,459.657299
133.710598,3627.009116,9030.512492,0.000000
133.710919,3627.009116,9030.512492,-306.438199
133.711239,3997.112087,9030.512492,-306.438199
133.711560,4441.235652,8438.347739,229.828649
133.711881,4885.359217,8512.368333,0.000000
133.712202,5107.421000,7994.224174,229.828649
133.712523,5181.441594,7920.203579,0.000000
133.712844,5551.544565,8142.265362,383.047749
133.713165,5699.585753,7254.018232,-306.438199
133.713485,6143.709319,7105.977043,-306.438199
133.713806,6513.812290,6883.915261,-383.047749
133.714127,6809.894666,7328.038826,-306.438199
133.714448,6587.832884,7105.977043,-842.705048
133.714769,7031.956449,6883.915261,-1072.533697
133.715090,7328.038826,6809.894666,-1149.143247
133.715411,7105.977043,7105.977043,-1149.143247
133.715731,7254.018232,7328.038826,-1225.752797
133.716052,7105.977043,7476.080014,-842.705048
133.716373,6513.812290,7772.162391,-1149.143247
133.716694,6217.729913,8142.265362,-1072.533697
133.717015,5847.626942,8068.244768,-995.924147
133.717336,5255.462188,8364.327145,-1072.533697
133.717657,4959.379811,7624.121203,-459.657299
133.717977,4367.215058,8734.430116,-383.047749
133.718298,3923.091493,8660.409521,-383.047749
133.718619,3923.091493,9030.512492,0.000000
133.718940,3478.967927,9030.512492,306.438199
133.719261,3256.906145,9548.656652,0.000000
133.719582,3330.926739,8956.491898,0.000000
133.719903,3256.906145,8882.471304,153.219100
133.720223,3478.967927,8882.471304,459.657299
133.720544,3330.926739,9474.636058,536.266849
133.720865,3478.967927,9252.574275,306.438199
133.721186,3849.070898,9326.594869,-306.438199
133.721507,3923.091493,8956.491898,-229.828649
133.721828,4367.215058,9104.533087,76.609550
133.722149,4737.318029,8660.409521,76.609550
133.722469,5329.482782,8660.409521,-383.047749
133.722790,4959.379811,8216.285956,-306.438199
133.723111,5181.441594,7772.162391,0.000000
133.723432,5255.462188,7254.018232,-153.219100
133.723753,5625.565159,7105.977043,-229.828649
133.724074,5699.585753,7031.956449,0.000000
133.724395,5773.606348,7328.038826,-383.047749
133.724715,6069.688724,7105.977043,-1072.533697
133.725036,6365.771101,6809.894666,-842.705048
133.725357,6365.771101,6883.915261,-1072.533697
133.725678,6069.688724,7476.080014,0.000000
133.725999,5921.647536,7698.141797,-306.438199
133.726320,5477.523971,7846.182985,-383.047749
133.726641,5255.462188,7920.203579,-383.047749
133.726961,5107.421000,7624.121203,-306.438199
133.727282,5033.400406,7550.100608,-383.047749
133.727603,4515.256246,7772.162391,-459.657299
133.727924,4219.173869,7846.182985,0.000000
133.728245,4071.132681,8216.285956,0.000000
133.728566,3997.112087,8586.388927,229.828649
133.728887,4293.194464,7994.224174,995.924147
133.729208,3627.009116,8734.430116,306.438199
133.729528,3552.988522,8216.285956,842.705048
133.729849,3404.947333,8364.327145,459.657299
133.730170,3701.029710,7994.224174,383.047749
133.730491,4367.215058,8808.450710,612.876398
133.730812,4145.153275,8660.409521,0.000000
133.731133,4145.153275,8808.450710,-306.438199
133.731454,4589.276840,8364.327145,0.000000
133.731774,4959.379811,8586.388927,229.828649
133.732094,4885.359217,7920.203579,153.219100
133.732415,5477.523971,7920.203579,153.219100
133.732736,5329.482782,7772.162391,-306.438199
133.733057,5847.626942,7550.100608,-689.485948
133.733378,5995.668130,7105.977043,-842.705048
133.733699,6513.812290,6809.894666,-306.438199
133.734020,6439.791695,7476.080014,-536.266849
133.734340,6809.894666,7179.997637,-459.657299
133.734661,6513.812290,7105.977043,-766.095498
133.734982,6735.874072,7105.977043,-1072.533697
133.735303,6957.935855,7624.121203,-1225.752797
133.735624,6661.853478,7328.038826,-766.095498
133.735945,6439.791695,7698.141797,-153.219100
133.736266,6217.729913,7624.121203,-536.266849
133.736587,6069.688724,8216.285956,-689.485948
133.736907,5329.482782,8290.306550,-1608.800546
133.737228,5181.441594,8216.285956,-1072.533697
133.737549,4663.297435,8290.306550,-689.485948
133.737870,4293.194464,8586.388927,-153.219100
133.738191,4293.194464,8734.430116,229.828649
133.738512,3849.070898,9400.615463,153.219100
133.738833,3627.009116,8882.471304,0.000000
133.739153,3182.885551,8882.471304,229.828649
133.739474,3478.967927,8660.409521,229.828649
133.739795,3404.947333,8882.471304,76.609550
133.740116,3775.050304,8660.409521,383.047749
133.740437,3775.050304,9104.533087,229.828649
133.740758,3849.070898,8956.491898,0.000000
133.741079,3923.091493,9178.553681,0.000000
133.741400,4515.256246,9030.512492,-306.438199
133.741720,4663.297435,8882.471304,0.000000
133.742041,4737.318029,8660.409521,76.609550
133.742362,4811.338623,8290.306550,-229.828649
133.742683,5181.441594,7994.224174,-383.047749
133.743004,5181.441594,7550.100608,-153.219100
133.743325,5477.523971,7550.100608,229.828649
133.743646,5625.565159,7031.956449,153.219100
133.743966,5921.647536,7031.956449,0.000000
133.744287,5995.668130,7179.997637,-153.219100
133.744608,6069.688724,7105.977043,-689.485948
133.744929,6365.771101,6883.915261,-459.657299
133.745250,6143.709319,6735.874072,-612.876398
133.745571,6217.729913,7254.018232,-383.047749
133.745892,6069.688724,7328.038826,0.000000
133.746213,5773.606348,7698.141797,0.000000
133.746533,5255.462188,7698.141797,-306.438199
133.746854,5551.544565,7698.141797,0.000000
133.747175,5181.441594,7624.121203,-459.657299
133.747496,4737.318029,7550.100608,-229.828649
133.747817,4589.276840,8142.265362,-229.828649
133.748138,4219.173869,8068.244768,306.438199
133.748459,4145.153275,7994.224174,536.266849
133.748779,4145.153275,8290.306550,689.485948
133.749100,3627.009116,8734.430116,229.828649
133.749421,3775.050304,8660.409521,383.047749
133.749742,3478.967927,8364.327145,306.438199
133.750063,3701.029710,8660.409521,306.438199
133.750384,3849.070898,8882.471304,612.876398
133.750705,4145.153275,8660.409521,459.657299
133.751026,3775.050304,9326.594869,0.000000
133.751346,4293.194464,8586.388927,0.000000
133.751667,4441.235652,8660.409521,153.219100
133.751988,4959.379811,8216.285956,459.657299
133.752309,4811.338623,7920.203579,0.000000
133.752630,5477.523971,7772.162391,0.000000
133.752951,5255.462188,7772.162391,-612.876398
133.753272,5773.606348,7624.121203,-612.876398
133.753592,6291.750507,7254.018232,0.000000
133.753913,6291.750507,7254.018232,0.000000
133.754234,6587.832884,7254.018232,383.047749
133.754555,6587.832884,7105.977043,-689.485948
133.754876,7105.977043,7328.038826,-995.924147
133.755197,6883.915261,6957.935855,-919.314598
133.755518,7179.997637,7328.038826,-229.828649
133.755839,6735.874072,7105.977043,-766.095498
133.756159,6661.853478,7698.141797,-612.876398
133.756480,6291.750507,7846.182985,-919.314598
133.756801,5921.647536,7994.224174,-919.314598
133.757122,5551.544565,7772.162391,-612.876398
133.757443,5255.462188,7994.224174,-383.047749
133.757764,4737.318029,8068.244768,-383.047749
133.758085,4293.194464,8586.388927,-153.219100
133.758405,4071.132681,8512.368333,153.219100
133.758726,3997.112087,8808.450710,229.828649
133.759047,3997.112087,9030.512492,-459.657299
133.759368,3997.112087,8882.471304,229.828649
133.759689,3701.029710,9252.574275,0.000000
133.760010,3849.070898,8882.471304,306.438199
133.760331,3849.070898,8660.409521,306.438199
133.760652,3849.070898,8808.450710,689.485948
133.760972,4071.132681,8956.491898,229.828649
133.761293,4293.194464,8808.450710,0.000000
133.761614,4663.297435,8660.409521,-229.828649
133.761935,4737.318029,8808.450710,0.000000
133.762256,4737.318029,8364.327145,153.219100
133.762577,5033.400406,8142.265362,0.000000
133.762898,5181.441594,8068.244768,0.000000
133.763218,5255.462188,7772.162391,0.000000
133.763539,5329.482782,7105.977043,-766.095498
133.763860,5625.565159,7031.956449,0.000000
133.764181,5773.606348,7254.018232,229.828649
133.764502,5773.606348,7105.977043,0.000000
133.764823,5995.668130,7254.018232,-689.485948
133.765144,5847.626942,6957.935855,-766.095498
133.765465,6143.709319,7624.121203,-919.314598
133.765785,6143.709319,7550.100608,0.000000
133.766106,6069.688724,7772.162391,-459.657299
133.766427,5477.523971,7994.224174,0.000000
133.766748,5403.503377,8216.285956,0.000000
133.767069,4959.379811,7920.203579,-306.438199
133.767390,4959.379811,7624.121203,-306.438199
133.767711,4367.215058,7772.162391,0.000000
133.768031,4515.256246,8068.244768,0.000000
133.768352,4367.215058,8142.265362,0.000000
133.768673,4145.153275,8290.306550,306.438199
133.768994,3627.009116,8660.409521,536.266849
133.769315,3552.988522,8882.471304,689.485948
133.769636,3256.906145,8290.306550,612.876398
133.769957,3552.988522,8364.327145,766.095498
133.770278,3849.070898,8216.285956,536.266849
133.770598,4071.132681,8734.430116,0.000000
133.770919,3849.070898,8808.450710,0.000000
133.771240,4589.276840,8734.430116,76.609550
133.771561,4367.215058,8660.409521,-76.609550
133.771882,5033.400406,8142.265362,229.828649
133.772203,5181.441594,8142.265362,0.000000
133.772524,5551.544565,7994.224174,0.000000
133.772844,5699.585753,7624.121203,76.609550
133.773165,5921.647536,7328.038826,-383.047749
133.773486,5921.647536,7105.977043,-383.047749
133.773807,6513.812290,6883.915261,-229.828649
133.774128,6587.832884,7179.997637,-459.657299
133.774449,6735.874072,7179.997637,-536.266849
133.774770,7105.977043,7105.977043,-766.095498
133.775091,7031.956449,6661.853478,-919.314598
133.775411,7105.977043,7105.977043,-689.485948
133.775732,6661.853478,7179.997637,-612.876398
133.776053,6365.771101,7994.224174,0.000000
133.776374,6217.729913,7920.203579,-612.876398
133.776695,5847.626942,8512.368333,-995.924147
133.777016,5107.421000,8364.327145,-1149.143247
133.777337,5107.421000,8142.265362,-689.485948
133.777657,4737.318029,8364.327145,0.000000
133.777978,4441.235652,8956.491898,0.000000
133.778299,3478.967927,9030.512492,0.000000
133.778620,3627.009116,9252.574275,153.219100
133.778941,3108.864956,9030.512492,0.000000
133.779262,3552.988522,9104.533087,689.485948
133.779583,3404.947333,8808.450710,383.047749
133.779903,3330.926739,8956.491898,76.609550
133.780224,3256.906145,9104.533087,153.219100
133.780545,3627.009116,9622.677246,153.219100
133.780866,3923.091493,9178.553681,0.000000
133.781187,4219.173869,8956.491898,153.219100
133.781508,4589.276840,9178.553681,0.000000
133.781829,4737.318029,9030.512492,229.828649
133.782150,4663.297435,8512.368333,-229.828649
133.782470,5181.441594,8142.265362,0.000000
133.782791,5033.400406,7772.162391,0.000000
133.783112,5477.523971,7476.080014,0.000000
133.783433,5625.565159,7179.997637,76.609550
133.783754,5847.626942,7105.977043,76.609550
133.784075,5921.647536,7105.977043,0.000000
133.784396,6217.729913,7179.997637,-383.047749
133.784716,6217.729913,7105.977043,-536.266849
133.785037,6365.771101,6957.935855,-689.485948
133.785358,6217.729913,6883.915261,-766.095498
133.785679,6439.791695,7105.977043,-536.266849
133.786000,5995.668130,7550.100608,0.000000
133.786321,5847.626942,7624.121203,0.000000
133.786642,5699.585753,7772.162391,-153.219100
133.786963,5033.400406,7624.121203,-383.047749
133.787283,5107.421000,7550.100608,-383.047749
133.787604,4589.276840,7476.080014,0.000000
133.787925,4367.215058,7920.203579,229.828649
133.788246,4219.173869,7846.182985,153.219100
133.788567,3923.091493,8216.285956,153.219100
133.788888,3923.091493,8660.409521,383.047749
133.789209,3404.947333,8660.409521,306.438199
133.789529,3404.947333,8438.347739,306.438199
133.789850,3330.926739,8956.491898,383.047749
133.790171,3849.070898,8586.388927,229.828649
133.790492,3849.070898,8956.491898,229.828649
133.790813,3923.091493,9178.553681,0.000000
133.791134,3923.091493,9178.553681,-536.266849
133.791455,3997.112087,8882.471304,-153.219100
133.791776,4737.318029,8586.388927,0.000000
133.792096,4811.338623,8142.265362,383.047749
133.792417,5033.400406,7920.203579,153.219100
133.792738,5329.482782,7846.182985,229.828649
133.793059,5329.482782,7698.141797,-306.438199
133.793380,5625.565159,7179.997637,-306.438199
133.793701,6217.729913,7031.956449,-229.828649
133.794022,6661.853478,7179.997637,-383.047749
133.794342,6883.915261,7624.121203,-689.485948
133.794663,6809.894666,7179.997637,-842.705048
133.794984,7254.018232,7179.997637,-1455.581446
133.795305,7105.977043,7105.977043,-1072.533697
133.795626,7179.997637,7105.977043,-995.924147
133.795947,6957.935855,7624.121203,-1149.143247
133.796268,6735.874072,7550.100608,-1072.533697
133.796589,6365.771101,7920.203579,-1072.533697
133.796909,6069.688724,7772.162391,-1072.533697
133.797230,5995.668130,8142.265362,-1225.752797
133.797551,5255.462188,7846.182985,-459.657299
133.797872,4737.318029,8290.306550,-306.438199
133.798193,4441.235652,7920.203579,0.000000
133.798514,4219.173869,8586.388927,-153.219100
133.798835,4219.173869,8660.409521,76.609550
133.799155,3923.091493,9252.574275,153.219100
133.799476,3627.009116,9252.574275,76.609550
133.799797,3627.009116,9104.533087,0.000000
133.800118,3701.029710,8808.450710,459.657299
133.800439,3701.029710,9178.553681,306.438199
133.800760,3552.988522,9252.574275,383.047749
133.801081,3552.988522,9178.553681,0.000000
133.801402,3775.050304,9252.574275,-153.219100
133.801722,4071.132681,9178.553681,0.000000
133.802043,4441.235652,9104.533087,0.000000
133.802364,4219.173869,8660.409521,0.000000
133.802685,4441.235652,8364.327145,229.828649
133.803006,4663.297435,8068.244768,0.000000
133.803327,4885.359217,7698.141797,229.828649
133.803648,5033.400406,7254.018232,229.828649
133.803968,5329.482782,7105.977043,76.609550
133.804289,5477.523971,7402.059420,0.000000
133.804610,5551.544565,7254.018232,-306.438199
133.804931,5847.626942,7328.038826,-766.095498
133.805252,6069.688724,7328.038826,-459.657299
133.805573,6143.709319,7254.018232,-459.657299
133.805894,5995.668130,7476.080014,-306.438199
133.806215,5773.606348,7846.182985,-153.219100
133.806535,5625.565159,7920.203579,-306.438199
133.806856,5625.565159,7920.203579,-766.095498
133.807177,4737.318029,7624.121203,-536.266849
133.807498,5033.400406,7402.059420,-459.657299
133.807819,4589.276840,7698.141797,-536.266849
133.808140,4589.276840,7772.162391,153.219100
133.808461,4589.276840,8068.244768,459.657299
133.808781,4367.215058,8142.265362,459.657299
133.809102,3997.112087,8290.306550,536.266849
133.809423,3923.091493,8142.265362,459.657299
133.809744,3404.947333,8142.265362,0.000000
133.810065,3997.112087,8512.368333,153.219100
133.810386,3997.112087,8364.327145,459.657299
133.810707,4145.153275,8364.327145,306.438199
133.811028,4219.173869,8808.450710,-459.657299
133.811348,4589.276840,8660.409521,-383.047749
133.811669,4737.318029,8290.306550,-153.219100
133.811990,5329.482782,7994.224174,0.000000
133.812311,5329.482782,7920.203579,306.438199
133.812632,5625.565159,7698.141797,0.000000
133.812953,5995.668130,7772.162391,76.609550
133.813274,5773.606348,7105.977043,-766.095498
133.813594,6143.709319,6957.935855,-306.438199
133.813915,6587.832884,7105.977043,-306.438199
133.814236,6735.874072,7254.018232,-459.657299
133.814557,6809.894666,7254.018232,-1149.143247
133.814878,6883.915261,7105.977043,-995.924147
133.815199,6587.832884,7031.956449,-1149.143247
133.815520,6735.874072,7328.038826,-919.314598
133.815841,6439.791695,7550.100608,-612.876398
133.816161,6217.729913,8364.327145,-612.876398
133.816482,5921.647536,8290.306550,-536.266849
133.816803,5699.585753,8882.471304,-1225.752797
133.817124,5033.400406,8660.409521,-842.705048
133.817445,4737.318029,8734.430116,-612.876398
133.817766,4219.173869,8660.409521,-306.438199
133.818087,4145.153275,8734.430116,0.000000
133.818407,3552.988522,9400.615463,0.000000
133.818728,3404.947333,9326.594869,229.828649
133.819049,3034.844362,9326.594869,459.657299
133.819370,3256.906145,9104.533087,919.314598
133.819691,3034.844362,8956.491898,76.609550
133.820012,3627.009116,8808.450710,383.047749
133.820333,3404.947333,8808.450710,306.438199
133.820654,3404.947333,9252.574275,153.219100
133.820974,3775.050304,9178.553681,153.219100
133.821295,4145.153275,9104.533087,-153.219100
133.821616,4737.318029,8882.471304,0.000000
133.821937,4737.318029,8512.368333,153.219100
133.822258,4737.318029,8660.409521,0.000000
133.822579,5033.400406,7994.224174,0.000000
133.822900,5255.462188,7698.141797,-229.828649
133.823220,5551.544565,7105.977043,612.876398
133.823541,5773.606348,7031.956449,536.266849
133.823862,5773.606348,6809.894666,-76.609550
133.824183,5995.668130,7105.977043,0.000000
133.824504,6143.709319,6809.894666,-459.657299
133.824825,6439.791695,6661.853478,-842.705048
133.825146,6735.874072,6513.812290,-536.266849
133.825467,6587.832884,6809.894666,-612.876398
133.825787,6143.709319,7105.977043,0.000000
133.826108,5995.668130,7402.059420,0.000000
133.826429,5699.585753,7550.100608,0.000000
133.826750,5773.606348,7846.182985,-229.828649
133.827071,5181.441594,7550.100608,-306.438199
133.827392,4885.359217,7994.224174,-383.047749
133.827713,4589.276840,7624.121203,0.000000
133.828033,4441.235652,7698.141797,229.828649
133.828354,4219.173869,7846.182985,459.657299
133.828675,3997.112087,8216.285956,689.485948
133.828996,3775.050304,8438.347739,536.266849
133.829317,3478.967927,8586.388927,612.876398
133.829638,3478.967927,8956.491898,842.705048
133.829959,3997.112087,8438.347739,0.000000
133.830280,3478.967927,8512.368333,689.485948
133.830600,3552.988522,9030.512492,153.219100
133.830921,3775.050304,8956.491898,0.000000
133.831242,4145.153275,9178.553681,-306.438199
133.831563,4293.194464,9030.512492,0.000000
133.831884,4959.379811,8734.430116,229.828649
133.832205,5033.400406,8364.327145,306.438199
133.832526,5255.462188,8142.265362,0.000000
133.832847,5551.544565,7772.162391,229.828649
133.833168,5773.606348,7550.100608,0.000000
133.833488,5921.647536,7105.977043,-153.219100
133.833809,6365.771101,7105.977043,0.000000
133.834130,6883.915261,7179.997637,-306.438199
133.834451,6883.915261,7254.018232,-612.876398
133.834772,7254.018232,7624.121203,-612.876398
133.835093,6883.915261,7105.977043,-919.314598
133.835414,6809.894666,7105.977043,-842.705048
133.835735,6883.915261,7179.997637,-689.485948
133.836056,6365.771101,7994.224174,-612.876398
133.836377,6661.853478,7920.203579,-1225.752797
133.836698,6217.729913,8364.327145,-995.924147
133.837018,5625.565159,8142.265362,-689.485948
133.837339,5329.482782,8290.306550,-689.485948
133.837660,4737.318029,7994.224174,-306.438199
133.837981,4737.318029,8068.244768,-383.047749
133.838302,3701.029710,8142.265362,-306.438199
133.838623,3627.009116,8882.471304,0.000000
133.838944,3552.988522,8808.450710,153.219100
133.839265,3404.947333,9104.533087,459.657299
133.839586,3330.926739,9104.533087,153.219100
133.839907,3256.906145,9252.574275,536.266849
133.840228,3330.926739,8882.471304,536.266849
133.840548,3552.988522,8956.491898,229.828649
133.840869,3552.988522,8808.450710,383.047749
133.841190,3849.070898,8882.471304,0.000000
133.841511,4293.194464,8808.450710,-153.219100
133.841832,4663.297435,8808.450710,0.000000
133.842153,4959.379811,8660.409521,76.609550
133.842474,5181.441594,8216.285956,459.657299
133.842795,5033.400406,8216.285956,383.047749
133.843116,5625.565159,7698.141797,153.219100
133.843437,5995.668130,7031.956449,0.000000
133.843757,5699.585753,7031.956449,0.000000
133.844078,5921.647536,6883.915261,0.000000
133.844399,6291.750507,7031.956449,-459.657299
133.844720,6143.709319,6957.935855,-459.657299
133.845041,6365.771101,7031.956449,-612.876398
133.845362,6587.832884,6957.935855,-689.485948
133.845683,6143.709319,7254.018232,0.000000
133.846004,5995.668130,7772.162391,153.219100
133.846325,5625.565159,7846.182985,-383.047749
133.846646,5477.523971,7550.100608,76.609550
133.846967,4959.379811,7698.141797,-229.828649
133.847287,4811.338623,7772.162391,-306.438199
133.847608,4737.318029,7772.162391,-383.047749
133.847929,4441.235652,8068.244768,0.000000
133.848250,4293.194464,7846.182985,153.219100
133.848571,4145.153275,8364.327145,306.438199
133.848892,3701.029710,8364.327145,536.266849
133.849213,3552.988522,8586.388927,919.314598
133.849534,3552.988522,8364.327145,536.266849
133.849855,3552.988522,8438.347739,383.047749
133.850176,3997.112087,8142.265362,153.219100
133.850497,3997.112087,8586.388927,459.657299
133.850817,4145.153275,9030.512492,0.000000
133.851138,4441.235652,8882.471304,-536.266849
133.851459,4367.215058,8660.409521,-153.219100
133.851780,4885.359217,8364.327145,0.000000
133.852101,5329.482782,7994.224174,229.828649
133.852422,5477.523971,8216.285956,-153.219100
133.852743,5403.503377,7920.203579,0.000000
133.853064,6069.688724,7550.100608,-306.438199
133.853385,5625.565159,7328.038826,-766.095498
133.853706,5995.668130,7402.059420,-229.828649
133.854027,6143.709319,7402.059420,-995.924147
133.854347,6365.771101,7402.059420,-459.657299
133.854668,6809.894666,7328.038826,-842.705048
133.854989,6661.853478,7105.977043,-995.924147
133.855310,6365.771101,7254.018232,-1072.533697
133.855631,6217.729913,7772.162391,-1072.533697
133.855952,6217.729913,7328.038826,-689.485948
133.856273,5995.668130,8142.265362,-842.705048
133.856594,5773.606348,8512.368333,-919.314598
133.856915,5551.544565,8364.327145,-995.924147
133.857236,4885.359217,8438.347739,-612.876398
133.857556,4589.276840,8660.409521,-306.438199
133.857877,4367.215058,8512.368333,0.000000
133.858198,4145.153275,8660.409521,0.000000
133.858519,3923.091493,8956.491898,0.000000
133.858840,3552.988522,9252.574275,689.485948
133.859161,3552.988522,9178.553681,459.657299
133.859482,3701.029710,8882.471304,229.828649
133.859803,3330.926739,8882.471304,76.609550
133.860124,3701.029710,8808.450710,229.828649
133.860445,3256.906145,8808.450710,766.095498
133.860766,3775.050304,8956.491898,153.219100
133.861086,3923.091493,9252.574275,0.000000
133.861407,4441.235652,8808.450710,-459.657299
133.861728,4737.318029,8882.471304,-612.876398
133.862049,4885.359217,8734.430116,-306.438199
133.862370,4959.379811,8290.306550,-536.266849
133.862691,5255.462188,8068.244768,-689.485948
133.863012,5403.503377,7550.100608,0.000000
133.863333,5551.544565,7031.956449,76.609550
133.863654,5995.668130,7105.977043,-612.876398
133.863975,5773.606348,7031.956449,-383.047749
133.864296,6143.709319,7105.977043,-306.438199
133.864616,6217.729913,6883.915261,-459.657299
133.864937,6513.812290,6883.915261,-766.095498
133.865258,6587.832884,6809.894666,-842.705048
133.865579,6809.894666,7179.997637,-919.314598
133.865900,5773.606348,7254.018232,-536.266849
133.866221,5773.606348,7698.141797,-229.828649
133.866542,5699.585753,7920.203579,0.000000
133.866863,5329.482782,7920.203579,-689.485948
133.867184,5255.462188,7698.141797,-689.485948
133.867505,4737.318029,7846.182985,-383.047749
133.867825,4589.276840,7920.203579,0.000000
133.868146,4145.153275,7920.203579,306.438199
133.868467,3701.029710,8438.347739,383.047749
133.868788,3923.091493,8586.388927,612.876398
133.869109,3552.988522,8808.450710,459.657299
133.869430,3404.947333,8586.388927,459.657299
133.869751,3552.988522,8734.430116,383.047749
133.870072,3404.947333,8364.327145,306.438199
133.870393,3478.967927,8734.430116,536.266849
133.870714,3849.070898,9104.533087,76.609550
133.871035,3701.029710,9178.553681,-229.828649
133.871355,3849.070898,8734.430116,-383.047749
133.871676,4663.297435,8808.450710,0.000000
133.871997,5107.421000,8438.347739,383.047749
133.872318,4885.359217,8142.265362,0.000000
133.872639,5477.523971,8068.244768,0.000000
133.872960,5551.544565,7550.100608,-229.828649
133.873281,6069.688724,7105.977043,-383.047749
133.873602,6365.771101,7105.977043,-383.047749
133.873923,6587.832884,6957.935855,-229.828649
133.874244,7031.956449,7031.956449,-612.876398
133.874565,7179.997637,7031.956449,-842.705048
133.874885,7105.977043,7105.977043,-1072.533697
133.875206,7328.038826,6883.915261,-1378.971896
133.875527,7328.038826,6735.874072,-1225.752797
133.875848,7105.977043,7105.977043,-842.705048
133.876169,6883.915261,7328.038826,-1072.533697
133.876490,6587.832884,7994.224174,-919.314598
133.876811,6365.771101,7624.121203,-1302.362347
133.877132,5625.565159,7846.182985,-995.924147
133.877453,5255.462188,8216.285956,-995.924147
133.877774,4515.256246,8068.244768,-919.314598
133.878094,4515.256246,8512.368333,-612.876398
133.878415,3775.050304,8808.450710,-76.609550
133.878736,3404.947333,9030.512492,0.000000
133.879057,3256.906145,9178.553681,76.609550
133.879378,3034.844362,9474.636058,0.000000
133.879699,2664.741391,9622.677246,-153.219100
133.880020,3108.864956,9178.553681,76.609550
133.880341,3108.864956,9326.594869,536.266849
133.880662,3108.864956,9326.594869,459.657299
133.880983,3034.844362,9844.739029,153.219100
133.881304,3404.947333,9400.615463,459.657299
133.881624,3923.091493,9104.533087,-229.828649
133.881945,3923.091493,9178.553681,0.000000
133.882266,4663.297435,8808.450710,536.266849
133.882587,4663.297435,8290.306550,76.609550
133.882908,5329.482782,8290.306550,-229.828649
133.883229,5255.462188,7698.141797,76.609550
133.883550,5255.462188,7328.038826,-153.219100
133.883871,5699.585753,7105.977043,229.828649
133.884192,6143.709319,7402.059420,0.000000
133.884513,5921.647536,7254.018232,-612.876398
133.884834,6217.729913,7254.018232,-842.705048
133.885154,6365.771101,7105.977043,-995.924147
133.885475,6365.771101,7254.018232,-766.095498
133.885796,6143.709319,7328.038826,-306.438199
133.886117,5921.647536,7328.038826,0.000000
133.886438,5773.606348,7624.121203,-383.047749
133.886759,5403.503377,8142.265362,-306.438199
133.887080,5033.400406,7920.203579,-306.438199
133.887401,4737.318029,7698.141797,-306.438199
133.887722,4441.235652,7105.977043,-229.828649
133.888043,4367.215058,7920.203579,-229.828649
133.888363,3775.050304,7772.162391,306.438199
133.888684,4145.153275,8216.285956,229.828649
133.889005,3627.009116,8216.285956,842.705048
133.889326,3627.009116,8734.430116,919.314598
133.889647,3330.926739,8142.265362,612.876398
133.889968,4071.132681,7920.203579,459.657299
133.890289,3701.029710,7994.224174,383.047749
133.890610,4219.173869,8438.347739,536.266849
133.890931,3923.091493,8586.388927,76.609550
133.891252,4441.235652,8882.471304,-536.266849
133.891573,4589.276840,8438.347739,-76.609550
133.891893,4811.338623,7994.224174,0.000000
133.892214,5107.421000,7698.141797,76.609550
133.892535,5551.544565,7846.182985,0.000000
133.892856,5477.523971,7920.203579,-153.219100
133.893177,5847.626942,7402.059420,-306.438199
133.893498,6069.688724,7105.977043,-689.485948
133.893819,6439.791695,6809.894666,-459.657299
133.894140,7031.956449,7328.038826,-459.657299
133.894461,6513.812290,7328.038826,-612.876398
133.894782,6661.853478,7105.977043,-536.266849
133.895103,6957.935855,6957.935855,-1149.143247
133.895423,6883.915261,7105.977043,-995.924147
133.895744,7179.997637,7624.121203,-919.314598
133.896065,6513.812290,7846.182985,-689.485948
133.896386,6513.812290,8068.244768,-766.095498
133.896707,6069.688724,8734.430116,-995.924147
133.897028,5699.585753,8956.491898,-1455.581446
133.897349,5477.523971,8734.430116,-612.876398
133.897670,4811.338623,8216.285956,-229.828649
133.897991,4441.235652,8512.368333,-76.609550
133.898312,3701.029710,8808.450710,0.000000
133.898632,3775.050304,9178.553681,0.000000
133.898953,3849.070898,9178.553681,153.219100
133.899274,3552.988522,9178.553681,689.485948
133.899595,3256.906145,9030.512492,229.828649
133.899916,3256.906145,9104.533087,0.000000
133.900237,3256.906145,9400.615463,0.000000
133.900558,3552.988522,9474.636058,536.266849
133.900879,3330.926739,9326.594869,153.219100
133.901200,3849.070898,9474.636058,229.828649
133.901521,4071.132681,9326.594869,76.609550
133.901842,4589.276840,9252.574275,0.000000
133.902162,4219.173869,8956.491898,0.000000
133.902483,4589.276840,8512.368333,-153.219100
133.902804,4737.318029,8364.327145,0.000000
133.903125,5181.441594,7624.121203,0.000000
133.903446,4737.318029,7402.059420,612.876398
133.903767,4885.359217,7328.038826,383.047749
133.904088,5625.565159,7402.059420,0.000000
133.904409,5847.626942,7179.997637,-229.828649
133.904730,6143.709319,7031.956449,-383.047749
133.905051,6439.791695,6513.812290,-459.657299
133.905372,6661.853478,7105.977043,-766.095498
133.905692,6661.853478,6735.874072,-536.266849
133.906013,6217.729913,7328.038826,-306.438199
133.906334,5847.626942,7476.080014,0.000000
133.906655,5699.585753,7846.182985,-459.657299
133.906976,5625.565159,8068.244768,-229.828649
133.907297,5181.441594,7624.121203,-612.876398
133.907618,4885.359217,7402.059420,0.000000
133.907939,4589.276840,7476.080014,0.000000
133.908260,4219.173869,7772.162391,229.828649
133.908581,4663.297435,8068.244768,536.266849
133.908901,3849.070898,8068.244768,612.876398
133.909222,3701.029710,8586.388927,612.876398
133.909543,3404.947333,8290.306550,766.095498
133.909864,3775.050304,8364.327145,766.095498
133.910185,3775.050304,8364.327145,0.000000
133.910506,4145.153275,8512.368333,0.000000
133.910827,4219.173869,9030.512492,0.000000
133.911148,4219.173869,9178.553681,-306.438199
133.911469,4441.235652,8882.471304,0.000000
133.911790,5033.400406,8882.471304,229.828649
133.912111,5033.400406,8068.244768,459.657299
133.912431,5403.503377,7994.224174,229.828649
133.912752,5625.565159,7402.059420,153.219100
133.913073,5995.668130,7254.018232,0.000000
133.913394,5921.647536,7105.977043,-76.609550
133.913715,6217.729913,6957.935855,76.609550
133.914036,6513.812290,7179.997637,-229.828649
133.914357,6957.935855,7328.038826,-153.219100
133.914678,7031.956449,7328.038826,-766.095498
133.914999,6957.935855,7105.977043,-919.314598
133.915320,7105.977043,7105.977043,-1149.143247
133.915641,7105.977043,7105.977043,-1225.752797
133.915961,6883.915261,7550.100608,-842.705048
133.916282,6365.771101,7994.224174,-306.438199
133.916603,6587.832884,8290.306550,-1532.190996
133.916924,5847.626942,8290.306550,-1378.971896
133.917245,5181.441594,8438.347739,-1072.533697
133.917566,4737.318029,8142.265362,-612.876398
133.917887,4515.256246,8364.327145,-612.876398
133.918208,4145.153275,8734.430116,0.000000
133.918529,3552.988522,9104.533087,-76.609550
133.918850,3478.967927,8882.471304,0.000000
133.919170,3182.885551,9252.574275,0.000000
133.919491,2960.823768,9400.615463,459.657299
133.919812,3034.844362,9400.615463,229.828649
133.920133,3330.926739,9030.512492,306.438199
133.920454,3478.967927,9252.574275,612.876398
133.920775,3256.906145,9474.636058,76.609550
133.921096,3552.988522,9844.739029,0.000000
133.921417,3849.070898,9326.594869,0.000000
133.921738,4145.153275,9326.594869,-76.609550
133.922059,4441.235652,8882.471304,0.000000
133.922380,4737.318029,8660.409521,0.000000
133.922700,5181.441594,8364.327145,-153.219100
133.923021,5181.441594,8290.306550,0.000000
133.923342,5255.462188,7624.121203,0.000000
133.923663,5699.585753,6957.935855,0.000000
133.923984,5921.647536,6883.915261,76.609550
133.924305,5921.647536,7476.080014,0.000000
133.924626,6291.750507,6957.935855,-229.828649
133.924947,6587.832884,6809.894666,-766.095498
133.925268,6587.832884,6661.853478,-689.485948
133.925589,6661.853478,6661.853478,-153.219100
133.925910,6291.750507,7179.997637,76.609550
133.926230,6439.791695,7402.059420,-383.047749
133.926551,6069.688724,7254.018232,-306.438199
133.926872,5921.647536,7550.100608,-153.219100
133.927193,5477.523971,7402.059420,-536.266849
133.927514,5625.565159,7254.018232,-612.876398
133.927835,5033.400406,7476.080014,-306.438199
133.928156,4589.276840,7550.100608,0.000000
133.928477,4515.256246,7698.141797,229.828649
133.928798,3997.112087,7994.224174,842.705048
133.929119,3552.988522,8586.388927,766.095498
133.929439,3330.926739,8142.265362,842.705048
133.929760,3627.009116,8068.244768,306.438199
133.930081,3775.050304,7920.203579,536.266849
133.930402,3997.112087,8216.285956,536.266849
133.930723,3923.091493,8512.368333,0.000000
133.931044,4219.173869,8586.388927,-306.438199
133.931365,4293.194464,8734.430116,-76.609550
133.931686,4663.297435,8438.347739,0.000000
133.932007,5033.400406,8216.285956,0.000000
133.932328,5107.421000,8290.306550,0.000000
133.932649,5403.503377,8216.285956,-306.438199
133.932969,5625.565159,7920.203579,-766.095498
133.933290,5625.565159,7476.080014,-459.657299
133.933611,5847.626942,7328.038826,-153.219100
133.933932,6291.750507,7179.997637,-229.828649
133.934253,6513.812290,7698.141797,-459.657299
133.934574,6587.832884,7402.059420,-1072.533697
133.934895,6809.894666,7476.080014,-1225.752797
133.935216,6587.832884,7254.018232,-1149.143247
133.935537,6957.935855,7550.100608,-995.924147
133.935858,6143.709319,7846.182985,-536.266849
133.936179,6439.791695,7920.203579,-689.485948
133.936500,5699.585753,8438.347739,-842.705048
133.936820,5773.606348,8734.430116,-995.924147
133.937141,4811.338623,8808.450710,-1072.533697
133.937462,4811.338623,8438.347739,-766.095498
133.937783,4589.276840,8586.388927,-306.438199
133.938104,4071.132681,8808.450710,0.000000
133.938425,3775.050304,9326.594869,153.219100
133.938746,3404.947333,9844.739029,0.000000
133.939067,3034.844362,9326.594869,229.828649
133.939388,3256.906145,9252.574275,766.095498
133.939709,2886.803174,8882.471304,536.266849
133.940030,3256.906145,8882.471304,995.924147
133.940350,3404.947333,8956.491898,536.266849
133.940671,3552.988522,9178.553681,76.609550
133.940992,3627.009116,9178.553681,0.000000
133.941313,3997.112087,8512.368333,0.000000
133.941634,4441.235652,8734.430116,0.000000
133.941955,4145.153275,8660.409521,-459.657299
133.942276,4737.318029,8216.285956,-76.609550
133.942597,5181.441594,7846.182985,-306.438199
133.942918,5403.503377,7698.141797,-229.828649
133.943239,5551.544565,7105.977043,306.438199
133.943560,5773.606348,7179.997637,0.000000
133.943881,5773.606348,6809.894666,0.000000
133.944201,6143.709319,6957.935855,-383.047749
133.944522,6143.709319,6957.935855,-459.657299
133.944843,6661.853478,6957.935855,-612.876398
133.945164,6365.771101,6217.729913,-306.438199
133.945485,6883.915261,6957.935855,-995.924147
133.945806,6217.729913,7105.977043,0.000000
133.946127,6217.729913,7254.018232,0.000000
133.946448,6069.688724,7698.141797,-229.828649
133.946769,5773.606348,7624.121203,-383.047749
133.947090,5255.462188,7550.100608,-459.657299
133.947411,4959.379811,7624.121203,-536.266849
133.947732,4515.256246,7772.162391,-536.266849
133.948052,4589.276840,7846.182985,536.266849
133.948373,4367.215058,8068.244768,383.047749
133.948694,4293.194464,8142.265362,383.047749
133.949015,3775.050304,8438.347739,229.828649
133.949336,3849.070898,8882.471304,153.219100
133.949657,3627.009116,8290.306550,306.438199
133.949978,4219.173869,8290.306550,229.828649
133.950299,3775.050304,8734.430116,0.000000
133.950620,4367.215058,8734.430116,0.000000
133.950941,4071.132681,9104.533087,-306.438199
133.951262,4145.153275,9252.574275,-229.828649
133.951583,4367.215058,9104.533087,-306.438199
133.951903,4885.359217,8512.368333,306.438199
133.952224,5181.441594,8290.306550,383.047749
133.952545,5255.462188,7994.224174,459.657299
133.952866,5329.482782,7920.203579,-229.828649
133.953187,5625.565159,7328.038826,-229.828649
133.953508,5699.585753,7179.997637,-536.266849
133.953829,5847.626942,7254.018232,76.609550
133.954150,5921.647536,7772.162391,0.000000
133.954471,6365.771101,7254.018232,-536.266849
133.954792,6809.894666,7698.141797,-842.705048
133.955113,6661.853478,7179.997637,-919.314598
133.955434,6587.832884,7476.080014,-919.314598
133.955754,6513.812290,7550.100608,-842.705048
133.956075,6217.729913,7846.182985,-919.314598
133.956396,5995.668130,8142.265362,-1072.533697
133.956717,5699.585753,8438.347739,-919.314598
133.957038,5329.482782,8216.285956,-842.705048
133.957359,4959.379811,8216.285956,-919.314598
133.957680,4589.276840,7846.182985,-229.828649
133.958001,4071.132681,8290.306550,-153.219100
133.958322,4219.173869,8068.244768,0.000000
133.958643,3923.091493,8586.388927,-229.828649
133.958964,3627.009116,8882.471304,76.609550
133.959284,3775.050304,9178.553681,0.000000
133.959605,3552.988522,9252.574275,-153.219100
133.959926,3552.988522,9252.574275,153.219100
133.960247,3552.988522,8882.471304,306.438199
133.960568,3775.050304,8956.491898,306.438199
133.960889,3478.967927,9178.553681,229.828649
133.961210,3997.112087,9030.512492,0.000000
133.961531,4293.194464,9030.512492,-306.438199
133.961852,4441.235652,8734.430116,0.000000
133.962173,4737.318029,8142.265362,153.219100
133.962494,4811.338623,8142.265362,306.438199
133.962815,4959.379811,7846.182985,153.219100
133.963135,5329.482782,7624.121203,383.047749
133.963456,5551.544565,7105.977043,0.000000
133.963777,5625.565159,6587.832884,76.609550
133.964098,6143.709319,7031.956449,0.000000
133.964419,6439.791695,7105.977043,-153.219100
133.964740,6439.791695,7328.038826,-229.828649
133.965061,6291.750507,6587.832884,-689.485948
133.965382,6513.812290,6809.894666,-919.314598
133.965703,6439.791695,7254.018232,-612.876398
133.966024,6069.688724,7698.141797,-383.047749
133.966345,6069.688724,7624.121203,-229.828649
133.966666,5847.626942,7624.121203,-306.438199
133.966986,5477.523971,7624.121203,-229.828649
133.967307,5403.503377,7402.059420,-459.657299
133.967628,4737.318029,7402.059420,-536.266849
133.967949,4737.318029,7476.080014,-229.828649
133.968270,4367.215058,7994.224174,0.000000
133.968591,4515.256246,8216.285956,459.657299
133.968912,4071.132681,8364.327145,383.047749
133.969233,4071.132681,8734.430116,536.266849
133.969554,3404.947333,8586.388927,536.266849
133.969875,3627.009116,8438.347739,153.219100
133.970196,3775.050304,8290.306550,306.438199
133.970517,3997.112087,8956.491898,0.000000
133.970837,3997.112087,8882.471304,229.828649
133.971158,4145.153275,9252.574275,0.000000
133.971479,4219.173869,8808.450710,-153.219100
133.971800,4663.297435,8512.368333,306.438199
133.972121,4885.359217,8216.285956,459.657299
133.972442,5181.441594,8142.265362,229.828649
133.972763,5107.421000,7920.203579,0.000000
133.973084,5403.503377,7846.182985,-383.047749
133.973405,5551.544565,7402.059420,-229.828649
133.973726,5847.626942,7105.977043,0.000000
133.974047,6069.688724,7402.059420,0.000000
133.974368,6735.874072,7328.038826,-459.657299
133.974688,6513.812290,7254.018232,-689.485948
133.975009,6587.832884,7105.977043,-1072.533697
133.975330,6735.874072,7105.977043,-995.924147
133.975651,6513.812290,7476.080014,-919.314598
133.975972,6365.771101,7624.121203,-536.266849
133.976293,6217.729913,7772.162391,-842.705048
133.976614,6069.688724,8290.306550,-919.314598
133.976935,5699.585753,8290.306550,-1302.362347
133.977256,5255.462188,8068.244768,-1072.533697
133.977577,5181.441594,7920.203579,-459.657299
133.977898,4589.276840,8364.327145,76.609550
133.978219,4293.194464,8290.306550,0.000000
133.978539,3701.029710,8586.388927,0.000000
133.978860,3478.967927,8586.388927,76.609550
133.979181,3552.988522,8956.491898,459.657299
133.979502,3627.009116,8512.368333,536.266849
133.979823,3552.988522,8734.430116,536.266849
133.980144,3849.070898,8586.388927,459.657299
133.980465,3627.009116,9030.512492,153.219100
133.980786,3849.070898,8882.471304,229.828649
133.981107,3775.050304,9104.533087,0.000000
133.981428,4589.276840,8734.430116,0.000000
133.981749,4663.297435,8956.491898,0.000000
133.982069,4663.297435,8660.409521,76.609550
133.982390,4589.276840,8586.388927,-153.219100
133.982711,4737.318029,8216.285956,76.609550
133.983032,5033.400406,7772.162391,0.000000
133.983353,5033.400406,7402.059420,689.485948
133.983674,5255.462188,7105.977043,459.657299
133.983995,5477.523971,7179.997637,76.609550
133.984316,5403.503377,7550.100608,0.000000
133.984637,5329.482782,7328.038826,-153.219100
133.984958,5625.565159,7402.059420,-689.485948
133.985279,5403.503377,7328.038826,-153.219100
133.985600,5699.585753,7698.141797,-689.485948
133.985920,5329.482782,7698.141797,0.000000
133.986241,5181.441594,8290.306550,0.000000
133.986562,5107.421000,8512.368333,76.609550
133.986883,4885.359217,8364.327145,459.657299
133.987204,4515.256246,8364.327145,-383.047749
133.987525,4589.276840,8142.265362,-229.828649
133.987846,4071.132681,8290.306550,306.438199
133.988167,3849.070898,8216.285956,459.657299
133.988488,4293.194464,8438.347739,306.438199
133.988809,3997.112087,8438.347739,383.047749
133.989130,3775.050304,8660.409521,459.657299
133.989451,3701.029710,8364.327145,459.657299
133.989771,3775.050304,8438.347739,306.438199
133.990092,4145.153275,7994.224174,766.095498
133.990413,4293.194464,8068.244768,536.266849
133.990734,4367.215058,8512.368333,0.000000
133.991055,4441.235652,9030.512492,-459.657299
133.991376,4811.338623,8438.347739,-459.657299
133.991697,5255.462188,8290.306550,-229.828649
133.992018,5699.585753,7550.100608,306.438199
133.992339,5995.668130,7402.059420,76.609550
133.992660,6143.709319,7179.997637,-306.438199
133.992981,6439.791695,7105.977043,-383.047749
133.993302,6587.832884,6809.894666,-153.219100
133.993622,6439.791695,6883.915261,-689.485948
133.993943,7031.956449,6217.729913,0.000000
133.994264,7328.038826,6661.853478,-536.266849
133.994585,7105.977043,6957.935855,-459.657299
133.994906,7105.977043,6883.915261,-1072.533697
133.995227,7105.977043,7031.956449,-1302.362347
133.995548,6883.915261,7179.997637,-842.705048
133.995869,6661.853478,7179.997637,-612.876398
133.996190,6513.812290,7698.141797,-842.705048
133.996511,5921.647536,7846.182985,-383.047749
133.996832,5625.565159,8364.327145,-1072.533697
133.997153,4885.359217,8290.306550,-689.485948
133.997473,4885.359217,8290.306550,-459.657299
133.997794,4441.235652,8068.244768,383.047749
133.998115,3997.112087,8660.409521,-153.219100
133.998436,3404.947333,8882.471304,76.609550
133.998757,3404.947333,9252.574275,0.000000
133.999078,3034.844362,9474.636058,0.000000
133.999399,3256.906145,9696.697840,229.828649
133.999720,2960.823768,9918.759623,0.000000
134.000041,3404.947333,9548.656652,76.609550
134.000362,3256.906145,9400.615463,536.266849
134.000683,3256.906145,9326.594869,536.266849
134.001003,3330.926739,9696.697840,383.047749
134.001324,3849.070898,9400.615463,0.000000
134.001645,3923.091493,9252.574275,0.000000
134.001966,4515.256246,8882.471304,383.047749
134.002287,4441.235652,8734.430116,536.266849
134.002608,4811.338623,8438.347739,306.438199
134.002929,4885.359217,7994.224174,229.828649
134.003250,4885.359217,7624.121203,0.000000
134.003571,5551.544565,7105.977043,0.000000
134.003892,5773.606348,6809.894666,383.047749
134.004213,5921.647536,7402.059420,0.000000
134.004534,6069.688724,7105.977043,-306.438199
134.004854,6217.729913,7179.997637,-766.095498
134.005175,6513.812290,6439.791695,-1072.533697
134.005496,6735.874072,6809.894666,-536.266849
134.005817,6513.812290,6883.915261,0.000000
134.006138,6439.791695,7179.997637,0.000000
134.006459,6143.709319,7328.038826,-153.219100
134.006780,6217.729913,7476.080014,-459.657299
134.007101,5625.565159,7402.059420,-536.266849
134.007422,5403.503377,7179.997637,-459.657299
134.007743,5033.400406,7254.018232,-459.657299
134.008064,4811.338623,7328.038826,0.000000
134.008385,4737.318029,7476.080014,306.438199
134.008705,4663.297435,7994.224174,-612.876398
134.009026,3997.112087,7994.224174,459.657299
134.009347,3849.070898,8512.368333,766.095498
134.009668,3627.009116,8068.244768,153.219100
134.009989,3849.070898,8216.285956,153.219100
134.010310,3997.112087,8290.306550,229.828649
134.010631,3997.112087,8808.450710,229.828649
134.010952,4145.153275,8808.450710,0.000000
134.011273,4293.194464,9030.512492,0.000000
134.011594,4441.235652,8882.471304,153.219100
134.011915,4737.318029,8438.347739,459.657299
134.012236,4959.379811,8512.368333,76.609550
134.012556,5033.400406,8438.347739,229.828649
134.012877,5329.482782,8290.306550,-612.876398
134.013198,5773.606348,7550.100608,-459.657299
134.013519,5847.626942,7402.059420,-229.828649
134.013840,6143.709319,7105.977043,229.828649
134.014161,6217.729913,7772.162391,0.000000
134.014482,6217.729913,7846.182985,-536.266849
134.014803,6587.832884,7550.100608,-1225.752797
134.015124,6587.832884,7179.997637,-1378.971896
134.015445,6365.771101,7624.121203,-919.314598
134.015766,6291.750507,7550.100608,-459.657299
134.016087,6217.729913,8216.285956,-842.705048
134.016407,5995.668130,8142.265362,-1225.752797
134.016728,5995.668130,8586.388927,-842.705048
134.017049,5255.462188,8364.327145,-1378.971896
134.017370,4959.379811,8438.347739,-995.924147
134.017691,4885.359217,8364.327145,-306.438199
134.018012,4367.215058,8290.306550,-229.828649
134.018333,3701.029710,8660.409521,0.000000
134.018654,3627.009116,8956.491898,0.000000
134.018975,3330.926739,9030.512492,229.828649
134.019296,3478.967927,9104.533087,766.095498
134.019617,3627.009116,8364.327145,459.657299
134.019937,3701.029710,8586.388927,229.828649
134.020258,3330.926739,8734.430116,229.828649
134.020579,3701.029710,9104.533087,-153.219100
134.020900,3404.947333,9252.574275,0.000000
134.021221,4145.153275,8956.491898,0.000000
134.021542,4515.256246,8734.430116,76.609550
134.021863,4737.318029,8734.430116,0.000000
134.022184,4515.256246,8586.388927,0.000000
134.022505,4589.276840,8364.327145,-153.219100
134.022826,5107.421000,8142.265362,-383.047749
134.023147,5255.462188,7624.121203,76.609550
134.023468,5477.523971,7179.997637,0.000000
134.023788,5551.544565,6883.915261,612.876398
134.024109,5699.585753,7105.977043,76.609550
134.024430,5773.606348,7179.997637,-306.438199
134.024751,5995.668130,7031.956449,-689.485948
134.025072,6143.709319,6957.935855,-536.266849
134.025393,6217.729913,7254.018232,-612.876398
134.025714,6217.729913,7698.141797,-383.047749
134.026035,5773.606348,7772.162391,0.000000
134.026356,5551.544565,7476.080014,0.000000
134.026677,5551.544565,8068.244768,-306.438199
134.026998,5403.503377,7994.224174,0.000000
134.027319,4885.359217,7920.203579,-459.657299
134.027639,4663.297435,7624.121203,-383.047749
134.027960,4367.215058,8068.244768,-76.609550
134.028281,4071.132681,7772.162391,842.705048
134.028602,4293.194464,8290.306550,612.876398
134.028923,3627.009116,8364.327145,306.438199
134.029244,3627.009116,8882.471304,306.438199
134.029565,3256.906145,8290.306550,459.657299
134.029886,3404.947333,8364.327145,383.047749
134.030207,3404.947333,8512.368333,459.657299
134.030528,3478.967927,9178.553681,229.828649
134.030849,3775.050304,8882.471304,0.000000
134.031170,3923.091493,9252.574275,-383.047749
134.031490,4145.153275,8956.491898,-153.219100
134.031811,4737.318029,8882.471304,0.000000
134.032132,5033.400406,8142.265362,229.828649
134.032453,5551.544565,7846.182985,-229.828649
134.032774,5551.544565,7772.162391,-229.828649
134.033095,5773.606348,7328.038826,-306.438199
134.033416,5847.626942,6957.935855,-229.828649
134.033737,6365.771101,6883.915261,0.000000
134.034058,6587.832884,7254.018232,-229.828649
134.034379,6957.935855,7105.977043,-689.485948
134.034699,7105.977043,7179.997637,-689.485948
134.035020,7254.018232,7031.956449,-1225.752797
134.035341,6661.853478,7179.997637,-919.314598
134.035662,6957.935855,7328.038826,-766.095498
134.035983,6587.832884,7476.080014,-995.924147
134.036304,6365.771101,7920.203579,-995.924147
134.036625,6439.791695,7698.141797,-842.705048
134.036946,5773.606348,7772.162391,-919.314598
134.037267,5181.441594,8068.244768,-1302.362347
134.037588,4885.359217,7994.224174,-995.924147
134.037908,4441.235652,8438.347739,-383.047749
134.038229,4293.194464,8216.285956,229.828649
134.038550,3997.112087,8438.347739,0.000000
134.038871,3701.029710,8882.471304,0.000000
134.039192,3404.947333,9400.615463,153.219100
134.039513,3552.988522,9326.594869,229.828649
134.039834,3627.009116,9178.553681,0.000000
134.040155,3775.050304,8882.471304,459.657299
134.040476,3775.050304,9104.533087,612.876398
134.040796,3552.988522,9030.512492,383.047749
134.041117,4145.153275,9178.553681,0.000000
134.041438,4145.153275,8882.471304,0.000000
134.041759,4515.256246,8808.450710,153.219100
134.042080,4515.256246,8364.327145,306.438199
134.042401,4737.318029,8142.265362,229.828649
134.042722,5107.421000,8142.265362,153.219100
134.043043,5181.441594,7994.224174,229.828649
134.043364,5403.503377,7328.038826,153.219100
134.043685,5847.626942,7031.956449,0.000000
134.044005,6143.709319,7105.977043,0.000000
134.044326,6143.709319,7328.038826,0.000000
134.044647,6143.709319,7105.977043,-995.924147
134.044968,5921.647536,6587.832884,-1225.752797
134.045289,6587.832884,6513.812290,-1072.533697
134.045610,6291.750507,7031.956449,-689.485948
134.045931,5995.668130,7550.100608,-383.047749
134.046252,6143.709319,7550.100608,-383.047749
134.046573,5625.565159,7698.141797,-459.657299
134.046893,5477.523971,7624.121203,-229.828649
134.047214,4959.379811,7624.121203,-459.657299
134.047535,5181.441594,7402.059420,0.000000
134.047856,4663.297435,7920.203579,-229.828649
134.048177,4441.235652,7846.182985,0.000000
134.048498,4071.132681,8364.327145,76.609550
134.048819,3775.050304,8290.306550,306.438199
134.049140,3775.050304,8808.450710,842.705048
134.049461,3330.926739,8586.388927,459.657299
134.049782,3256.906145,8512.368333,306.438199
134.050102,3627.009116,8364.327145,229.828649
134.050423,3849.070898,8956.491898,536.266849
134.050744,3849.070898,9030.512492,-229.828649
134.051065,3701.029710,8956.491898,-459.657299
134.051386,4145.153275,8586.388927,0.000000
134.051707,4441.235652,8882.471304,-153.219100
134.052028,4885.359217,8438.347739,536.266849
134.052349,5033.400406,8290.306550,153.219100
134.052670,5403.503377,7920.203579,0.000000
134.052990,5699.585753,7920.203579,-153.219100
134.053311,5551.544565,7476.080014,-459.657299
134.053632,6217.729913,7179.997637,-383.047749
134.053953,6365.771101,7476.080014,0.000000
134.054274,6587.832884,7328.038826,-229.828649
134.054595,7031.956449,7550.100608,-1072.533697
134.054916,6957.935855,6957.935855,-1225.752797
134.055237,6809.894666,7402.059420,-1378.971896
134.055558,6735.874072,7254.018232,-919.314598
134.055879,6365.771101,7624.121203,-919.314598
134.056199,6365.771101,7994.224174,-766.095498
134.056520,5921.647536,8216.285956,-1149.143247
134.056841,6143.709319,8882.471304,-1302.362347
134.057162,4885.359217,8438.347739,-919.314598
134.057483,5033.400406,8290.306550,-766.095498
134.057804,4515.256246,8290.306550,0.000000
134.058125,4367.215058,8438.347739,229.828649
134.058446,3775.050304,8808.450710,0.000000
134.058767,3701.029710,8808.450710,0.000000
134.059087,3182.885551,9104.533087,306.438199
134.059408,3182.885551,8734.430116,612.876398
134.059729,3256.906145,8586.388927,536.266849
134.060050,3627.009116,8660.409521,76.609550
134.060371,3478.967927,8808.450710,0.000000
134.060692,3478.967927,9178.553681,0.000000
134.061013,3701.029710,8734.430116,153.219100
134.061334,4367.215058,8660.409521,-229.828649
134.061655,4663.297435,8734.430116,76.609550
134.061975,4811.338623,8364.327145,229.828649
134.062296,4811.338623,8364.327145,-153.219100
134.062617,4885.359217,7698.141797,0.000000
134.062938,5403.503377,7550.100608,153.219100
134.063259,5847.626942,6957.935855,306.438199
134.063580,5773.606348,6587.832884,536.266849
134.063901,5995.668130,6735.874072,0.000000
134.064222,5921.647536,7179.997637,-229.828649
134.064543,6143.709319,7031.956449,-536.266849
134.064864,6587.832884,6661.853478,-1225.752797
134.065184,6291.750507,6587.832884,-995.924147
134.065505,6883.915261,6809.894666,-689.485948
134.065826,6735.874072,7105.977043,-306.438199
134.066147,6069.688724,7476.080014,-306.438199
134.066468,5921.647536,7624.121203,-306.438199
134.066789,5625.565159,7994.224174,-306.438199
134.067110,5255.462188,7994.224174,-459.657299
134.067431,4959.379811,8216.285956,-229.828649
134.067752,4663.297435,8142.265362,-459.657299
134.068072,4367.215058,8216.285956,229.828649
134.068393,4145.153275,8216.285956,229.828649
134.068714,4145.153275,8734.430116,459.657299
134.069035,3404.947333,8882.471304,306.438199
134.069356,3478.967927,8882.471304,459.657299
134.069677,3256.906145,8586.388927,536.266849
134.069998,3404.947333,8808.450710,306.438199
134.070319,3330.926739,8808.450710,306.438199
134.070640,3627.009116,9252.574275,76.609550
134.070961,3923.091493,9252.574275,-383.047749
134.071281,3997.112087,9400.615463,-229.828649
134.071602,4515.256246,8956.491898,153.219100
134.071923,4589.276840,8808.450710,76.609550
134.072244,5033.400406,8290.306550,153.219100
134.072565,5403.503377,8068.244768,306.438199
134.072886,5329.482782,7920.203579,0.000000
134.073207,5477.523971,7624.121203,-383.047749
134.073528,5773.606348,7105.977043,-536.266849
134.073849,6439.791695,7105.977043,0.000000
134.074169,6439.791695,7698.141797,-536.266849
134.074490,6587.832884,7328.038826,-612.876398
134.074811,7105.977043,7179.997637,-1225.752797
134.075132,6883.915261,7031.956449,-1378.971896
134.075453,6661.853478,7402.059420,-995.924147
134.075774,6365.771101,7254.018232,-842.705048
134.076095,6439.791695,7920.203579,-995.924147
134.076416,5773.606348,7846.182985,-842.705048
134.076737,5921.647536,8290.306550,-919.314598
134.077058,4959.379811,8438.347739,-995.924147
134.077378,5033.400406,7994.224174,-536.266849
134.077699,4441.235652,8216.285956,-229.828649
134.078020,4219.173869,8290.306550,0.000000
134.078341,3775.050304,8290.306550,0.000000
134.078662,3775.050304,8512.368333,153.219100
134.078983,3552.988522,8808.450710,76.609550
134.079304,3404.947333,9104.533087,229.828649
134.079625,3404.947333,9104.533087,459.657299
134.079946,3849.070898,8956.491898,689.485948
134.080266,3775.050304,8882.471304,383.047749
134.080587,3849.070898,8734.430116,229.828649
134.080908,4219.173869,8512.368333,459.657299
134.081229,4441.235652,8956.491898,-306.438199
134.081550,4737.318029,8660.409521,-229.828649
134.081871,4811.338623,8364.327145,229.828649
134.082192,5033.400406,7994.224174,0.000000
134.082513,5403.503377,7994.224174,229.828649
134.082834,5403.503377,7846.182985,0.000000
134.083155,5773.606348,8068.244768,76.609550
134.083475,5847.626942,7105.977043,0.000000
134.083796,6069.688724,6661.853478,0.000000
134.084117,6217.729913,6957.935855,0.000000
134.084438,6291.750507,7031.956449,0.000000
134.084759,6143.709319,7476.080014,-919.314598
134.085080,6439.791695,6957.935855,-1072.533697
134.085401,6291.750507,7105.977043,-995.924147
134.085722,6365.771101,7105.977043,-306.438199
134.086043,6217.729913,7994.224174,76.609550
134.086363,5921.647536,7846.182985,0.000000
134.086684,5551.544565,7920.203579,-306.438199
134.087005,5107.421000,8438.347739,-153.219100
134.087326,5033.400406,8068.244768,-306.438199
134.087647,4145.153275,7698.141797,0.000000
134.087968,3923.091493,7994.224174,76.609550
134.088289,3701.029710,7994.224174,229.828649
134.088610,3701.029710,8512.368333,459.657299
134.088931,3478.967927,8734.430116,459.657299
134.089251,3552.988522,8956.491898,306.438199
134.089572,2960.823768,8734.430116,383.047749
134.089893,3256.906145,9030.512492,229.828649
134.090214,3552.988522,8808.450710,536.266849
134.090535,3627.009116,9030.512492,229.828649
134.090856,3701.029710,9474.636058,153.219100
134.091177,3997.112087,9622.677246,-229.828649
134.091498,4145.153275,9104.533087,-306.438199
134.091819,4885.359217,8586.388927,0.000000
134.092140,4737.318029,8290.306550,536.266849
134.092460,5107.421000,8142.265362,0.000000
134.092781,5255.462188,7846.182985,0.000000
134.093102,5625.565159,7624.121203,-612.876398
134.093423,5625.565159,7476.080014,-612.876398
134.093744,5995.668130,7105.977043,-76.609550
134.094065,5995.668130,7624.121203,-383.047749
134.094386,6661.853478,7328.038826,-306.438199
134.094707,6661.853478,7105.977043,-842.705048
134.095028,6957.935855,6957.935855,-1302.362347
134.095348,7105.977043,6957.935855,-1302.362347
134.095669,6883.915261,7105.977043,-766.095498
134.095990,6661.853478,7254.018232,-612.876398
134.096311,6587.832884,7846.182985,-612.876398
134.096632,6291.750507,8290.306550,-995.924147
134.096953,5921.647536,8068.244768,-1072.533697
134.097274,5995.668130,7994.224174,-1378.971896
134.097595,5255.462188,7550.100608,-383.047749
134.097916,4811.338623,7846.182985,0.000000
134.098237,4441.235652,8142.265362,0.000000
134.098557,4071.132681,8364.327145,0.000000
134.098878,3997.112087,8216.285956,306.438199
134.099199,3923.091493,8660.409521,76.609550
134.099520,3552.988522,8512.368333,689.485948
134.099841,3775.050304,8512.368333,229.828649
134.100162,3849.070898,8586.388927,153.219100
134.100483,3923.091493,8956.491898,0.000000
134.100804,3923.091493,9030.512492,0.000000
134.101125,4219.173869,9252.574275,-229.828649
134.101445,4663.297435,9030.512492,-229.828649
134.101766,4737.318029,9178.553681,0.000000
134.102087,4589.276840,8808.450710,0.000000
134.102408,4811.338623,8142.265362,0.000000
134.102729,4811.338623,7994.224174,0.000000
134.103050,5107.421000,7624.121203,-76.609550
134.103371,5625.565159,7031.956449,383.047749
134.103692,5551.544565,7105.977043,76.609550
134.104013,5625.565159,7328.038826,0.000000
134.104334,5847.626942,7402.059420,229.828649
134.104654,5699.585753,7402.059420,0.000000
134.104975,6069.688724,7402.059420,-1072.533697
134.105296,6291.750507,7105.977043,-1072.533697
134.105617,6217.729913,7920.203579,-689.485948
134.105938,5773.606348,7920.203579,-383.047749
134.106259,5773.606348,7994.224174,0.000000
134.106580,5625.565159,8512.368333,-229.828649
134.106901,5255.462188,7994.224174,-612.876398
134.107222,4737.318029,8142.265362,-536.266849
134.107542,4737.318029,7846.182985,-306.438199
134.107863,4589.276840,7846.182985,0.000000
134.108184,4515.256246,7698.141797,0.000000
134.108505,4441.235652,7994.224174,76.609550
134.108826,3997.112087,8586.388927,306.438199
134.109147,3552.988522,8808.450710,612.876398
134.109468,3849.070898,8660.409521,536.266849
134.109789,3404.947333,8660.409521,306.438199
134.110110,3849.070898,8290.306550,76.609550
134.110431,3701.029710,8734.430116,229.828649
134.110751,3701.029710,8956.491898,0.000000
134.111072,3997.112087,9252.574275,0.000000
134.111393,4367.215058,8586.388927,0.000000
134.111714,4959.379811,8290.306550,0.000000
134.112035,4737.318029,8142.265362,0.000000
134.112356,4959.379811,7772.162391,76.609550
134.112677,5255.462188,7476.080014,0.000000
134.112998,5551.544565,7328.038826,0.000000
134.113319,5477.523971,6957.935855,-612.876398
134.113639,5921.647536,6883.915261,-459.657299
134.113960,6439.791695,7031.956449,0.000000
134.114281,6661.853478,7105.977043,-383.047749
134.114602,6587.832884,7105.977043,-766.095498
134.114923,7105.977043,7105.977043,-1302.362347
134.115244,6883.915261,6809.894666,-1225.752797
134.115565,7105.977043,7328.038826,-612.876398
134.115886,6735.874072,7402.059420,-1225.752797
134.116207,6809.894666,7624.121203,-842.705048
134.116527,6365.771101,7994.224174,-1225.752797
134.116848,5921.647536,8512.368333,-1149.143247
134.117169,5477.523971,8142.265362,-995.924147
134.117490,5329.482782,8068.244768,-689.485948
134.117811,4737.318029,8290.306550,-229.828649
134.118132,4441.235652,8364.327145,0.000000
134.118453,3997.112087,8734.430116,153.219100
134.118774,4367.215058,8808.450710,612.876398
134.119095,3552.988522,9104.533087,306.438199
134.119416,3627.009116,9252.574275,306.438199
134.119736,3330.926739,9548.656652,0.000000
134.120057,3775.050304,9178.553681,612.876398
134.120378,3849.070898,9104.533087,459.657299
134.120699,3552.988522,9326.594869,612.876398
134.121020,3627.009116,9252.574275,306.438199
134.121341,3997.112087,9178.553681,-153.219100
134.121662,4367.215058,9252.574275,153.219100
134.121983,4589.276840,8438.347739,306.438199
134.122304,4663.297435,8512.368333,766.095498
134.122624,4885.359217,7920.203579,153.219100
134.122945,5033.400406,8142.265362,0.000000
134.123266,5477.523971,7328.038826,76.609550
134.123587,5625.565159,7105.977043,0.000000
134.123908,5625.565159,6809.894666,76.609550
134.124229,5921.647536,7254.018232,-76.609550
134.124550,5995.668130,7402.059420,-766.095498
134.124871,6365.771101,7550.100608,-1455.581446
134.125192,6069.688724,6735.874072,-1225.752797
134.125513,6217.729913,6809.894666,-919.314598
134.125833,6069.688724,7254.018232,-536.266849
134.126154,5773.606348,7550.100608,-306.438199
134.126475,6069.688724,7698.141797,-459.657299
134.126796,5551.544565,7994.224174,-459.657299
134.127117,4959.379811,7550.100608,-153.219100
134.127438,4737.318029,7328.038826,-459.657299
134.127759,4441.235652,7550.100608,0.000000
134.128080,4737.318029,8068.244768,-306.438199
134.128401,4071.132681,7920.203579,76.609550
134.128721,4071.132681,8660.409521,229.828649
134.129042,3849.070898,8438.347739,995.924147
134.129363,3701.029710,8586.388927,689.485948
134.129684,3478.967927,8512.368333,612.876398
134.130005,3849.070898,8216.285956,612.876398
134.130326,3701.029710,8586.388927,306.438199
134.130647,3849.070898,8734.430116,153.219100
134.130968,4145.153275,8956.491898,229.828649
134.131289,4441.235652,8882.471304,-306.438199
134.131610,4589.276840,8734.430116,76.609550
134.131930,4811.338623,8068.244768,0.000000
134.132251,4885.359217,8068.244768,0.000000
134.132572,5033.400406,7994.224174,229.828649
134.132893,5181.441594,7772.162391,76.609550
134.133214,5477.523971,7328.038826,-153.219100
134.133535,5625.565159,7328.038826,-383.047749
134.133856,5995.668130,7031.956449,0.000000
134.134177,6439.791695,7624.121203,-229.828649
134.134498,6735.874072,7254.018232,-766.095498
134.134818,6365.771101,7402.059420,-1225.752797
134.135139,6809.894666,7031.956449,-1225.752797
134.135460,6735.874072,7402.059420,-995.924147
134.135781,6217.729913,7402.059420,-689.485948
134.136102,6439.791695,7772.162391,-612.876398
134.136423,6143.709319,8068.244768,-689.485948
134.136744,5921.647536,8586.388927,-1302.362347
134.137065,5329.482782,8216.285956,-995.924147
134.137385,5329.482782,8216.285956,-1149.143247
134.137706,4959.379811,8216.285956,-306.438199
134.138027,4515.256246,8734.430116,0.000000
134.138348,3923.091493,8512.368333,-76.609550
134.138669,3701.029710,9030.512492,76.609550
134.138990,4071.132681,8882.471304,612.876398
134.139311,3923.091493,8882.471304,689.485948
134.139631,3552.988522,8734.430116,459.657299
134.139952,3775.050304,8808.450710,153.219100
134.140273,3627.009116,9030.512492,306.438199
134.140594,4219.173869,9400.615463,-306.438199
134.140915,3923.091493,9178.553681,0.000000
134.141236,4515.256246,9178.553681,-229.828649
134.141557,4589.276840,8734.430116,0.000000
134.141877,4811.338623,8734.430116,0.000000
134.142198,4885.359217,8438.347739,-383.047749
134.142519,5329.482782,7920.203579,-383.047749
134.142840,5551.544565,7846.182985,-153.219100
134.143161,5625.565159,7402.059420,76.609550
134.143482,5847.626942,7254.018232,76.609550
134.143803,5329.482782,7328.038826,229.828649
134.144123,5773.606348,7402.059420,306.438199
134.144444,6143.709319,7105.977043,0.000000
134.144765,6365.771101,7254.018232,-536.266849
134.145086,6291.750507,6883.915261,-306.438199
134.145407,6291.750507,7254.018232,-689.485948
134.145728,5995.668130,7328.038826,-612.876398
134.146049,5625.565159,7846.182985,0.000000
134.146369,5181.441594,7994.224174,0.000000
134.146690,5107.421000,8142.265362,-76.609550
134.147011,4737.318029,8068.244768,0.000000
134.147332,5033.400406,7476.080014,-383.047749
134.147653,4367.215058,7624.121203,0.000000
134.147974,4219.173869,7994.224174,383.047749
134.148295,3775.050304,7698.141797,306.438199
134.148615,3923.091493,8438.347739,536.266849
134.148936,3627.009116,8438.347739,689.485948
134.149257,3552.988522,8734.430116,229.828649
134.149578,3330.926739,8142.265362,1149.143247
134.149899,3775.050304,8660.409521,459.657299
134.150220,3552.988522,8364.327145,459.657299
134.150541,3997.112087,9252.574275,0.000000
134.150861,3923.091493,8956.491898,0.000000
134.151182,4293.194464,9400.615463,-459.657299
134.151503,4219.173869,8808.450710,0.000000
134.151824,4663.297435,8512.368333,383.047749
134.152145,4959.379811,8068.244768,306.438199
134.152466,5403.503377,7846.182985,306.438199
134.152787,5329.482782,7772.162391,-153.219100
134.153107,5699.585753,7476.080014,-229.828649
134.153428,5921.647536,6883.915261,0.000000
134.153749,6365.771101,6809.894666,0.000000
134.154070,6217.729913,7254.018232,0.000000
134.154391,6883.915261,7328.038826,-459.657299
134.154712,6883.915261,7179.997637,-842.705048
134.155033,7105.977043,6883.915261,-1302.362347
134.155353,7031.956449,7105.977043,-1225.752797
134.155674,6809.894666,7328.038826,-612.876398
134.155995,6735.874072,7550.100608,-766.095498
134.156316,6439.791695,7846.182985,-842.705048
134.156637,5995.668130,8142.265362,-919.314598
134.156958,5625.565159,7994.224174,-842.705048
134.157279,5551.544565,8512.368333,-536.266849
134.157599,4885.359217,8216.285956,-689.485948
134.157920,4367.215058,8438.347739,-76.609550
134.158241,3849.070898,8438.347739,-153.219100
134.158562,3849.070898,9104.533087,76.609550
134.158883,3478.967927,9178.553681,306.438199
134.159204,3330.926739,9696.697840,76.609550
134.159525,3330.926739,9400.615463,229.828649
134.159845,3182.885551,9474.636058,76.609550
134.160166,3256.906145,9400.615463,689.485948
134.160487,2960.823768,9622.677246,612.876398
134.160808,3330.926739,8808.450710,306.438199
134.161129,3849.070898,9252.574275,-229.828649
134.161450,4145.153275,9104.533087,0.000000
134.161771,4737.318029,8882.471304,76.609550
134.162091,4885.359217,8364.327145,306.438199
134.162412,5181.441594,8216.285956,0.000000
134.162733,5181.441594,7846.182985,0.000000
134.163054,5699.585753,7550.100608,0.000000
134.163375,5921.647536,7328.038826,0.000000
134.163696,5995.668130,6661.853478,0.000000
134.164017,6217.729913,7105.977043,-153.219100
134.164337,6365.771101,7105.977043,-306.438199
134.164658,6217.729913,7031.956449,-689.485948
134.164979,6883.915261,6587.832884,-1149.143247
134.165300,6513.812290,6809.894666,-1225.752797
134.165621,6217.729913,7328.038826,-766.095498
134.165942,6143.709319,7328.038826,-306.438199
134.166263,6143.709319,7772.162391,-153.219100
134.166583,5551.544565,7624.121203,-229.828649
134.166904,5255.462188,7846.182985,-536.266849
134.167225,4737.318029,7920.203579,-459.657299
134.167546,4737.318029,7328.038826,0.000000
134.167867,4219.173869,7624.121203,0.000000
134.168188,3923.091493,7994.224174,153.219100
134.168509,4071.132681,8512.368333,229.828649
134.168829,3701.029710,8734.430116,536.266849
134.169150,3404.947333,9104.533087,459.657299
134.169471,3108.864956,8586.388927,612.876398
134.169792,3627.009116,8438.347739,383.047749
134.170113,3923.091493,8438.347739,229.828649
134.170434,3701.029710,8660.409521,612.876398
134.170755,3775.050304,8956.491898,0.000000
134.171075,4071.132681,9622.677246,0.000000
134.171396,4367.215058,8956.491898,-153.219100
134.171717,4663.297435,8734.430116,0.000000
134.172038,4959.379811,8142.265362,153.219100
134.172359,5403.503377,8216.285956,383.047749
134.172680,5477.523971,7846.182985,0.000000
134.173001,5847.626942,7772.162391,-536.266849
134.173321,5699.585753,7402.059420,-612.876398
134.173642,5995.668130,7105.977043,-612.876398
134.173963,6291.750507,7105.977043,0.000000
134.174284,6809.894666,7698.141797,-306.438199
134.174605,6809.894666,7328.038826,-766.095498
134.174926,6883.915261,7179.997637,-1302.362347
134.175247,6439.791695,7179.997637,-1225.752797
134.175567,6735.874072,7179.997637,-536.266849
134.175888,6217.729913,7550.100608,-229.828649
134.176209,6291.750507,7994.224174,-766.095498
134.176530,5847.626942,8364.327145,-842.705048
134.176851,5625.565159,8290.306550,-1225.752797
134.177172,5033.400406,8216.285956,-1149.143247
134.177493,4737.318029,8364.327145,-383.047749
134.177813,4367.215058,8216.285956,0.000000
134.178134,4071.132681,8512.368333,0.000000
134.178455,3478.967927,9030.512492,-306.438199
134.178776,3404.947333,9178.553681,383.047749
134.179097,3256.906145,8734.430116,76.609550
134.179418,3256.906145,8808.450710,459.657299
134.179739,3034.844362,8660.409521,459.657299
134.180059,3404.947333,8956.491898,229.828649
134.180380,3330.926739,9178.553681,0.000000
134.180701,3627.009116,9178.553681,-229.828649
134.181022,3997.112087,9030.512492,0.000000
134.181343,4367.215058,8956.491898,0.000000
134.181664,4515.256246,8956.491898,0.000000
134.181985,4515.256246,8956.491898,229.828649
134.182305,4589.276840,8660.409521,-306.438199
134.182626,5107.421000,7920.203579,0.000000
134.182947,5699.585753,7846.182985,-76.609550
134.183268,5625.565159,7179.997637,0.000000
134.183589,5699.585753,7550.100608,0.000000
134.183910,5921.647536,6883.915261,0.000000
134.184231,6365.771101,7105.977043,-229.828649
134.184551,6365.771101,7031.956449,-459.657299
134.184872,6365.771101,6883.915261,-919.314598
134.185193,6513.812290,6883.915261,-1225.752797
134.185514,6809.894666,7254.018232,-1072.533697
134.185835,6069.688724,7328.038826,-536.266849
134.186156,6069.688724,7772.162391,0.000000
134.186477,5255.462188,7920.203579,-76.609550
134.186797,5255.462188,7476.080014,-459.657299
134.187118,5033.400406,7624.121203,-459.657299
134.187439,5033.400406,7846.182985,-459.657299
134.187760,4589.276840,7772.162391,0.000000
134.188081,4441.235652,7994.224174,229.828649
134.188402,4219.173869,8216.285956,153.219100
134.188723,4293.194464,8290.306550,842.705048
134.189043,3775.050304,8512.368333,306.438199
134.189364,3701.029710,8512.368333,536.266849
134.189685,3552.988522,8290.306550,76.609550
134.190006,3775.050304,8364.327145,229.828649
134.190327,3997.112087,8512.368333,153.219100
134.190648,4441.235652,8660.409521,0.000000
134.190969,4145.153275,8956.491898,-383.047749
134.191289,4441.235652,8660.409521,-536.266849
134.191610,4885.359217,8438.347739,153.219100
134.191931,5255.462188,8290.306550,0.000000
134.192252,5477.523971,7994.224174,459.657299
134.192573,5551.544565,7254.018232,1225.752797
134.192894,5699.585753,7476.080014,-306.438199
134.193215,5477.523971,7179.997637,-612.876398
134.193535,5699.585753,7105.977043,-383.047749
134.193856,5995.668130,7105.977043,-229.828649
134.194177,6513.812290,7402.059420,-383.047749
134.194498,6365.771101,7254.018232,-536.266849
134.194819,6513.812290,7402.059420,-1225.752797
134.195140,6291.750507,7179.997637,-1302.362347
134.195461,6069.688724,7624.121203,-995.924147
134.195781,5699.585753,7846.182985,-612.876398
134.196102,5921.647536,8216.285956,-536.266849
134.196423,5477.523971,8438.347739,-612.876398
134.196744,5329.482782,8734.430116,-689.485948
134.197065,4737.318029,8438.347739,-766.095498
134.197386,4663.297435,8438.347739,-536.266849
134.197707,4219.173869,8290.306550,-306.438199
134.198027,4071.132681,8586.388927,0.000000
134.198348,3775.050304,8512.368333,0.000000
134.198669,3627.009116,8956.491898,153.219100
134.198990,3108.864956,9178.553681,383.047749
134.199311,3997.112087,9474.636058,0.000000
134.199632,3552.988522,9252.574275,153.219100
134.199953,3997.112087,9104.533087,76.609550
134.200273,3849.070898,8438.347739,1072.533697
134.200594,4293.194464,8734.430116,306.438199
134.200915,4219.173869,9104.533087,0.000000
134.201236,4737.318029,8882.471304,-153.219100
134.201557,4959.379811,8512.368333,-153.219100
134.201878,5255.462188,8290.306550,-76.609550
134.202199,5329.482782,7772.162391,153.219100
134.202519,5477.523971,7624.121203,306.438199
134.202840,5847.626942,7550.100608,153.219100
134.203161,5847.626942,7179.997637,0.000000
134.203482,5995.668130,6957.935855,0.000000
134.203803,6143.709319,6291.750507,0.000000
134.204124,6291.750507,7105.977043,-229.828649
134.204445,6439.791695,7031.956449,-229.828649
134.204765,6661.853478,7105.977043,-766.095498
134.205086,6809.894666,6809.894666,-1378.971896
134.205407,6439.791695,6883.915261,-689.485948
134.205728,6439.791695,7179.997637,-689.485948
134.206049,6069.688724,7772.162391,0.000000
134.206370,5477.523971,7920.203579,-153.219100
134.206691,5921.647536,8216.285956,-383.047749
134.207011,4959.379811,7698.141797,-383.047749
134.207332,4737.318029,7846.182985,-306.438199
134.207653,4367.215058,7698.141797,0.000000
134.207974,3701.029710,8882.471304,-153.219100
134.208295,3627.009116,8882.471304,0.000000
134.208616,3701.029710,8734.430116,383.047749
134.208937,3478.967927,8882.471304,306.438199
134.209257,2812.782580,9474.636058,306.438199
134.209578,2812.782580,8956.491898,383.047749
134.209899,2886.803174,9030.512492,306.438199
134.210220,3108.864956,9178.553681,76.609550
134.210541,3330.926739,9474.636058,229.828649
134.210862,3404.947333,9474.636058,383.047749
134.211183,3478.967927,9548.656652,0.000000
134.211503,3256.906145,9178.553681,306.438199
134.211824,4145.153275,8734.430116,153.219100
134.212145,4441.235652,8734.430116,536.266849
134.212466,4811.338623,8216.285956,229.828649
134.212787,5033.400406,8216.285956,0.000000
134.213108,5181.441594,7920.203579,0.000000
134.213429,5403.503377,7328.038826,0.000000
134.213749,6069.688724,7105.977043,-153.219100
134.214070,6291.750507,7179.997637,0.000000
134.214391,6513.812290,7105.977043,-536.266849
134.214712,6883.915261,7179.997637,-1302.362347
134.215033,6809.894666,6809.894666,-1378.971896
134.215354,6735.874072,7031.956449,-1225.752797
134.215675,6809.894666,6957.935855,-842.705048
134.215995,6513.812290,7328.038826,-766.095498
134.216316,6587.832884,7624.121203,-689.485948
134.216637,6365.771101,8216.285956,-689.485948
134.216958,5921.647536,7550.100608,-1378.971896
134.217279,5403.503377,7698.141797,-995.924147
134.217600,5329.482782,7550.100608,0.000000
134.217921,4959.379811,8068.244768,153.219100
134.218241,4589.276840,7846.182985,306.438199
134.218562,4145.153275,8512.368333,0.000000
134.218883,3923.091493,8438.347739,0.000000
134.219204,3923.091493,8290.306550,689.485948
134.219525,3775.050304,8364.327145,383.047749
134.219846,3923.091493,8512.368333,229.828649
134.220167,3701.029710,8586.388927,229.828649
134.220487,3701.029710,9178.553681,153.219100
134.220808,3997.112087,9178.553681,0.000000
134.221129,4145.153275,9104.533087,76.609550
134.221450,4737.318029,8438.347739,229.828649
134.221771,4959.379811,8882.471304,153.219100
134.222092,4737.318029,8734.430116,0.000000
134.222413,4959.379811,8512.368333,-229.828649
134.222733,5329.482782,7846.182985,0.000000
134.223054,5551.544565,7698.141797,0.000000
134.223375,5403.503377,7476.080014,153.219100
134.223696,5699.585753,7920.203579,229.828649
134.224017,5773.606348,7254.018232,76.609550
134.224338,5625.565159,7328.038826,0.000000
134.224659,5847.626942,7179.997637,-689.485948
134.224979,6439.791695,7105.977043,-612.876398
134.225300,6291.750507,7105.977043,-459.657299
134.225621,6365.771101,7550.100608,-459.657299
134.225942,5921.647536,7920.203579,0.000000
134.226263,5551.544565,8216.285956,-229.828649
134.226584,5329.482782,8216.285956,0.000000
134.226905,5477.523971,8290.306550,-459.657299
134.227225,4885.359217,7920.203579,-229.828649
134.227546,4885.359217,7920.203579,-229.828649
134.227867,4515.256246,8142.265362,0.000000
134.228188,4145.153275,7624.121203,306.438199
134.228509,4293.194464,8438.347739,306.438199
134.228830,3849.070898,8290.306550,459.657299
134.229151,3627.009116,8586.388927,229.828649
134.229471,3404.947333,8586.388927,306.438199
134.229792,3404.947333,8290.306550,842.705048
134.230113,3404.947333,8216.285956,842.705048
134.230434,3997.112087,8882.471304,153.219100
134.230755,3923.091493,8660.409521,-153.219100
134.231076,3923.091493,9104.533087,-306.438199
134.231397,3997.112087,9178.553681,0.000000
134.231717,4663.297435,8956.491898,0.000000
134.232038,4959.379811,7920.203579,229.828649
134.232359,4959.379811,8142.265362,229.828649
134.232680,5255.462188,7698.141797,0.000000
134.233001,5181.441594,7624.121203,0.000000
134.233322,5551.544565,7254.018232,-229.828649
134.233643,5847.626942,7031.956449,0.000000
134.233963,6143.709319,7031.956449,76.609550
134.234284,6513.812290,7476.080014,-383.047749
134.234605,6735.874072,7105.977043,-612.876398
134.234926,6957.935855,7254.018232,-1072.533697
134.235247,6587.832884,7105.977043,-995.924147
134.235568,6809.894666,7476.080014,-995.924147
134.235889,6661.853478,7698.141797,-995.924147
134.236210,6661.853478,7624.121203,-1072.533697
134.236531,6143.709319,7994.224174,-842.705048
134.236851,5921.647536,8068.244768,-766.095498
134.237172,5181.441594,7994.224174,-919.314598
134.237493,5033.400406,8216.285956,-459.657299
134.237814,4737.318029,8290.306550,-153.219100
134.238135,4367.215058,7994.224174,0.000000
134.238456,4145.153275,8586.388927,0.000000
134.238777,3997.112087,8586.388927,153.219100
134.239098,3775.050304,9252.574275,0.000000
134.239419,3627.009116,9400.615463,0.000000
134.239740,3478.967927,8956.491898,153.219100
134.240060,3552.988522,9252.574275,0.000000
134.240381,3552.988522,9252.574275,306.438199
134.240702,3478.967927,9622.677246,229.828649
134.241023,3256.906145,9548.656652,0.000000
134.241344,4071.132681,9104.533087,0.000000
134.241665,4219.173869,9104.533087,0.000000
134.241986,4515.256246,8660.409521,229.828649
134.242307,4589.276840,8512.368333,229.828649
134.242628,4589.276840,8068.244768,0.000000
134.242949,4811.338623,8216.285956,76.609550
134.243270,5033.400406,7772.162391,0.000000
134.243590,5403.503377,7254.018232,-153.219100
134.243911,5551.544565,6957.935855,153.219100
134.244232,6143.709319,7179.997637,0.000000
134.244553,5625.565159,7179.997637,0.000000
134.244874,5921.647536,7105.977043,-689.485948
134.245195,5995.668130,6883.915261,-689.485948
134.245516,6217.729913,7105.977043,-689.485948
134.245837,5921.647536,7476.080014,-229.828649
134.246158,5995.668130,7624.121203,-306.438199
134.246479,5995.668130,7624.121203,-383.047749
134.246800,5773.606348,7772.162391,-306.438199
134.247120,5033.400406,7550.100608,-536.266849
134.247441,5107.421000,7328.038826,0.000000
134.247762,4737.318029,7402.059420,-229.828649
134.248083,4737.318029,7772.162391,0.000000
134.248404,4293.194464,7994.224174,153.219100
134.248725,4589.276840,8290.306550,76.609550
134.249046,3997.112087,8586.388927,383.047749
134.249367,3701.029710,8660.409521,306.438199
134.249688,3552.988522,8512.368333,766.095498
134.250009,3775.050304,8364.327145,0.000000
134.250329,3849.070898,8364.327145,536.266849
134.250650,4145.153275,8660.409521,0.000000
134.250971,3923.091493,9178.553681,0.000000
134.251292,4293.194464,8956.491898,0.000000
134.251613,4441.235652,8734.430116,0.000000
134.251934,4885.359217,8068.244768,306.438199
134.252255,4885.359217,8068.244768,383.047749
134.252576,5477.523971,7772.162391,0.000000
134.252897,5551.544565,8216.285956,0.000000
134.253218,5699.585753,7772.162391,0.000000
134.253539,5847.626942,7105.977043,-612.876398
134.253859,6365.771101,6883.915261,-306.438199
134.254180,6735.874072,7254.018232,-459.657299
134.254501,6883.915261,7254.018232,-689.485948
134.254822,6809.894666,7328.038826,-1225.752797
134.255143,7105.977043,6735.874072,-1302.362347
134.255464,6883.915261,7179.997637,-1225.752797
134.255785,6439.791695,7179.997637,-919.314598
134.256106,7105.977043,7698.141797,-689.485948
134.256427,6365.771101,8216.285956,-383.047749
134.256748,6069.688724,8290.306550,-1072.533697
134.257068,5403.503377,7920.203579,-1455.581446
134.257389,5181.441594,8142.265362,-1072.533697
134.257710,4589.276840,8142.265362,-76.609550
134.258031,4145.153275,8660.409521,-306.438199
134.258352,3775.050304,8586.388927,-229.828649
134.258673,3849.070898,8956.491898,0.000000
134.258994,3182.885551,9030.512492,76.609550
134.259315,3404.947333,9104.533087,689.485948
134.259636,3182.885551,9030.512492,153.219100
134.259957,3478.967927,9030.512492,536.266849
134.260278,3256.906145,9104.533087,229.828649
134.260598,3627.009116,9252.574275,459.657299
134.260919,3552.988522,9548.656652,383.047749
134.261240,4071.132681,9178.553681,0.000000
134.261561,4515.256246,8882.471304,0.000000
134.261882,4663.297435,8808.450710,0.000000
134.262203,4515.256246,8438.347739,153.219100
134.262524,4737.318029,8364.327145,-383.047749
134.262845,4885.359217,7772.162391,-76.609550
134.263166,5551.544565,7476.080014,0.000000
134.263487,5625.565159,7328.038826,76.609550
134.263808,6069.688724,7105.977043,0.000000
134.264128,6143.709319,7254.018232,-383.047749
134.264449,6143.709319,7105.977043,-459.657299
134.264770,6217.729913,6957.935855,-536.266849
134.265091,6513.812290,6735.874072,-995.924147
134.265412,6587.832884,7105.977043,-459.657299
134.265733,6291.750507,7402.059420,-536.266849
134.266054,6069.688724,7772.162391,-383.047749
134.266375,5773.606348,7328.038826,153.219100
134.266696,5625.565159,7550.100608,-306.438199
134.267017,5329.482782,7402.059420,-153.219100
134.267337,5181.441594,7254.018232,-766.095498
134.267658,4515.256246,7476.080014,0.000000
134.267979,4663.297435,7550.100608,0.000000
134.268300,4145.153275,7550.100608,459.657299
134.268621,4293.194464,7994.224174,459.657299
134.268942,4071.132681,8512.368333,536.266849
134.269263,3849.070898,8438.347739,459.657299
134.269584,3552.988522,8142.265362,536.266849
134.269905,3775.050304,8216.285956,0.000000
134.270226,3849.070898,8364.327145,459.657299
134.270547,4071.132681,8882.471304,229.828649
134.270867,3923.091493,8734.430116,-306.438199
134.271188,4293.194464,9252.574275,-383.047749
134.271509,4219.173869,8808.450710,-306.438199
134.271830,4663.297435,8660.409521,0.000000
134.272151,5033.400406,8364.327145,76.609550
134.272472,5181.441594,8068.244768,0.000000
134.272793,5255.462188,7550.100608,-153.219100
134.273114,5699.585753,7402.059420,-306.438199
134.273435,5773.606348,7179.997637,-383.047749
134.273756,6143.709319,7105.977043,0.000000
134.274076,6439.791695,7550.100608,0.000000
134.274397,6661.853478,7476.080014,-766.095498
134.274718,6587.832884,7698.141797,-919.314598
134.275039,6661.853478,7402.059420,-842.705048
134.275360,6809.894666,7476.080014,-995.924147
134.275681,6735.874072,7920.203579,-1149.143247
134.276002,6291.750507,8142.265362,-766.095498
134.276323,6291.750507,8290.306550,-766.095498
134.276644,6069.688724,8364.327145,-536.266849
134.276965,5181.441594,8216.285956,-1072.533697
134.277286,4959.379811,8068.244768,-536.266849
134.277606,4663.297435,8364.327145,0.000000
134.277927,4441.235652,8808.450710,0.000000
134.278248,3627.009116,8364.327145,0.000000
134.278569,3701.029710,8956.491898,536.266849
134.278890,3701.029710,8734.430116,383.047749
134.279211,3775.050304,9474.636058,766.095498
134.279532,3256.906145,8956.491898,153.219100
134.279853,3627.009116,9252.574275,0.000000
134.280174,3552.988522,9104.533087,306.438199
134.280495,3775.050304,9104.533087,459.657299
134.280816,4071.132681,9178.553681,0.000000
134.281136,4071.132681,9030.512492,-306.438199
134.281457,4367.215058,9178.553681,-229.828649
134.281778,4737.318029,8808.450710,0.000000
134.282099,4737.318029,8364.327145,0.000000
134.282420,5255.462188,7994.224174,153.219100
134.282741,4885.359217,7772.162391,306.438199
134.283062,5329.482782,7698.141797,0.000000
134.283383,5329.482782,7105.977043,-76.609550
134.283704,5625.565159,6809.894666,0.000000
134.284025,5625.565159,6809.894666,306.438199
134.284345,6143.709319,6735.874072,0.000000
134.284666,5921.647536,7105.977043,-842.705048
134.284987,6291.750507,6661.853478,-1225.752797
134.285308,6365.771101,7031.956449,-1072.533697
134.285629,6513.812290,6957.935855,-919.314598
134.285950,6069.688724,7624.121203,0.000000
134.286271,5773.606348,7550.100608,-306.438199
134.286592,5625.565159,8068.244768,-76.609550
134.286913,5477.523971,7698.141797,-306.438199
134.287234,4885.359217,7550.100608,-229.828649
134.287555,4737.318029,7624.121203,-229.828649
134.287875,4515.256246,8068.244768,229.828649
134.288196,4145.153275,7994.224174,153.219100
134.288517,3923.091493,8290.306550,306.438199
134.288838,3849.070898,8512.368333,612.876398
134.289159,3701.029710,9104.533087,459.657299
134.289480,3552.988522,8364.327145,766.095498
134.289801,3404.947333,8438.347739,306.438199
134.290122,3552.988522,8586.388927,76.609550
134.290443,4145.153275,8956.491898,153.219100
134.290764,3997.112087,9030.512492,76.609550
134.291085,4145.153275,9326.594869,-153.219100
134.291405,4515.256246,8808.450710,-306.438199
134.291726,4959.379811,8734.430116,306.438199
134.292047,4663.297435,8216.285956,612.876398
134.292368,5403.503377,8142.265362,995.924147
