#time,accel_x,accel_y,accel_z
93.025338,5181.441594,7994.224174,-153.219100
93.025659,4811.338623,8216.285956,0.000000
93.025980,5181.441594,8068.244768,-383.047749
93.026300,4811.338623,8734.430116,-306.438199
93.026621,5255.462188,8142.265362,-229.828649
93.026942,5181.441594,8142.265362,0.000000
93.027262,4959.379811,8142.265362,-76.609550
93.027583,5033.400406,8216.285956,-459.657299
93.027903,5329.482782,8290.306550,-229.828649
93.028224,5107.421000,8142.265362,-383.047749
93.028545,5033.400406,8068.244768,-306.438199
93.028865,5107.421000,7994.224174,0.000000
93.029186,5255.462188,7772.162391,0.000000
93.029507,5403.503377,8068.244768,0.000000
93.029827,4959.379811,7994.224174,-306.438199
93.030148,4885.359217,8216.285956,0.000000
93.030469,4959.379811,7920.203579,-306.438199
93.030789,4811.338623,7994.224174,0.000000
93.031110,5033.400406,8068.244768,-229.828649
93.031431,4737.318029,8216.285956,0.000000
93.031751,5033.400406,7920.203579,-76.609550
93.032072,4885.359217,7994.224174,-153.219100
93.032393,4959.379811,8068.244768,-229.828649
93.032713,5107.421000,7994.224174,153.219100
93.033034,4885.359217,7920.203579,0.000000
93.033354,4811.338623,8142.265362,0.000000
93.033675,5107.421000,8068.244768,-229.828649
93.033996,4737.318029,8142.265362,-229.828649
93.034316,5181.441594,8216.285956,0.000000
93.034637,4885.359217,8216.285956,-306.438199
93.034958,5255.462188,7994.224174,-229.828649
93.035278,4885.359217,8142.265362,-306.438199
93.035599,4959.379811,7994.224174,-306.438199
93.035920,5033.400406,7994.224174,153.219100
93.036240,4959.379811,7994.224174,0.000000
93.036561,5033.400406,8142.265362,-229.828649
93.036882,4737.318029,8216.285956,0.000000
93.037202,4959.379811,7920.203579,0.000000
93.037523,4589.276840,7994.224174,229.828649
93.037844,4663.297435,7402.059420,0.000000
93.038164,4219.173869,7698.141797,-612.876398
93.038485,4367.215058,8364.327145,-536.266849
93.038805,4663.297435,9696.697840,-536.266849
93.039126,5033.400406,9696.697840,-1149.143247
93.039447,4737.318029,9548.656652,-1072.533697
93.039767,4219.173869,9252.574275,-536.266849
93.040088,3552.988522,8734.430116,229.828649
93.040409,2960.823768,9326.594869,842.705048
93.040729,3108.864956,9622.677246,1149.143247
93.041050,2738.761985,8734.430116,459.657299
93.041371,2960.823768,8216.285956,0.000000
93.041691,3256.906145,8216.285956,-306.438199
93.042012,3330.926739,9104.533087,0.000000
93.042333,3182.885551,9992.780217,383.047749
93.042653,2738.761985,9400.615463,229.828649
93.042974,2516.700203,8882.471304,153.219100
93.043295,2590.720797,9400.615463,-229.828649
93.043615,1998.556043,10881.027347,-306.438199
93.043936,1776.494261,11547.212695,-1225.752797
93.044256,1110.308913,11695.253884,-995.924147
93.044577,1036.288319,11251.130318,-1378.971896
93.044898,148.041188,11325.150913,-1455.581446
93.045218,-370.102971,11621.233289,-1378.971896
93.045539,-1554.432478,12657.521608,-612.876398
93.045860,-1998.556043,13249.686362,383.047749
93.046180,-2146.597232,12509.480420,1149.143247
93.046501,-1776.494261,11843.295072,1532.190996
93.046822,-1628.453072,11695.253884,1991.848295
93.047142,-2442.679609,12361.439231,1915.238745
93.047463,-3034.844362,11251.130318,229.828649
93.047784,-2294.638420,10288.862594,-766.095498
93.048104,-1332.370696,9696.697840,-383.047749
93.048425,-592.164754,9696.697840,919.314598
93.048746,444.123565,10140.821405,1302.362347
93.049066,370.102971,10732.986159,153.219100
93.049387,888.247130,11325.150913,-1072.533697
93.049707,1776.494261,11029.068536,-919.314598
93.050028,2590.720797,10140.821405,-536.266849
93.050349,3256.906145,10140.821405,76.609550
93.050669,3108.864956,9770.718434,-1149.143247
93.050990,2590.720797,9474.636058,-2451.505594
93.051311,2368.659014,9030.512492,-2757.943793
93.051631,2146.597232,9326.594869,-1378.971896
93.051952,2516.700203,9474.636058,-689.485948
93.052273,2072.576638,10140.821405,-153.219100
93.052593,1554.432478,10584.944971,-536.266849
93.052914,814.226536,11103.089130,-459.657299
93.053235,0.000000,10955.047942,-383.047749
93.053555,-370.102971,10214.842000,306.438199
93.053876,-518.144159,10436.903782,612.876398
93.054197,-370.102971,10658.965565,919.314598
93.054517,-814.226536,10881.027347,1302.362347
93.054838,-1480.411884,11251.130318,1072.533697
93.055158,0.000000,11251.130318,766.095498
93.055479,296.082377,11177.109724,1149.143247
93.055800,962.267725,11177.109724,536.266849
93.056120,962.267725,11029.068536,0.000000
93.056441,1332.370696,10584.944971,-1455.581446
93.056762,1628.453072,10288.862594,-306.438199
93.057082,1702.473667,9918.759623,0.000000
93.057403,1776.494261,9252.574275,229.828649
93.057724,2368.659014,9326.594869,76.609550
93.058044,2738.761985,9844.739029,153.219100
93.058365,2442.679609,10881.027347,-766.095498
93.058686,2664.741391,10436.903782,-842.705048
93.059006,3034.844362,10140.821405,-1378.971896
93.059327,3404.947333,10066.800811,-1378.971896
93.059648,3775.050304,9696.697840,-1608.800546
93.059968,3849.070898,9918.759623,-995.924147
93.060289,3034.844362,10066.800811,-536.266849
93.060609,2220.617826,10510.924376,-153.219100
93.060930,2368.659014,10362.883188,-153.219100
93.061251,1998.556043,9844.739029,-612.876398
93.061571,1702.473667,8586.388927,-1608.800546
93.061892,1184.329507,7105.977043,-1378.971896
93.062213,1332.370696,6513.812290,-306.438199
93.062533,1036.288319,6661.853478,919.314598
93.062854,2368.659014,8438.347739,2068.457845
93.063175,3404.947333,10658.965565,1762.019645
93.063495,3034.844362,11917.315666,766.095498
93.063816,3775.050304,11917.315666,-689.485948
93.064137,4367.215058,10955.047942,-919.314598
93.064457,4737.318029,9696.697840,-536.266849
93.064778,4737.318029,8142.265362,153.219100
93.065099,3923.091493,8216.285956,-995.924147
93.065419,2812.782580,8586.388927,-1991.848295
93.065740,2220.617826,8512.368333,-1915.238745
93.066060,1776.494261,7624.121203,-1378.971896
93.066381,1850.514855,7179.997637,-919.314598
93.066702,3552.988522,8290.306550,1072.533697
93.067022,4959.379811,10214.842000,2221.676944
93.067343,4589.276840,10732.986159,1532.190996
93.067664,3997.112087,10140.821405,153.219100
93.067984,5033.400406,9548.656652,-459.657299
93.068305,5699.585753,7846.182985,-153.219100
93.068626,6217.729913,7476.080014,-612.876398
93.068946,7031.956449,7105.977043,-1608.800546
93.069267,7328.038826,7402.059420,-1608.800546
93.069588,5255.462188,7105.977043,-689.485948
93.069908,4219.173869,5995.668130,0.000000
93.070229,3256.906145,5403.503377,0.000000
93.070550,4515.256246,6365.771101,459.657299
93.070870,5625.565159,7698.141797,1072.533697
93.071191,6143.709319,8216.285956,383.047749
93.071511,6439.791695,8734.430116,-766.095498
93.071832,6069.688724,10066.800811,-1608.800546
93.072153,5625.565159,10955.047942,-1685.410096
93.072473,5477.523971,10140.821405,-1225.752797
93.072794,6069.688724,9400.615463,-995.924147
93.073115,5995.668130,8290.306550,-459.657299
93.073435,4811.338623,7772.162391,842.705048
93.073756,2516.700203,7476.080014,1455.581446
93.074077,2294.638420,7550.100608,1455.581446
93.074397,2368.659014,7476.080014,1455.581446
93.074718,2368.659014,6587.832884,766.095498
93.075039,2516.700203,5921.647536,612.876398
93.075359,4219.173869,6957.935855,1225.752797
93.075680,5033.400406,9474.636058,689.485948
93.076001,5625.565159,11251.130318,-766.095498
93.076321,6069.688724,10436.903782,-1838.629195
93.076642,7105.977043,9400.615463,-2681.334243
93.076962,6513.812290,7920.203579,-1915.238745
93.077283,5921.647536,7476.080014,-76.609550
93.077604,5033.400406,7624.121203,0.000000
93.077924,5107.421000,8586.388927,-842.705048
93.078245,5181.441594,8586.388927,-536.266849
93.078566,5033.400406,7328.038826,-536.266849
93.078886,3701.029710,5625.565159,-459.657299
93.079207,4071.132681,5403.503377,0.000000
93.079528,4367.215058,7105.977043,1072.533697
93.079848,4589.276840,9474.636058,76.609550
93.080169,5255.462188,10288.862594,-1302.362347
93.080490,5551.544565,10362.883188,-1532.190996
93.080810,4663.297435,8956.491898,-2068.457845
93.081131,3034.844362,8068.244768,76.609550
93.081452,3552.988522,8364.327145,1608.800546
93.081772,3330.926739,9326.594869,919.314598
93.082093,3997.112087,9474.636058,76.609550
93.082414,3923.091493,9326.594869,-383.047749
93.082734,3182.885551,8068.244768,-1378.971896
93.083055,3256.906145,7105.977043,-306.438199
93.083375,4737.318029,7402.059420,536.266849
93.083696,5551.544565,8586.388927,1532.190996
93.084017,5403.503377,9474.636058,153.219100
93.084337,5181.441594,9030.512492,-1225.752797
93.084658,5625.565159,8734.430116,-1225.752797
93.084979,4219.173869,8734.430116,76.609550
93.085299,4515.256246,8068.244768,995.924147
93.085620,5329.482782,7624.121203,842.705048
93.085941,5773.606348,8364.327145,612.876398
93.086261,4441.235652,8142.265362,229.828649
93.086582,3849.070898,7179.997637,-766.095498
93.086903,5255.462188,6291.750507,-995.924147
93.087223,6439.791695,7402.059420,0.000000
93.087544,7254.018232,7550.100608,-229.828649
93.087865,7105.977043,7624.121203,-842.705048
93.088185,6291.750507,7698.141797,-1072.533697
93.088506,4737.318029,8438.347739,-536.266849
93.088827,5255.462188,7994.224174,0.000000
93.089148,5625.565159,6883.915261,459.657299
93.089468,5921.647536,6809.894666,383.047749
93.089789,5329.482782,7105.977043,612.876398
93.090110,4293.194464,7550.100608,536.266849
93.090430,4515.256246,7402.059420,-153.219100
93.090751,4811.338623,6957.935855,0.000000
93.091072,6069.688724,7031.956449,76.609550
93.091393,6439.791695,7772.162391,0.000000
93.091713,5403.503377,9104.533087,-1072.533697
93.092034,4367.215058,8956.491898,-1302.362347
93.092355,4589.276840,8512.368333,0.000000
93.092675,5329.482782,7550.100608,766.095498
93.092996,4959.379811,7105.977043,766.095498
93.093317,4441.235652,7179.997637,0.000000
93.093638,3552.988522,8734.430116,-459.657299
93.093958,3256.906145,9548.656652,-383.047749
93.094279,4663.297435,9474.636058,153.219100
93.094600,6069.688724,8512.368333,-229.828649
93.094920,5995.668130,7994.224174,-1225.752797
93.095241,5477.523971,8660.409521,0.000000
93.095562,4293.194464,8808.450710,76.609550
93.095883,4145.153275,8068.244768,459.657299
93.096203,5255.462188,6957.935855,1149.143247
93.096524,6291.750507,7328.038826,536.266849
93.096845,5625.565159,8512.368333,229.828649
93.097165,4293.194464,9474.636058,-995.924147
93.097486,3775.050304,9252.574275,-1685.410096
93.097807,4145.153275,8808.450710,-153.219100
93.098127,5329.482782,7994.224174,842.705048
93.098448,5403.503377,7920.203579,0.000000
93.098769,4441.235652,8512.368333,-919.314598
93.099090,3849.070898,9696.697840,-1762.019645
93.099410,3701.029710,9326.594869,-842.705048
93.099731,4589.276840,7994.224174,306.438199
93.100052,5847.626942,7031.956449,1685.410096
93.100372,5773.606348,7179.997637,1302.362347
93.100693,4293.194464,7550.100608,306.438199
93.101014,3182.885551,8364.327145,-766.095498
93.101335,3849.070898,8586.388927,-459.657299
93.101655,5403.503377,8808.450710,0.000000
93.101976,6809.894666,8438.347739,76.609550
93.102297,6291.750507,8290.306550,-995.924147
93.102617,4737.318029,8364.327145,-1838.629195
93.102938,4071.132681,7994.224174,-1455.581446
93.103259,4737.318029,7254.018232,0.000000
93.103580,6143.709319,6809.894666,766.095498
93.103900,7402.059420,6661.853478,689.485948
93.104221,7105.977043,7328.038826,-229.828649
93.104542,5551.544565,7328.038826,-306.438199
93.104862,5255.462188,7254.018232,-766.095498
93.105183,5921.647536,6809.894666,76.609550
93.105504,7105.977043,6661.853478,76.609550
93.105825,7402.059420,6809.894666,-306.438199
93.106145,6365.771101,7402.059420,-1378.971896
93.106466,4811.338623,7772.162391,-2145.067394
93.106787,5033.400406,7550.100608,-919.314598
93.107107,5551.544565,7254.018232,612.876398
93.107428,6439.791695,6735.874072,995.924147
93.107749,6883.915261,6883.915261,919.314598
93.108069,5773.606348,7698.141797,-153.219100
93.108390,4441.235652,8512.368333,-612.876398
93.108711,4663.297435,8882.471304,-306.438199
93.109032,6365.771101,8216.285956,-306.438199
93.109352,7254.018232,8068.244768,153.219100
93.109673,6365.771101,8660.409521,-306.438199
93.109994,4589.276840,8512.368333,-995.924147
93.110314,3034.844362,8290.306550,-306.438199
93.110635,3404.947333,7550.100608,919.314598
93.110956,4367.215058,7105.977043,1225.752797
93.111277,5107.421000,6957.935855,1225.752797
93.111597,4959.379811,7920.203579,383.047749
93.111918,3775.050304,9104.533087,0.000000
93.112239,3627.009116,9548.656652,-459.657299
93.112559,4737.318029,9400.615463,76.609550
93.112880,6217.729913,9104.533087,229.828649
93.113201,6661.853478,8956.491898,0.000000
93.113522,5181.441594,8660.409521,-1149.143247
93.113842,3478.967927,8290.306550,-1378.971896
93.114163,3775.050304,7624.121203,-766.095498
93.114484,4441.235652,7402.059420,306.438199
93.114804,5329.482782,7105.977043,229.828649
93.115125,4885.359217,7254.018232,0.000000
93.115446,4145.153275,8512.368333,-459.657299
93.115767,3404.947333,8808.450710,-383.047749
93.116087,4367.215058,9400.615463,229.828649
93.116408,5699.585753,8364.327145,459.657299
93.116729,6069.688724,8438.347739,383.047749
93.117049,5625.565159,8290.306550,0.000000
93.117370,4663.297435,7550.100608,-612.876398
93.117691,4293.194464,7476.080014,0.000000
93.118012,4737.318029,6735.874072,383.047749
93.118332,5255.462188,5921.647536,306.438199
93.118653,5921.647536,5847.626942,-229.828649
93.118974,5921.647536,6957.935855,0.000000
93.119294,4959.379811,8068.244768,-153.219100
93.119615,4811.338623,8512.368333,306.438199
93.119936,5995.668130,8290.306550,0.000000
93.120256,7254.018232,8290.306550,-76.609550
93.120577,7179.997637,7994.224174,-536.266849
93.120898,5477.523971,8142.265362,-689.485948
93.121219,4959.379811,7624.121203,-919.314598
93.121539,4737.318029,7624.121203,0.000000
93.121860,5921.647536,6735.874072,612.876398
93.122181,5995.668130,6069.688724,383.047749
93.122501,5995.668130,7328.038826,-383.047749
93.122822,5033.400406,8142.265362,-229.828649
93.123143,4589.276840,8364.327145,-689.485948
93.123464,5847.626942,7550.100608,-612.876398
93.123784,7402.059420,7624.121203,-306.438199
93.124105,7328.038826,8438.347739,0.000000
93.124426,5847.626942,8882.471304,-842.705048
93.124746,4441.235652,8364.327145,-1532.190996
93.125067,4885.359217,7994.224174,-919.314598
93.125388,5477.523971,7254.018232,612.876398
93.125709,5995.668130,6587.832884,995.924147
93.126029,5625.565159,6587.832884,76.609550
93.126350,4885.359217,7994.224174,-612.876398
93.126671,4441.235652,8808.450710,-766.095498
93.126991,5107.421000,8956.491898,-536.266849
93.127312,6291.750507,8882.471304,0.000000
93.127633,6809.894666,9326.594869,0.000000
93.127954,5255.462188,9252.574275,-842.705048
93.128274,3627.009116,8438.347739,-1072.533697
93.128595,3256.906145,7994.224174,-689.485948
93.128916,4145.153275,8142.265362,536.266849
93.129236,4663.297435,7846.182985,766.095498
93.129557,4589.276840,8142.265362,0.000000
93.129878,4219.173869,8882.471304,-995.924147
93.130198,3478.967927,9696.697840,-919.314598
93.130519,3997.112087,9474.636058,536.266849
93.130840,5107.421000,9326.594869,842.705048
93.131161,5699.585753,9178.553681,689.485948
93.131481,4737.318029,9252.574275,0.000000
93.131802,3552.988522,8882.471304,-919.314598
93.132123,2664.741391,8586.388927,-612.876398
93.132443,3701.029710,7920.203579,153.219100
93.132764,4811.338623,7105.977043,1072.533697
93.133085,5921.647536,6661.853478,306.438199
93.133406,5181.441594,6957.935855,-536.266849
93.133726,4219.173869,8364.327145,0.000000
93.134047,3997.112087,9622.677246,383.047749
93.134368,5033.400406,10066.800811,306.438199
93.134688,6365.771101,9400.615463,306.438199
93.135009,7031.956449,8882.471304,-612.876398
93.135330,4885.359217,8142.265362,-1378.971896
93.135651,3330.926739,7179.997637,-1225.752797
93.135971,3775.050304,7105.977043,76.609550
93.136292,4293.194464,6661.853478,536.266849
93.136613,5107.421000,6587.832884,1072.533697
93.136933,6291.750507,6809.894666,306.438199
93.137254,4441.235652,8364.327145,-995.924147
93.137575,3775.050304,9696.697840,76.609550
93.137896,4737.318029,9104.533087,689.485948
93.138216,6143.709319,8142.265362,766.095498
93.138537,6661.853478,7105.977043,919.314598
93.138858,5551.544565,7698.141797,-153.219100
93.139178,3849.070898,8216.285956,-1455.581446
93.139499,3701.029710,8364.327145,-1149.143247
93.139820,4885.359217,7846.182985,153.219100
93.140141,5625.565159,6587.832884,-383.047749
93.140461,6365.771101,5773.606348,536.266849
93.140782,5255.462188,6809.894666,459.657299
93.141103,3701.029710,8068.244768,-229.828649
93.141423,4145.153275,8808.450710,-766.095498
93.141744,6143.709319,9104.533087,-919.314598
93.142065,7624.121203,7994.224174,-229.828649
93.142385,7105.977043,7994.224174,0.000000
93.142706,5033.400406,8216.285956,-919.314598
93.143027,3478.967927,8438.347739,-1608.800546
93.143348,3627.009116,7920.203579,-612.876398
93.143668,4959.379811,6809.894666,0.000000
93.143989,5847.626942,6143.709319,-306.438199
93.144310,5625.565159,7476.080014,-153.219100
93.144630,4367.215058,9474.636058,-612.876398
93.144951,3627.009116,9844.739029,-919.314598
93.145272,4589.276840,9326.594869,-536.266849
93.145593,6217.729913,8882.471304,76.609550
93.145913,6587.832884,9474.636058,229.828649
93.146234,4885.359217,9474.636058,-919.314598
93.146555,3330.926739,8882.471304,-1762.019645
93.146875,3404.947333,8512.368333,-1302.362347
93.147196,3775.050304,7179.997637,153.219100
93.147517,4441.235652,6735.874072,1072.533697
93.147838,4589.276840,7476.080014,76.609550
93.148158,4219.173869,8956.491898,-306.438199
93.148479,3478.967927,10362.883188,-536.266849
93.148800,3997.112087,10436.903782,-612.876398
93.149120,5625.565159,9400.615463,-383.047749
93.149441,6217.729913,9030.512492,536.266849
93.149762,5329.482782,9252.574275,383.047749
93.150083,3552.988522,8142.265362,-842.705048
93.150403,3478.967927,8290.306550,-1225.752797
93.150724,4219.173869,8364.327145,-306.438199
93.151045,4737.318029,7846.182985,229.828649
93.151365,5403.503377,7254.018232,153.219100
93.151686,5255.462188,8142.265362,-612.876398
93.152007,3923.091493,9030.512492,-536.266849
93.152327,3108.864956,8956.491898,76.609550
93.152648,4737.318029,8586.388927,536.266849
93.152969,6143.709319,8364.327145,536.266849
93.153290,5847.626942,8808.450710,76.609550
93.153610,4737.318029,8290.306550,-842.705048
93.153931,3552.988522,7994.224174,-1149.143247
93.154252,3849.070898,7031.956449,76.609550
93.154572,4663.297435,6587.832884,1225.752797
93.154893,5403.503377,5847.626942,842.705048
93.155214,5033.400406,6291.750507,76.609550
93.155535,5033.400406,7624.121203,-306.438199
93.155855,4441.235652,9030.512492,-306.438199
93.156176,5773.606348,8290.306550,-383.047749
93.156497,6809.894666,7846.182985,-612.876398
93.156817,7402.059420,7846.182985,-842.705048
93.157138,6069.688724,7994.224174,-995.924147
93.157459,4441.235652,7920.203579,-459.657299
93.157780,4515.256246,7550.100608,-383.047749
93.158100,5107.421000,7254.018232,0.000000
93.158421,5181.441594,7105.977043,919.314598
93.158742,5181.441594,6735.874072,612.876398
93.159062,4441.235652,6957.935855,306.438199
93.159383,3701.029710,7772.162391,0.000000
93.159704,3923.091493,8216.285956,0.000000
93.160025,5403.503377,8882.471304,153.219100
93.160345,6661.853478,9030.512492,0.000000
93.160666,5625.565159,9326.594869,-766.095498
93.160987,4145.153275,8586.388927,-689.485948
93.161307,3404.947333,7920.203579,76.609550
93.161628,3775.050304,8068.244768,536.266849
93.161949,4515.256246,7476.080014,689.485948
93.162270,5107.421000,7476.080014,0.000000
93.162590,4959.379811,8068.244768,-842.705048
93.162911,4145.153275,8660.409521,-459.657299
93.163232,4145.153275,9178.553681,0.000000
93.163552,5551.544565,8956.491898,0.000000
93.163873,6587.832884,8808.450710,-229.828649
93.164194,5847.626942,8882.471304,-919.314598
93.164514,4441.235652,8734.430116,-1455.581446
93.164835,3775.050304,8586.388927,-1455.581446
93.165156,3775.050304,8586.388927,0.000000
93.165477,4145.153275,7994.224174,229.828649
93.165797,4885.359217,7105.977043,-229.828649
93.166118,4737.318029,7846.182985,-1302.362347
93.166439,3849.070898,9474.636058,-919.314598
93.166759,3404.947333,10732.986159,-229.828649
93.167080,4145.153275,9918.759623,0.000000
93.167401,5773.606348,9474.636058,0.000000
93.167722,5699.585753,9400.615463,306.438199
93.168042,4219.173869,8882.471304,-383.047749
93.168363,3256.906145,8364.327145,-842.705048
93.168684,3034.844362,7698.141797,-306.438199
93.169004,3923.091493,7476.080014,229.828649
93.169325,4811.338623,7031.956449,766.095498
93.169646,5107.421000,7254.018232,0.000000
93.169967,4885.359217,9030.512492,76.609550
93.170287,3997.112087,9548.656652,76.609550
93.170608,4589.276840,9400.615463,-153.219100
93.170929,6217.729913,8734.430116,-153.219100
93.171249,7402.059420,8734.430116,0.000000
93.171570,6735.874072,8290.306550,0.000000
93.171891,4885.359217,7846.182985,-995.924147
93.172212,4663.297435,7550.100608,-1378.971896
93.172532,4515.256246,6809.894666,-153.219100
93.172853,5107.421000,6143.709319,689.485948
93.173174,5551.544565,6217.729913,689.485948
93.173494,5255.462188,7105.977043,383.047749
93.173815,4293.194464,8290.306550,0.000000
93.174136,4663.297435,8512.368333,-153.219100
93.174456,5625.565159,7920.203579,0.000000
93.174777,7254.018232,7698.141797,842.705048
93.175098,7402.059420,7550.100608,689.485948
93.175419,5625.565159,7254.018232,-689.485948
93.175739,4145.153275,7031.956449,-1455.581446
93.176060,5255.462188,7476.080014,-229.828649
93.176381,5773.606348,7031.956449,383.047749
93.176701,5625.565159,5921.647536,536.266849
93.177022,6069.688724,5995.668130,0.000000
93.177343,4737.318029,7105.977043,-536.266849
93.177664,4071.132681,7846.182985,-306.438199
93.177984,5551.544565,8068.244768,383.047749
93.178305,6735.874072,7920.203579,-459.657299
93.178626,7402.059420,8808.450710,-383.047749
93.178946,6365.771101,9104.533087,-689.485948
93.179267,4589.276840,7994.224174,-1762.019645
93.179588,4663.297435,7254.018232,-766.095498
93.179909,4885.359217,7254.018232,689.485948
93.180229,5033.400406,6809.894666,459.657299
93.180550,4737.318029,6365.771101,153.219100
93.180871,4589.276840,7698.141797,-536.266849
93.181191,3627.009116,9622.677246,-383.047749
93.181512,4071.132681,10436.903782,0.000000
93.181833,5477.523971,9844.739029,0.000000
93.182154,5921.647536,9844.739029,0.000000
93.182474,5181.441594,9474.636058,0.000000
93.182795,3552.988522,8660.409521,-383.047749
93.183116,2072.576638,7698.141797,-229.828649
93.183436,3478.967927,7920.203579,536.266849
93.183757,4589.276840,7846.182985,612.876398
93.184078,4589.276840,7476.080014,-229.828649
93.184399,4663.297435,8142.265362,-689.485948
93.184719,4219.173869,9178.553681,-306.438199
93.185040,4071.132681,9400.615463,-306.438199
93.185361,5477.523971,9178.553681,0.000000
93.185681,6809.894666,9178.553681,-306.438199
93.186002,6513.812290,9326.594869,-536.266849
93.186323,5107.421000,8808.450710,-1149.143247
93.186643,4293.194464,7920.203579,-995.924147
93.186964,4293.194464,7698.141797,-306.438199
93.187285,4441.235652,7254.018232,153.219100
93.187605,5033.400406,7254.018232,-229.828649
93.187926,5107.421000,7476.080014,-689.485948
93.188246,4589.276840,8290.306550,-306.438199
93.188567,4145.153275,9178.553681,76.609550
93.188888,4885.359217,8808.450710,229.828649
93.189208,6069.688724,8956.491898,153.219100
93.189529,6143.709319,8512.368333,-229.828649
93.189850,5255.462188,7846.182985,-76.609550
93.190170,4071.132681,6661.853478,-459.657299
93.190491,4293.194464,6883.915261,76.609550
93.190812,4663.297435,7476.080014,766.095498
93.191132,5181.441594,7179.997637,383.047749
93.191453,5329.482782,6661.853478,-76.609550
93.191773,5847.626942,6661.853478,-153.219100
93.192094,5329.482782,7994.224174,306.438199
93.192415,4959.379811,8216.285956,383.047749
93.192735,6365.771101,7846.182985,-229.828649
93.193056,7920.203579,8290.306550,153.219100
93.193377,7105.977043,8364.327145,-459.657299
93.193697,5551.544565,7402.059420,-919.314598
93.194018,4589.276840,7105.977043,-612.876398
93.194338,4737.318029,7550.100608,536.266849
93.194659,5255.462188,6513.812290,689.485948
93.194980,5625.565159,5255.462188,153.219100
93.195300,5995.668130,6217.729913,-459.657299
93.195621,4737.318029,7994.224174,76.609550
93.195942,4219.173869,8882.471304,153.219100
93.196262,5921.647536,8882.471304,0.000000
93.196583,7105.977043,8586.388927,-153.219100
93.196903,7402.059420,8660.409521,0.000000
93.197224,5477.523971,7920.203579,-689.485948
93.197545,3997.112087,7254.018232,-1378.971896
93.197865,4219.173869,6883.915261,-229.828649
93.198186,5551.544565,6587.832884,1072.533697
93.198507,5847.626942,6513.812290,229.828649
93.198827,5477.523971,7254.018232,-612.876398
93.199148,4885.359217,8882.471304,-919.314598
93.199469,4737.318029,9696.697840,-306.438199
93.199789,5403.503377,8438.347739,-153.219100
93.200110,7105.977043,7846.182985,-229.828649
93.200430,7031.956449,8216.285956,0.000000
93.200751,5255.462188,8586.388927,-536.266849
93.201072,3923.091493,8438.347739,-1302.362347
93.201392,3701.029710,8142.265362,-1225.752797
93.201713,4589.276840,7772.162391,0.000000
93.202034,5107.421000,7402.059420,0.000000
93.202354,5107.421000,7476.080014,-459.657299
93.202675,4367.215058,8660.409521,-459.657299
93.202995,3627.009116,9548.656652,-383.047749
93.203316,3775.050304,9918.759623,0.000000
93.203637,5033.400406,9918.759623,0.000000
93.203957,6069.688724,9992.780217,76.609550
93.204278,5477.523971,9474.636058,0.000000
93.204599,4071.132681,8586.388927,-766.095498
93.204919,3330.926739,8068.244768,-306.438199
93.205240,3775.050304,7402.059420,536.266849
93.205560,4441.235652,7254.018232,1149.143247
93.205881,4959.379811,6809.894666,995.924147
93.206202,5551.544565,7105.977043,459.657299
93.206522,4589.276840,8512.368333,76.609550
93.206843,4367.215058,9474.636058,-306.438199
93.207164,6069.688724,9400.615463,-306.438199
93.207484,7772.162391,8734.430116,-689.485948
93.207805,7328.038826,7994.224174,-689.485948
93.208126,5921.647536,7698.141797,-1302.362347
93.208446,4219.173869,7550.100608,-1302.362347
93.208767,3923.091493,7920.203579,-842.705048
93.209087,4663.297435,7698.141797,153.219100
93.209408,5255.462188,6735.874072,76.609550
93.209729,5477.523971,6587.832884,-153.219100
93.210049,4219.173869,7772.162391,0.000000
93.210370,3330.926739,9474.636058,-229.828649
93.210691,4293.194464,9030.512492,306.438199
93.211011,5847.626942,8512.368333,76.609550
93.211332,6809.894666,8216.285956,612.876398
93.211652,5403.503377,7772.162391,153.219100
93.211973,3849.070898,7328.038826,-612.876398
93.212294,3701.029710,7328.038826,536.266849
93.212614,4441.235652,7179.997637,919.314598
93.212935,4885.359217,6143.709319,766.095498
93.213256,5699.585753,5625.565159,76.609550
93.213576,5477.523971,7031.956449,229.828649
93.213897,4959.379811,7994.224174,76.609550
93.214217,5107.421000,8364.327145,153.219100
93.214538,7031.956449,7994.224174,-459.657299
93.214859,7846.182985,7920.203579,-76.609550
93.215179,7328.038826,7994.224174,-306.438199
93.215500,5921.647536,7772.162391,-995.924147
93.215821,4515.256246,7105.977043,-1225.752797
93.216141,5033.400406,6957.935855,-536.266849
93.216462,5551.544565,6217.729913,-153.219100
93.216783,5921.647536,6143.709319,-612.876398
93.217103,5847.626942,7105.977043,-689.485948
93.217424,4737.318029,8364.327145,-459.657299
93.217744,4293.194464,8734.430116,-306.438199
93.218065,5625.565159,8660.409521,0.000000
93.218386,6883.915261,9326.594869,0.000000
93.218706,6291.750507,9696.697840,-459.657299
93.219027,4737.318029,9104.533087,-919.314598
93.219348,3330.926739,8290.306550,-1685.410096
93.219668,3256.906145,7476.080014,-842.705048
93.219989,4071.132681,7105.977043,766.095498
93.220309,4737.318029,6809.894666,995.924147
93.220630,4145.153275,8068.244768,306.438199
93.220951,4219.173869,9474.636058,76.609550
93.221271,3627.009116,10214.842000,-536.266849
93.221592,4441.235652,9696.697840,-689.485948
93.221913,6217.729913,9178.553681,306.438199
93.222233,6587.832884,9548.656652,459.657299
93.222554,4811.338623,9400.615463,-612.876398
93.222875,3404.947333,8290.306550,-995.924147
93.223195,3256.906145,7846.182985,-1532.190996
93.223516,3701.029710,8364.327145,-153.219100
93.223836,4367.215058,8586.388927,383.047749
93.224157,5181.441594,8290.306550,-459.657299
93.224478,4441.235652,8808.450710,-306.438199
93.224798,3552.988522,9252.574275,0.000000
93.225119,3701.029710,9474.636058,76.609550
93.225440,4737.318029,8660.409521,229.828649
93.225760,6217.729913,9474.636058,0.000000
93.226081,5625.565159,9696.697840,-995.924147
93.226401,4441.235652,8438.347739,-1532.190996
93.226722,4219.173869,7328.038826,-383.047749
93.227043,4071.132681,7254.018232,842.705048
93.227363,4219.173869,7328.038826,1762.019645
93.227684,4441.235652,6291.750507,306.438199
93.228005,4515.256246,6883.915261,-153.219100
93.228325,4663.297435,7994.224174,-76.609550
93.228646,4663.297435,8512.368333,689.485948
93.228966,5699.585753,8364.327145,153.219100
93.229287,6365.771101,8290.306550,-459.657299
93.229608,6143.709319,8290.306550,-1532.190996
93.229928,5477.523971,7624.121203,-1072.533697
93.230249,4293.194464,7476.080014,-842.705048
93.230570,3923.091493,7179.997637,-153.219100
93.230890,4959.379811,7328.038826,306.438199
93.231211,6069.688724,6957.935855,383.047749
93.231532,5033.400406,7105.977043,-229.828649
93.231852,4219.173869,7179.997637,0.000000
93.232173,3775.050304,8142.265362,76.609550
93.232493,4293.194464,8364.327145,229.828649
93.232814,6069.688724,8512.368333,153.219100
93.233135,7402.059420,8586.388927,-459.657299
93.233455,5403.503377,8364.327145,-1225.752797
93.233776,4071.132681,7994.224174,-612.876398
93.234097,3923.091493,7328.038826,612.876398
93.234417,4367.215058,6513.812290,1302.362347
93.234738,5995.668130,5699.585753,1072.533697
93.235058,6143.709319,6957.935855,0.000000
93.235379,4885.359217,8216.285956,-995.924147
93.235700,5033.400406,9104.533087,-919.314598
93.236020,5847.626942,8882.471304,-383.047749
93.236341,6809.894666,8660.409521,-229.828649
93.236662,7105.977043,8290.306550,-76.609550
93.236982,6439.791695,8956.491898,-1378.971896
93.237303,3923.091493,8808.450710,-1838.629195
93.237623,3256.906145,8512.368333,-766.095498
93.237944,4071.132681,7846.182985,0.000000
93.238265,4737.318029,7328.038826,306.438199
93.238585,4737.318029,8068.244768,536.266849
93.238906,3849.070898,8956.491898,0.000000
93.239227,3182.885551,9696.697840,-612.876398
93.239547,3330.926739,9622.677246,0.000000
93.239868,4885.359217,9030.512492,536.266849
93.240189,6217.729913,9400.615463,0.000000
93.240509,5847.626942,9400.615463,-459.657299
93.240830,3997.112087,9474.636058,-1455.581446
93.241150,3182.885551,8438.347739,-1455.581446
93.241471,3552.988522,8364.327145,76.609550
93.241792,4441.235652,7698.141797,1072.533697
93.242112,4737.318029,7624.121203,995.924147
93.242433,5255.462188,7846.182985,0.000000
93.242754,4219.173869,8956.491898,-689.485948
93.243074,2960.823768,8586.388927,-153.219100
93.243395,4737.318029,8808.450710,229.828649
93.243715,6587.832884,8438.347739,-306.438199
93.244036,6957.935855,8882.471304,-1072.533697
93.244357,6365.771101,8882.471304,-1302.362347
93.244677,4663.297435,7920.203579,-1378.971896
93.244998,4071.132681,7328.038826,-383.047749
93.245319,4737.318029,6957.935855,766.095498
93.245639,5847.626942,6365.771101,919.314598
93.245960,5329.482782,7476.080014,536.266849
93.246280,4885.359217,7920.203579,-383.047749
93.246601,4367.215058,8142.265362,-689.485948
93.246922,4367.215058,8290.306550,76.609550
93.247242,5847.626942,7772.162391,153.219100
93.247563,6735.874072,7698.141797,0.000000
93.247884,6143.709319,7920.203579,-766.095498
93.248204,4515.256246,8216.285956,-766.095498
93.248525,3923.091493,8068.244768,-612.876398
93.248846,4441.235652,7846.182985,842.705048
93.249166,5773.606348,7105.977043,1455.581446
93.249487,5699.585753,6587.832884,1072.533697
93.249807,5329.482782,6513.812290,0.000000
93.250128,3775.050304,7328.038826,-306.438199
93.250449,3775.050304,7846.182985,-153.219100
93.250769,6069.688724,7920.203579,306.438199
93.251090,7179.997637,7920.203579,0.000000
93.251411,7624.121203,8290.306550,-383.047749
93.251731,6365.771101,8364.327145,-689.485948
93.252052,4293.194464,8290.306550,-1225.752797
93.252372,4071.132681,7402.059420,0.000000
93.252693,5329.482782,6809.894666,689.485948
93.253014,6439.791695,6513.812290,459.657299
93.253334,5477.523971,7254.018232,76.609550
93.253655,4515.256246,7994.224174,-919.314598
93.253976,4145.153275,9178.553681,-536.266849
93.254296,4885.359217,8882.471304,0.000000
93.254617,6143.709319,8512.368333,0.000000
93.254938,6883.915261,7994.224174,-689.485948
93.255258,5403.503377,8586.388927,-689.485948
93.255579,3552.988522,8660.409521,-1455.581446
93.255899,2886.803174,7920.203579,-306.438199
93.256220,4071.132681,7550.100608,995.924147
93.256541,4959.379811,7328.038826,1072.533697
93.256861,4737.318029,7698.141797,306.438199
93.257182,3849.070898,8660.409521,-459.657299
93.257503,3330.926739,9104.533087,-536.266849
93.257823,3849.070898,9400.615463,0.000000
93.258144,5625.565159,8882.471304,306.438199
93.258464,6217.729913,8808.450710,-306.438199
93.258785,5551.544565,9252.574275,-995.924147
93.259106,4367.215058,9326.594869,-1762.019645
93.259426,3256.906145,8216.285956,-1149.143247
93.259747,3997.112087,7624.121203,0.000000
93.260068,5255.462188,7920.203579,536.266849
93.260388,5477.523971,8290.306550,153.219100
93.260709,3701.029710,8734.430116,-383.047749
93.261029,3330.926739,9178.553681,-612.876398
93.261350,3256.906145,9326.594869,0.000000
93.261671,4589.276840,8956.491898,0.000000
93.261991,6143.709319,8512.368333,153.219100
93.262312,5773.606348,8216.285956,-612.876398
93.262633,4885.359217,8586.388927,-995.924147
93.262953,3997.112087,8956.491898,-153.219100
93.263274,3701.029710,8216.285956,0.000000
93.263595,4663.297435,7328.038826,689.485948
93.263915,5995.668130,6883.915261,1072.533697
93.264236,5773.606348,6883.915261,536.266849
93.264556,4515.256246,7179.997637,306.438199
93.264877,4737.318029,7772.162391,0.000000
93.265198,5255.462188,9104.533087,76.609550
93.265518,6439.791695,9030.512492,76.609550
93.265839,7698.141797,8734.430116,-689.485948
93.266160,6883.915261,8142.265362,-1072.533697
93.266480,5033.400406,7031.956449,-536.266849
93.266801,4811.338623,6957.935855,689.485948
93.267121,5033.400406,5995.668130,536.266849
93.267442,5477.523971,6069.688724,0.000000
93.267763,6365.771101,6735.874072,229.828649
93.268083,5699.585753,7031.956449,0.000000
93.268404,4885.359217,7772.162391,0.000000
93.268725,5551.544565,7402.059420,459.657299
93.269045,6661.853478,7550.100608,76.609550
93.269366,7550.100608,7550.100608,-306.438199
93.269686,7031.956449,7476.080014,-1072.533697
93.270007,5625.565159,7920.203579,-1608.800546
93.270328,4959.379811,6661.853478,-766.095498
93.270648,5699.585753,6735.874072,459.657299
93.270969,6217.729913,7031.956449,459.657299
93.271290,6291.750507,6809.894666,0.000000
93.271610,6069.688724,7254.018232,-383.047749
93.271931,4885.359217,7994.224174,-995.924147
93.272252,4737.318029,8142.265362,-229.828649
93.272572,5625.565159,8068.244768,76.609550
93.272893,6883.915261,8290.306550,0.000000
93.273213,6809.894666,8068.244768,-842.705048
93.273534,4737.318029,8216.285956,-842.705048
93.273855,3330.926739,7698.141797,-766.095498
93.274175,3330.926739,7846.182985,76.609550
93.274496,3997.112087,8660.409521,766.095498
93.274817,4663.297435,8364.327145,76.609550
93.275137,4219.173869,8512.368333,-612.876398
93.275458,4293.194464,9326.594869,-689.485948
93.275778,3256.906145,9918.759623,0.000000
93.276099,3849.070898,9548.656652,153.219100
93.276420,5181.441594,9474.636058,0.000000
93.276740,5403.503377,9400.615463,-689.485948
93.277061,4737.318029,9548.656652,-1149.143247
93.277382,3627.009116,9474.636058,-1225.752797
93.277702,3330.926739,8956.491898,-306.438199
93.278023,4441.235652,8438.347739,1378.971896
93.278343,4959.379811,7698.141797,1072.533697
93.278664,4811.338623,7624.121203,0.000000
93.278985,4071.132681,8216.285956,0.000000
93.279305,3775.050304,8734.430116,-459.657299
93.279626,4219.173869,9030.512492,0.000000
93.279947,5921.647536,8586.388927,76.609550
93.280267,6809.894666,8660.409521,0.000000
93.280588,6143.709319,8586.388927,-1072.533697
93.280909,4737.318029,8512.368333,-995.924147
93.281229,3775.050304,8216.285956,-1072.533697
93.281550,4663.297435,7550.100608,-383.047749
93.281870,5847.626942,7105.977043,536.266849
93.282191,6143.709319,6735.874072,612.876398
93.282512,5477.523971,7105.977043,0.000000
93.282832,4367.215058,7994.224174,-459.657299
93.283153,4515.256246,8438.347739,-229.828649
93.283474,5847.626942,7920.203579,-76.609550
93.283794,7105.977043,7772.162391,-229.828649
93.284115,7402.059420,7550.100608,-306.438199
93.284435,6143.709319,8216.285956,-1225.752797
93.284756,4441.235652,7328.038826,-536.266849
93.285077,5033.400406,7105.977043,229.828649
93.285397,5847.626942,6439.791695,689.485948
93.285718,6365.771101,5551.544565,306.438199
93.286039,6587.832884,5921.647536,306.438199
93.286359,5329.482782,6735.874072,0.000000
93.286680,5107.421000,7624.121203,-306.438199
93.287001,6217.729913,7772.162391,0.000000
93.287321,7105.977043,8290.306550,-306.438199
93.287642,7698.141797,7550.100608,-459.657299
93.287962,6513.812290,7920.203579,-1149.143247
93.288283,4737.318029,7846.182985,-1072.533697
93.288604,4441.235652,7550.100608,-612.876398
93.288924,5255.462188,7179.997637,229.828649
93.289245,5847.626942,7105.977043,459.657299
93.289566,5403.503377,7031.956449,153.219100
93.289887,4515.256246,8068.244768,229.828649
93.290207,3478.967927,8512.368333,0.000000
93.290528,3849.070898,9030.512492,0.000000
93.290849,5773.606348,8586.388927,0.000000
93.291170,6587.832884,8882.471304,-229.828649
93.291490,5477.523971,8808.450710,-919.314598
93.291811,3849.070898,9030.512492,-612.876398
93.292132,3034.844362,9326.594869,-612.876398
93.292453,3923.091493,8290.306550,229.828649
93.292773,4515.256246,7698.141797,689.485948
93.293094,5477.523971,7772.162391,689.485948
93.293415,4071.132681,8660.409521,0.000000
93.293736,3182.885551,9178.553681,-766.095498
93.294056,3552.988522,9622.677246,-689.485948
93.294377,4515.256246,9474.636058,0.000000
93.294698,5847.626942,9400.615463,76.609550
93.295019,5847.626942,9474.636058,-612.876398
93.295339,4293.194464,9474.636058,-1685.410096
93.295660,2886.803174,9252.574275,-2145.067394
93.295981,2664.741391,8808.450710,-76.609550
93.296302,3923.091493,7920.203579,995.924147
93.296622,4737.318029,7846.182985,1149.143247
93.296943,4589.276840,8586.388927,612.876398
93.297264,3256.906145,8808.450710,-689.485948
93.297585,2812.782580,8882.471304,-919.314598
93.297905,4737.318029,8512.368333,-383.047749
93.298226,5921.647536,8068.244768,76.609550
93.298547,6513.812290,8290.306550,0.000000
93.298868,5699.585753,8586.388927,-842.705048
93.299188,4145.153275,8660.409521,-1455.581446
93.299509,4071.132681,8216.285956,-306.438199
93.299830,5255.462188,7402.059420,919.314598
93.300151,5995.668130,6439.791695,919.314598
93.300471,5921.647536,6365.771101,76.609550
93.300792,5625.565159,7031.956449,-306.438199
93.301113,4737.318029,7105.977043,-689.485948
93.301434,4959.379811,7328.038826,0.000000
93.301755,7254.018232,7772.162391,0.000000
93.302075,7772.162391,7920.203579,-612.876398
93.302396,7105.977043,8216.285956,-1685.410096
93.302717,5995.668130,7476.080014,-1532.190996
93.303038,4811.338623,6957.935855,-1302.362347
93.303358,5033.400406,6513.812290,842.705048
93.303679,6217.729913,5921.647536,1072.533697
93.304000,6143.709319,6143.709319,229.828649
93.304321,5625.565159,6957.935855,0.000000
93.304641,5181.441594,7994.224174,-689.485948
93.304962,5107.421000,8734.430116,-995.924147
93.305283,6291.750507,8586.388927,-689.485948
93.305604,7328.038826,8068.244768,-229.828649
93.305924,7105.977043,7920.203579,-689.485948
93.306245,5995.668130,7402.059420,0.000000
93.306566,4071.132681,7772.162391,229.828649
93.306887,3552.988522,8216.285956,153.219100
93.307207,4293.194464,8512.368333,229.828649
93.307528,5107.421000,7920.203579,306.438199
93.307849,4737.318029,7550.100608,383.047749
93.308170,3997.112087,7920.203579,689.485948
93.308490,3108.864956,8734.430116,919.314598
93.308811,3404.947333,9474.636058,919.314598
93.309132,4219.173869,9178.553681,-306.438199
93.309453,5551.544565,9474.636058,-689.485948
93.309773,5625.565159,9474.636058,-1608.800546
93.310094,3849.070898,9104.533087,-995.924147
93.310415,3108.864956,8956.491898,0.000000
93.310736,3552.988522,8882.471304,459.657299
93.311056,4441.235652,8364.327145,1072.533697
93.311377,4367.215058,7994.224174,536.266849
93.311698,3552.988522,8734.430116,0.000000
93.312019,3108.864956,9030.512492,-306.438199
93.312339,3923.091493,9474.636058,-383.047749
93.312660,5255.462188,9104.533087,-536.266849
93.312981,5477.523971,9326.594869,-766.095498
93.313302,5107.421000,9178.553681,-995.924147
93.313622,3997.112087,8660.409521,-842.705048
93.313943,2960.823768,8882.471304,-612.876398
93.314264,3627.009116,8586.388927,0.000000
93.314585,4885.359217,7550.100608,536.266849
93.314905,5033.400406,7328.038826,612.876398
93.315226,4071.132681,7402.059420,612.876398
93.315547,3034.844362,7698.141797,153.219100
93.315868,3404.947333,8068.244768,76.609550
93.316188,4811.338623,9326.594869,153.219100
93.316509,6439.791695,9178.553681,0.000000
93.316830,6439.791695,8660.409521,-1072.533697
93.317151,5551.544565,7994.224174,-1838.629195
93.317471,4663.297435,7772.162391,-536.266849
93.317792,4219.173869,7476.080014,689.485948
93.318113,5181.441594,6957.935855,689.485948
93.318434,6069.688724,6735.874072,383.047749
93.318754,6217.729913,6661.853478,383.047749
93.319075,5551.544565,7254.018232,229.828649
93.319396,5033.400406,7476.080014,76.609550
93.319717,5921.647536,7698.141797,-306.438199
93.320037,7031.956449,7550.100608,0.000000
93.320358,7328.038826,7402.059420,-689.485948
93.320679,6809.894666,6957.935855,-1225.752797
93.321000,5255.462188,7402.059420,-1532.190996
93.321320,4885.359217,8068.244768,-153.219100
93.321641,5551.544565,7402.059420,229.828649
93.321962,6365.771101,6587.832884,689.485948
93.322283,6217.729913,6365.771101,229.828649
93.322603,4737.318029,7179.997637,0.000000
93.322924,3997.112087,7994.224174,-383.047749
93.323245,4589.276840,8956.491898,-153.219100
93.323566,6291.750507,9252.574275,-536.266849
93.323886,7254.018232,8438.347739,-995.924147
93.324207,6587.832884,8142.265362,-995.924147
93.324528,4367.215058,8290.306550,-1225.752797
93.324849,3034.844362,8290.306550,-306.438199
93.325169,3552.988522,8290.306550,459.657299
93.325490,4589.276840,7105.977043,689.485948
93.325811,4959.379811,7254.018232,536.266849
93.326132,4663.297435,7994.224174,153.219100
93.326452,2812.782580,8734.430116,-76.609550
93.326773,2812.782580,8956.491898,-306.438199
93.327094,4367.215058,8586.388927,-306.438199
93.327415,6291.750507,8660.409521,-842.705048
93.327735,5995.668130,9178.553681,-536.266849
93.328056,4885.359217,9178.553681,-1072.533697
93.328377,3256.906145,9104.533087,-1608.800546
93.328698,3552.988522,9178.553681,-306.438199
93.329018,4145.153275,8734.430116,612.876398
93.329339,4663.297435,7846.182985,689.485948
93.329660,4071.132681,7772.162391,0.000000
93.329981,2886.803174,8216.285956,-306.438199
93.330301,2960.823768,8808.450710,-229.828649
93.330622,4367.215058,9030.512492,153.219100
93.330943,5403.503377,9104.533087,0.000000
93.331264,6069.688724,9696.697840,-689.485948
93.331584,4959.379811,9474.636058,-842.705048
93.331905,3034.844362,9104.533087,-1072.533697
93.332226,2886.803174,8512.368333,-229.828649
93.332547,4737.318029,8068.244768,766.095498
93.332868,5329.482782,7698.141797,995.924147
93.333188,5107.421000,7846.182985,1072.533697
93.333509,3923.091493,7994.224174,76.609550
93.333830,3404.947333,8216.285956,0.000000
93.334151,4367.215058,8586.388927,459.657299
93.334471,5921.647536,8438.347739,612.876398
93.334792,7179.997637,8290.306550,0.000000
93.335113,6587.832884,7846.182985,-612.876398
93.335434,4885.359217,7402.059420,-536.266849
93.335754,4663.297435,7328.038826,-383.047749
93.336075,4737.318029,6883.915261,459.657299
93.336396,6291.750507,6439.791695,689.485948
93.336717,6883.915261,6735.874072,459.657299
93.337037,6069.688724,6735.874072,0.000000
93.337358,4737.318029,7179.997637,0.000000
93.337679,4885.359217,7402.059420,76.609550
93.338000,6291.750507,7402.059420,459.657299
93.338320,7328.038826,7031.956449,-383.047749
93.338641,7328.038826,6809.894666,-1378.971896
93.338962,6143.709319,7179.997637,-1225.752797
93.339283,4885.359217,7402.059420,-995.924147
93.339603,4811.338623,7476.080014,383.047749
93.339924,5477.523971,7105.977043,689.485948
93.340245,6143.709319,6735.874072,536.266849
93.340566,5329.482782,6587.832884,153.219100
93.340886,4071.132681,7105.977043,-306.438199
93.341207,3923.091493,8142.265362,-229.828649
93.341528,4959.379811,8808.450710,-153.219100
93.341849,6069.688724,8438.347739,-306.438199
93.342169,6809.894666,8734.430116,-842.705048
93.342490,5921.647536,8512.368333,-995.924147
93.342811,4145.153275,7846.182985,-229.828649
93.343132,3627.009116,7402.059420,153.219100
93.343452,4441.235652,7105.977043,536.266849
93.343773,6069.688724,7179.997637,766.095498
93.344094,5625.565159,7698.141797,459.657299
93.344415,4663.297435,8142.265362,-383.047749
93.344735,4589.276840,8734.430116,-536.266849
93.345056,4367.215058,9030.512492,-536.266849
93.345377,5847.626942,9252.574275,-919.314598
93.345698,7105.977043,9030.512492,-1225.752797
93.346018,6143.709319,8660.409521,-1915.238745
93.346339,4885.359217,8808.450710,-1302.362347
93.346660,3775.050304,9326.594869,-536.266849
93.346981,3997.112087,9178.553681,-1072.533697
93.347301,4441.235652,8734.430116,153.219100
93.347622,5551.544565,8734.430116,383.047749
93.347943,4441.235652,8512.368333,153.219100
93.348264,3108.864956,7772.162391,153.219100
93.348584,3108.864956,8512.368333,76.609550
93.348905,4071.132681,9252.574275,76.609550
93.349226,4737.318029,9474.636058,153.219100
93.349547,5551.544565,9400.615463,-306.438199
93.349867,4663.297435,8808.450710,-766.095498
93.350188,3701.029710,8734.430116,0.000000
93.350509,3775.050304,8734.430116,612.876398
93.350830,4589.276840,7624.121203,919.314598
93.351150,5255.462188,7328.038826,459.657299
93.351471,5847.626942,7179.997637,459.657299
93.351792,4737.318029,7179.997637,0.000000
93.352113,4515.256246,8216.285956,-229.828649
93.352433,5847.626942,8586.388927,-229.828649
93.352754,6587.832884,8882.471304,-383.047749
93.353075,7105.977043,8290.306550,-383.047749
93.353396,5995.668130,7698.141797,-306.438199
93.353716,4293.194464,7846.182985,-689.485948
93.354037,3627.009116,7920.203579,-153.219100
93.354358,4367.215058,7402.059420,229.828649
93.354679,5551.544565,7031.956449,612.876398
93.354999,5625.565159,6291.750507,689.485948
93.355320,4515.256246,6513.812290,689.485948
93.355641,3627.009116,7698.141797,383.047749
93.355962,3997.112087,8512.368333,383.047749
93.356282,5329.482782,7994.224174,-153.219100
93.356603,7105.977043,7402.059420,-306.438199
93.356924,6957.935855,7179.997637,-766.095498
93.357245,5181.441594,7476.080014,-383.047749
93.357565,4071.132681,7402.059420,0.000000
93.357886,4515.256246,6809.894666,0.000000
93.358207,5625.565159,6439.791695,0.000000
93.358528,6809.894666,5847.626942,766.095498
93.358848,6587.832884,6365.771101,76.609550
93.359169,5551.544565,6883.915261,0.000000
93.359490,5625.565159,7772.162391,0.000000
93.359811,6957.935855,7698.141797,-459.657299
93.360131,7328.038826,7624.121203,-842.705048
93.360452,7624.121203,7402.059420,-1455.581446
93.360773,6587.832884,7402.059420,-1762.019645
93.361094,4885.359217,8068.244768,-995.924147
93.361414,4737.318029,7920.203579,-153.219100
93.361735,5551.544565,7328.038826,0.000000
93.362056,5847.626942,7254.018232,229.828649
93.362377,5107.421000,7550.100608,383.047749
93.362697,3552.988522,8364.327145,-229.828649
93.363018,2960.823768,8956.491898,-229.828649
93.363339,4441.235652,9104.533087,-153.219100
93.363660,5699.585753,9696.697840,-229.828649
93.363980,6217.729913,9696.697840,-995.924147
93.364301,4959.379811,9326.594869,-1072.533697
93.364622,3552.988522,9326.594869,-1225.752797
93.364943,3108.864956,9178.553681,0.000000
93.365264,3997.112087,8660.409521,842.705048
93.365584,4811.338623,8438.347739,842.705048
93.365905,5403.503377,8216.285956,689.485948
93.366226,4219.173869,8734.430116,0.000000
93.366547,3256.906145,9400.615463,-536.266849
93.366867,3997.112087,9696.697840,-153.219100
93.367188,4959.379811,9474.636058,76.609550
93.367509,5995.668130,9178.553681,-153.219100
93.367830,5773.606348,9178.553681,-919.314598
93.368150,4515.256246,8882.471304,-995.924147
93.368471,3404.947333,8438.347739,-766.095498
93.368792,3849.070898,7994.224174,306.438199
93.369113,4811.338623,7624.121203,689.485948
93.369433,5033.400406,7328.038826,459.657299
93.369754,4737.318029,7402.059420,229.828649
93.370075,3775.050304,8142.265362,-459.657299
93.370396,3997.112087,8956.491898,-536.266849
93.370716,5255.462188,8882.471304,-306.438199
93.371037,6513.812290,8438.347739,229.828649
93.371358,6587.832884,8068.244768,-383.047749
93.371679,5403.503377,7772.162391,-612.876398
93.371999,4071.132681,7476.080014,-153.219100
93.372320,3997.112087,7031.956449,383.047749
93.372641,5329.482782,6217.729913,766.095498
93.372962,6291.750507,6439.791695,1072.533697
93.373282,5773.606348,6513.812290,383.047749
93.373603,4811.338623,6883.915261,0.000000
93.373924,4959.379811,8290.306550,0.000000
93.374245,6291.750507,8142.265362,0.000000
93.374565,7328.038826,7624.121203,76.609550
93.374886,7920.203579,7105.977043,-919.314598
93.375207,6957.935855,7031.956449,-1608.800546
93.375528,4737.318029,7328.038826,-995.924147
93.375848,4293.194464,7402.059420,0.000000
93.376169,4811.338623,7254.018232,459.657299
93.376490,5995.668130,7105.977043,536.266849
93.376811,5773.606348,7105.977043,995.924147
93.377131,4515.256246,7179.997637,0.000000
93.377452,3775.050304,7994.224174,-229.828649
93.377773,4441.235652,8660.409521,229.828649
93.378094,5773.606348,8734.430116,229.828649
93.378414,6439.791695,8956.491898,76.609550
93.378735,6069.688724,9104.533087,-1378.971896
93.379056,4589.276840,9178.553681,-1225.752797
93.379377,3627.009116,8956.491898,-153.219100
93.379697,3923.091493,8142.265362,1072.533697
93.380018,4589.276840,7254.018232,1149.143247
93.380339,4959.379811,6661.853478,919.314598
93.380660,4441.235652,7402.059420,383.047749
93.380980,3256.906145,8808.450710,-306.438199
93.381301,3627.009116,9252.574275,-459.657299
93.381622,5181.441594,9548.656652,0.000000
93.381943,6735.874072,9178.553681,-229.828649
93.382263,6513.812290,9104.533087,-995.924147
93.382584,4959.379811,8734.430116,-1532.190996
93.382905,3701.029710,8882.471304,-612.876398
93.383226,3330.926739,9178.553681,-536.266849
93.383546,4293.194464,8956.491898,76.609550
93.383867,5033.400406,7920.203579,612.876398
93.384188,4219.173869,8512.368333,-306.438199
93.384509,3256.906145,8734.430116,-689.485948
93.384829,2220.617826,9474.636058,-459.657299
93.385150,3404.947333,9400.615463,-229.828649
93.385471,5477.523971,9178.553681,76.609550
93.385792,5847.626942,9400.615463,-306.438199
93.386112,5107.421000,9326.594869,-842.705048
93.386433,3627.009116,8808.450710,-1072.533697
93.386754,3108.864956,8290.306550,-459.657299
93.387075,4071.132681,7994.224174,536.266849
93.387395,5403.503377,7328.038826,1072.533697
93.387716,5403.503377,7846.182985,1532.190996
93.388037,4589.276840,7920.203579,306.438199
93.388358,3997.112087,7920.203579,-306.438199
93.388678,4885.359217,8216.285956,-153.219100
93.388999,6513.812290,7994.224174,-229.828649
93.389320,7698.141797,8216.285956,-306.438199
93.389640,7328.038826,7920.203579,-766.095498
93.389961,6513.812290,7624.121203,-842.705048
93.390282,4811.338623,6661.853478,-842.705048
93.390602,4737.318029,6513.812290,-229.828649
93.390923,5921.647536,7105.977043,612.876398
93.391244,5921.647536,7179.997637,306.438199
93.391564,5181.441594,6957.935855,-76.609550
93.391885,5033.400406,7476.080014,0.000000
93.392206,4589.276840,8142.265362,229.828649
93.392526,5033.400406,8882.471304,0.000000
93.392847,5847.626942,8808.450710,0.000000
93.393168,6587.832884,8216.285956,-689.485948
93.393488,5329.482782,7254.018232,-459.657299
93.393809,4663.297435,7105.977043,229.828649
93.394130,3775.050304,7402.059420,229.828649
93.394451,4145.153275,7624.121203,459.657299
93.394771,5255.462188,7105.977043,766.095498
93.395092,5329.482782,6735.874072,919.314598
93.395413,4737.318029,6957.935855,536.266849
93.395733,4293.194464,7846.182985,76.609550
93.396054,4737.318029,8660.409521,-459.657299
93.396375,6291.750507,8586.388927,-459.657299
93.396695,7254.018232,8512.368333,-919.314598
93.397016,7179.997637,7772.162391,-1302.362347
93.397337,5847.626942,7254.018232,-766.095498
93.397657,4959.379811,7994.224174,0.000000
93.397978,5033.400406,7772.162391,0.000000
93.398299,5773.606348,7402.059420,-306.438199
93.398619,6217.729913,7105.977043,-459.657299
93.398940,4737.318029,7624.121203,-383.047749
93.399261,3256.906145,8216.285956,0.000000
93.399581,3923.091493,9474.636058,0.000000
93.399902,4663.297435,10066.800811,-229.828649
93.400223,4811.338623,9622.677246,-1455.581446
93.400543,4589.276840,9474.636058,-1378.971896
93.400864,3701.029710,9178.553681,-689.485948
93.401185,2072.576638,9252.574275,536.266849
93.401505,2442.679609,8956.491898,766.095498
93.401826,3404.947333,8586.388927,612.876398
93.402147,3849.070898,7994.224174,689.485948
93.402467,3923.091493,8364.327145,612.876398
93.402788,3034.844362,8956.491898,229.828649
93.403109,2738.761985,9696.697840,0.000000
93.403430,4441.235652,9474.636058,0.000000
93.403750,5847.626942,9326.594869,-612.876398
93.404071,6291.750507,8956.491898,-919.314598
93.404392,5181.441594,8734.430116,-766.095498
93.404712,4145.153275,8438.347739,-919.314598
93.405033,4367.215058,8290.306550,-229.828649
93.405354,4959.379811,8512.368333,76.609550
93.405674,5551.544565,7994.224174,76.609550
93.405995,5477.523971,7920.203579,0.000000
93.406316,4515.256246,7328.038826,0.000000
93.406636,3849.070898,7920.203579,0.000000
93.406957,4515.256246,8364.327145,-229.828649
93.407278,5921.647536,8808.450710,-229.828649
93.407598,6587.832884,8956.491898,-766.095498
93.407919,6217.729913,8216.285956,-612.876398
93.408240,4737.318029,7550.100608,-383.047749
93.408560,4219.173869,7179.997637,0.000000
93.408881,4367.215058,7105.977043,766.095498
93.409202,5329.482782,7105.977043,1532.190996
93.409522,5699.585753,6439.791695,689.485948
93.409843,5551.544565,6439.791695,536.266849
93.410164,4959.379811,7105.977043,229.828649
93.410484,5329.482782,7994.224174,-153.219100
93.410805,6143.709319,8882.471304,-383.047749
93.411126,6957.935855,8216.285956,-766.095498
93.411446,7105.977043,7402.059420,-1072.533697
93.411767,5921.647536,6809.894666,-842.705048
93.412088,4737.318029,6809.894666,-306.438199
93.412409,4959.379811,7105.977043,153.219100
93.412729,5847.626942,7105.977043,0.000000
93.413050,6143.709319,6661.853478,229.828649
93.413371,5477.523971,6735.874072,76.609550
93.413691,4441.235652,7254.018232,76.609550
93.414012,4145.153275,7920.203579,76.609550
93.414333,4959.379811,8438.347739,0.000000
93.414653,6291.750507,8290.306550,-766.095498
93.414974,6291.750507,8290.306550,-1378.971896
93.415295,5329.482782,7846.182985,-1225.752797
93.415615,3849.070898,8216.285956,-536.266849
93.415936,3997.112087,8142.265362,689.485948
93.416257,4885.359217,8142.265362,0.000000
93.416577,5625.565159,7624.121203,0.000000
93.416898,5551.544565,7550.100608,306.438199
93.417219,4589.276840,7846.182985,459.657299
93.417539,4367.215058,8660.409521,459.657299
93.417860,4959.379811,8438.347739,0.000000
93.418181,5625.565159,8586.388927,-919.314598
93.418501,6661.853478,8956.491898,-1072.533697
93.418822,5699.585753,9252.574275,-1072.533697
93.419143,3775.050304,9030.512492,-1225.752797
93.419463,4071.132681,8808.450710,0.000000
93.419784,4663.297435,8364.327145,536.266849
93.420105,4959.379811,8068.244768,229.828649
93.420425,4441.235652,7994.224174,306.438199
93.420746,3775.050304,8290.306550,153.219100
93.421067,2886.803174,8734.430116,-306.438199
93.421388,4145.153275,9844.739029,0.000000
93.421708,5477.523971,10066.800811,-459.657299
93.422029,5477.523971,9474.636058,-1302.362347
93.422350,4959.379811,8882.471304,-766.095498
93.422670,4145.153275,8512.368333,-536.266849
93.422991,2812.782580,8512.368333,229.828649
93.423312,3256.906145,8512.368333,536.266849
93.423632,4811.338623,8142.265362,459.657299
93.423953,4959.379811,7772.162391,689.485948
93.424274,4515.256246,7994.224174,306.438199
93.424594,4145.153275,7846.182985,536.266849
93.424915,4293.194464,7550.100608,0.000000
93.425236,5773.606348,7846.182985,383.047749
93.425556,6957.935855,8142.265362,0.000000
93.425877,6809.894666,7994.224174,-1149.143247
93.426198,6217.729913,7772.162391,-1302.362347
93.426518,5255.462188,7772.162391,-919.314598
93.426839,5477.523971,7254.018232,-383.047749
93.427160,6365.771101,6661.853478,306.438199
93.427480,6439.791695,5921.647536,153.219100
93.427801,5699.585753,6143.709319,306.438199
93.428122,4811.338623,6735.874072,536.266849
93.428442,4737.318029,7328.038826,0.000000
93.428763,6143.709319,8142.265362,0.000000
93.429084,7105.977043,8142.265362,-536.266849
93.429405,7031.956449,8142.265362,-1149.143247
93.429725,5773.606348,7772.162391,-1302.362347
93.430046,4663.297435,7772.162391,-612.876398
93.430367,3775.050304,7550.100608,306.438199
93.430687,4811.338623,7031.956449,919.314598
93.431008,5181.441594,6365.771101,1072.533697
93.431329,4959.379811,7105.977043,766.095498
93.431649,4293.194464,7624.121203,229.828649
93.431970,3775.050304,7920.203579,383.047749
93.432291,4367.215058,7920.203579,459.657299
93.432611,5699.585753,8586.388927,536.266849
93.432932,6217.729913,8956.491898,-689.485948
93.433253,5625.565159,8882.471304,-1532.190996
93.433573,4663.297435,8290.306550,-1455.581446
93.433894,4219.173869,7846.182985,-383.047749
93.434215,4885.359217,7624.121203,689.485948
93.434535,5403.503377,7105.977043,919.314598
93.434856,5477.523971,7698.141797,306.438199
93.435177,4737.318029,8438.347739,-76.609550
93.435497,4589.276840,8290.306550,0.000000
93.435818,4959.379811,8142.265362,-459.657299
93.436139,6439.791695,8290.306550,-842.705048
93.436459,7254.018232,8808.450710,-536.266849
93.436780,6587.832884,9252.574275,-1225.752797
93.437101,5699.585753,8290.306550,-383.047749
93.437421,4145.153275,7994.224174,-612.876398
93.437742,4959.379811,7550.100608,766.095498
93.438063,5255.462188,7402.059420,919.314598
93.438384,5847.626942,6661.853478,153.219100
93.438704,5477.523971,6365.771101,459.657299
93.439025,4959.379811,6809.894666,-306.438199
93.439346,4663.297435,7772.162391,-383.047749
93.439666,5773.606348,8808.450710,-153.219100
93.439987,6587.832884,9252.574275,-995.924147
93.440308,6957.935855,9474.636058,-1532.190996
93.440628,5921.647536,8586.388927,-1072.533697
93.440949,4737.318029,8364.327145,-459.657299
93.441270,3256.906145,8438.347739,-459.657299
93.441590,3775.050304,8734.430116,0.000000
93.441911,4441.235652,8808.450710,0.000000
93.442232,4219.173869,8290.306550,-229.828649
93.442552,3256.906145,8142.265362,153.219100
93.442873,2812.782580,8956.491898,1149.143247
93.443194,2886.803174,9622.677246,995.924147
93.443514,3923.091493,9696.697840,383.047749
93.443835,5181.441594,9326.594869,76.609550
93.444156,4811.338623,8512.368333,-766.095498
93.444476,4071.132681,7846.182985,-383.047749
93.444797,3256.906145,8364.327145,0.000000
93.445118,3701.029710,8512.368333,536.266849
93.445438,4737.318029,8364.327145,842.705048
93.445759,5181.441594,7402.059420,153.219100
93.446080,4737.318029,7105.977043,0.000000
93.446400,3627.009116,7772.162391,0.000000
93.446721,3997.112087,8512.368333,0.000000
93.447042,5329.482782,9104.533087,-383.047749
93.447363,6513.812290,9474.636058,-842.705048
93.447683,6513.812290,8956.491898,-1302.362347
93.448004,5033.400406,8290.306550,-1225.752797
93.448325,3256.906145,8142.265362,-1302.362347
93.448645,2960.823768,7846.182985,153.219100
93.448966,3627.009116,7550.100608,459.657299
93.449287,4589.276840,7105.977043,995.924147
93.449607,4515.256246,7105.977043,766.095498
93.449928,3478.967927,7772.162391,919.314598
93.450249,2812.782580,8660.409521,229.828649
93.450569,3997.112087,8734.430116,76.609550
93.450890,5773.606348,8882.471304,153.219100
93.451211,6365.771101,8512.368333,0.000000
93.451531,6217.729913,7772.162391,-229.828649
93.451852,4737.318029,7328.038826,-612.876398
93.452173,4441.235652,7328.038826,0.000000
93.452493,5329.482782,7105.977043,689.485948
93.452814,7031.956449,6587.832884,153.219100
93.453135,7550.100608,6217.729913,0.000000
93.453455,7254.018232,6217.729913,383.047749
93.453776,6365.771101,6735.874072,0.000000
93.454097,6809.894666,7179.997637,-306.438199
93.454417,7402.059420,7402.059420,-536.266849
93.454738,8216.285956,7698.141797,-1378.971896
93.455059,8142.265362,7328.038826,-1685.410096
93.455379,6957.935855,7254.018232,-1685.410096
93.455700,5699.585753,7402.059420,-842.705048
93.456021,5551.544565,7179.997637,-612.876398
93.456342,5921.647536,6957.935855,229.828649
93.456662,5773.606348,6883.915261,459.657299
93.456983,4959.379811,7031.956449,612.876398
93.457304,4367.215058,7476.080014,-306.438199
93.457624,4367.215058,9400.615463,-612.876398
93.457945,4811.338623,9548.656652,-536.266849
93.458266,5995.668130,9696.697840,-919.314598
93.458586,6291.750507,9104.533087,-842.705048
93.458907,4663.297435,8660.409521,-689.485948
93.459228,3701.029710,8364.327145,-153.219100
93.459548,3627.009116,8438.347739,306.438199
93.459869,4515.256246,8290.306550,536.266849
93.460190,5847.626942,8290.306550,1149.143247
93.460510,5995.668130,7698.141797,842.705048
93.460831,4589.276840,7550.100608,153.219100
93.461152,3701.029710,8290.306550,153.219100
93.461472,4515.256246,9252.574275,0.000000
93.461793,5255.462188,9548.656652,-612.876398
93.462114,6143.709319,8882.471304,-1225.752797
93.462434,6217.729913,8808.450710,-1608.800546
93.462755,3775.050304,8882.471304,-1455.581446
93.463076,2812.782580,8734.430116,-766.095498
93.463396,4071.132681,9326.594869,612.876398
93.463717,3552.988522,8734.430116,689.485948
93.464038,3997.112087,8068.244768,383.047749
93.464358,3478.967927,8142.265362,383.047749
93.464679,2146.597232,8586.388927,-153.219100
93.465000,3034.844362,9326.594869,0.000000
93.465321,4737.318029,9992.780217,229.828649
93.465641,5033.400406,8956.491898,-153.219100
93.465962,5033.400406,7920.203579,-306.438199
93.466283,3775.050304,7698.141797,-383.047749
93.466603,2664.741391,8290.306550,459.657299
93.466924,3034.844362,7846.182985,1072.533697
93.467245,4737.318029,7105.977043,1225.752797
93.467565,5625.565159,6513.812290,383.047749
93.467886,5403.503377,6439.791695,766.095498
93.468207,4589.276840,7402.059420,689.485948
93.468527,4145.153275,7772.162391,-306.438199
93.468848,5699.585753,7846.182985,-383.047749
93.469169,7624.121203,7846.182985,-612.876398
93.469489,8142.265362,7846.182985,-995.924147
93.469810,6587.832884,7846.182985,-919.314598
93.470131,4515.256246,7402.059420,-1302.362347
93.470451,4145.153275,7105.977043,-689.485948
93.470772,5477.523971,6513.812290,459.657299
93.471093,6069.688724,6291.750507,919.314598
93.471413,6365.771101,6217.729913,766.095498
93.471734,4737.318029,7105.977043,0.000000
93.472055,3701.029710,8068.244768,0.000000
93.472375,4367.215058,8512.368333,-153.219100
93.472696,5921.647536,8586.388927,-383.047749
93.473017,6513.812290,8734.430116,-766.095498
93.473337,5847.626942,9252.574275,-1225.752797
93.473658,4589.276840,8586.388927,-1072.533697
93.473979,4219.173869,8290.306550,-306.438199
93.474300,4737.318029,8068.244768,229.828649
93.474620,4737.318029,7105.977043,842.705048
93.474941,4959.379811,7179.997637,612.876398
93.475262,4441.235652,7476.080014,459.657299
93.475582,3701.029710,8660.409521,383.047749
93.475903,3404.947333,9844.739029,0.000000
93.476224,5403.503377,10140.821405,306.438199
93.476544,6217.729913,9992.780217,-612.876398
93.476865,5699.585753,8808.450710,-306.438199
93.477186,4515.256246,8142.265362,-383.047749
93.477506,3552.988522,8142.265362,0.000000
93.477827,3775.050304,8512.368333,229.828649
93.478148,4737.318029,8882.471304,0.000000
93.478468,5551.544565,8660.409521,-383.047749
93.478789,4959.379811,8438.347739,-919.314598
93.479110,4219.173869,8216.285956,-383.047749
93.479430,3923.091493,8512.368333,-536.266849
93.479751,4441.235652,9178.553681,-1149.143247
93.480072,5921.647536,9178.553681,-689.485948
93.480392,6291.750507,8808.450710,-1149.143247
93.480713,5477.523971,8290.306550,-1915.238745
93.481034,4219.173869,7920.203579,-612.876398
93.481354,3923.091493,8142.265362,76.609550
93.481675,4663.297435,7624.121203,306.438199
93.481996,5773.606348,7031.956449,76.609550
93.482316,6069.688724,6661.853478,0.000000
93.482637,4959.379811,6587.832884,0.000000
93.482958,4367.215058,7846.182985,689.485948
93.483279,5329.482782,8660.409521,0.000000
93.483599,6143.709319,8882.471304,-689.485948
93.483920,7550.100608,9030.512492,-842.705048
93.484241,6809.894666,8586.388927,-919.314598
93.484561,4811.338623,7476.080014,-536.266849
93.484882,4367.215058,7105.977043,-229.828649
93.485203,5181.441594,7550.100608,306.438199
93.485523,5625.565159,6735.874072,229.828649
93.485844,5995.668130,6291.750507,0.000000
93.486165,5329.482782,6661.853478,153.219100
93.486485,4811.338623,7624.121203,153.219100
93.486806,5551.544565,8660.409521,536.266849
93.487127,6143.709319,7846.182985,76.609550
93.487447,7179.997637,7624.121203,-689.485948
93.487768,6883.915261,7772.162391,-536.266849
93.488089,4959.379811,7772.162391,-536.266849
93.488410,3997.112087,7624.121203,0.000000
93.488730,4367.215058,7846.182985,383.047749
93.489051,4885.359217,7624.121203,689.485948
93.489372,4737.318029,7476.080014,0.000000
93.489693,4367.215058,7550.100608,76.609550
93.490014,3404.947333,7994.224174,153.219100
93.490334,2738.761985,8882.471304,995.924147
93.490655,3552.988522,9622.677246,153.219100
93.490976,4737.318029,10066.800811,-306.438199
93.491297,4293.194464,9918.759623,-689.485948
93.491617,3701.029710,9030.512492,-689.485948
93.491938,1702.473667,8808.450710,-383.047749
93.492259,2072.576638,8364.327145,536.266849
93.492580,2738.761985,9030.512492,1455.581446
93.492901,2886.803174,8438.347739,919.314598
93.493221,3182.885551,7994.224174,153.219100
93.493542,3108.864956,8438.347739,229.828649
93.493863,2738.761985,8808.450710,-229.828649
93.494184,3775.050304,9474.636058,229.828649
93.494504,5625.565159,9326.594869,-306.438199
93.494825,6291.750507,9326.594869,-1072.533697
93.495146,5847.626942,8956.491898,-1302.362347
93.495467,4663.297435,8734.430116,-1455.581446
93.495788,4367.215058,8512.368333,-1225.752797
93.496108,5033.400406,7550.100608,-306.438199
93.496429,6291.750507,6735.874072,0.000000
93.496750,6217.729913,6587.832884,-383.047749
93.497071,5255.462188,6957.935855,-383.047749
93.497391,4367.215058,7772.162391,-459.657299
93.497712,4885.359217,8364.327145,-536.266849
93.498033,6439.791695,8956.491898,-689.485948
93.498354,7550.100608,8586.388927,-689.485948
93.498674,7179.997637,8142.265362,-1149.143247
93.498995,5921.647536,7994.224174,-995.924147
93.499316,4589.276840,7179.997637,-689.485948
93.499637,4515.256246,7550.100608,-383.047749
93.499958,5477.523971,7624.121203,76.609550
93.500278,5699.585753,7105.977043,153.219100
93.500599,6365.771101,6957.935855,-459.657299
93.500920,5551.544565,7476.080014,-153.219100
93.501241,5107.421000,8290.306550,153.219100
93.501561,5847.626942,8956.491898,306.438199
93.501882,7328.038826,8882.471304,-306.438199
93.502203,7846.182985,8808.450710,-766.095498
93.502524,6587.832884,7920.203579,-689.485948
93.502845,4663.297435,6513.812290,-459.657299
93.503165,5107.421000,6735.874072,0.000000
93.503486,5921.647536,7624.121203,459.657299
93.503807,5995.668130,7179.997637,383.047749
93.504128,6291.750507,6365.771101,-612.876398
93.504448,5921.647536,6291.750507,-459.657299
93.504769,4885.359217,7328.038826,0.000000
93.505090,5699.585753,8660.409521,153.219100
93.505411,7105.977043,8956.491898,-459.657299
93.505732,7328.038826,8734.430116,-1608.800546
93.506052,6439.791695,8438.347739,-536.266849
93.506373,4515.256246,8068.244768,-229.828649
93.506694,3256.906145,7254.018232,-306.438199
93.507015,4293.194464,7402.059420,306.438199
93.507335,4737.318029,7772.162391,0.000000
93.507656,4663.297435,7105.977043,-306.438199
93.507977,3849.070898,6957.935855,153.219100
93.508298,3256.906145,8068.244768,153.219100
93.508619,3108.864956,9252.574275,383.047749
93.508939,4071.132681,9918.759623,536.266849
93.509260,4885.359217,9252.574275,-536.266849
93.509581,5329.482782,8808.450710,0.000000
93.509902,3775.050304,8734.430116,0.000000
93.510222,2738.761985,8364.327145,306.438199
93.510543,2516.700203,7994.224174,306.438199
93.510864,3775.050304,7624.121203,153.219100
93.511185,4293.194464,7105.977043,0.000000
93.511506,3923.091493,7328.038826,-229.828649
93.511826,3478.967927,8586.388927,0.000000
93.512147,3552.988522,9104.533087,306.438199
93.512468,4663.297435,9844.739029,229.828649
93.512789,5699.585753,9326.594869,-229.828649
93.513109,5625.565159,8660.409521,-689.485948
93.513430,4885.359217,8438.347739,-612.876398
93.513751,3923.091493,8290.306550,-153.219100
93.514072,3923.091493,7920.203579,0.000000
93.514392,5255.462188,7476.080014,-306.438199
93.514713,5773.606348,6883.915261,-383.047749
93.515034,5625.565159,6735.874072,-229.828649
93.515355,4737.318029,7402.059420,-306.438199
93.515676,4219.173869,8290.306550,0.000000
93.515996,5181.441594,9104.533087,0.000000
93.516317,6513.812290,9400.615463,-383.047749
93.516638,7105.977043,9252.574275,-459.657299
93.516959,5921.647536,9104.533087,0.000000
93.517279,4663.297435,7624.121203,0.000000
93.517600,3997.112087,7105.977043,153.219100
93.517921,4885.359217,7254.018232,306.438199
93.518242,5847.626942,6661.853478,0.000000
93.518563,6291.750507,6513.812290,229.828649
93.518883,5995.668130,6809.894666,-153.219100
93.519204,5255.462188,7550.100608,0.000000
93.519525,5921.647536,7402.059420,306.438199
93.519846,6513.812290,7772.162391,-153.219100
93.520166,7402.059420,7920.203579,-766.095498
93.520487,7550.100608,8364.327145,-1455.581446
93.520808,6365.771101,7994.224174,-1532.190996
93.521129,5403.503377,7254.018232,-1378.971896
93.521450,5995.668130,7328.038826,-689.485948
93.521770,5625.565159,7105.977043,229.828649
93.522091,5477.523971,6439.791695,-306.438199
93.522412,5107.421000,6661.853478,-689.485948
93.522733,4737.318029,7105.977043,-689.485948
93.523053,4885.359217,8364.327145,0.000000
93.523374,5551.544565,8882.471304,0.000000
93.523695,6513.812290,9252.574275,0.000000
93.524016,6587.832884,9400.615463,-536.266849
93.524337,4589.276840,8808.450710,-153.219100
93.524657,3330.926739,7550.100608,-612.876398
93.524978,3775.050304,6957.935855,153.219100
93.525299,5033.400406,7402.059420,612.876398
93.525620,5181.441594,7328.038826,995.924147
93.525940,4811.338623,7179.997637,0.000000
93.526261,4737.318029,7846.182985,-153.219100
93.526582,4145.153275,8438.347739,0.000000
93.526903,4959.379811,9326.594869,306.438199
93.527224,5921.647536,9844.739029,-383.047749
93.527544,6809.894666,9696.697840,-919.314598
93.527865,6143.709319,9548.656652,-995.924147
93.528186,4589.276840,7994.224174,-689.485948
93.528507,3627.009116,7328.038826,0.000000
93.528827,4367.215058,7698.141797,229.828649
93.529148,4515.256246,8364.327145,0.000000
93.529469,4219.173869,8216.285956,-689.485948
93.529790,3849.070898,8290.306550,-612.876398
93.530110,3034.844362,8734.430116,153.219100
93.530431,2886.803174,9252.574275,995.924147
93.530752,3775.050304,9696.697840,842.705048
93.531073,4071.132681,10140.821405,-612.876398
93.531394,4145.153275,10362.883188,76.609550
93.531714,2664.741391,9770.718434,-306.438199
93.532035,2368.659014,8808.450710,306.438199
93.532356,2590.720797,8290.306550,995.924147
93.532677,3182.885551,8438.347739,1225.752797
93.532997,3330.926739,7846.182985,229.828649
93.533318,3182.885551,7624.121203,153.219100
93.533639,3775.050304,8142.265362,1149.143247
93.533960,4071.132681,8512.368333,1072.533697
93.534281,4737.318029,9030.512492,229.828649
93.534601,6513.812290,8882.471304,-842.705048
93.534922,6439.791695,8882.471304,-1225.752797
93.535243,5329.482782,7698.141797,-612.876398
93.535564,4959.379811,6661.853478,383.047749
93.535884,4959.379811,6217.729913,536.266849
93.536205,5477.523971,6661.853478,76.609550
93.536526,6513.812290,6365.771101,-995.924147
93.536847,6513.812290,6143.709319,-1378.971896
93.537168,6291.750507,6587.832884,-1302.362347
93.537488,6439.791695,7179.997637,-612.876398
93.537809,6809.894666,7772.162391,-689.485948
93.538130,7105.977043,8142.265362,-842.705048
93.538451,7476.080014,8142.265362,-612.876398
93.538771,6809.894666,7476.080014,-459.657299
93.539092,5625.565159,6439.791695,-383.047749
93.539413,5403.503377,6143.709319,-229.828649
93.539734,5995.668130,6735.874072,0.000000
93.540055,6291.750507,6587.832884,-229.828649
93.540375,6069.688724,6143.709319,-612.876398
93.540696,5699.585753,6291.750507,0.000000
93.541017,5551.544565,7105.977043,459.657299
93.541338,5477.523971,8438.347739,995.924147
93.541658,5773.606348,8882.471304,-459.657299
93.541979,6809.894666,9030.512492,-1608.800546
93.542300,6661.853478,8808.450710,-1149.143247
93.542621,5181.441594,7994.224174,-689.485948
93.542942,4293.194464,7920.203579,0.000000
93.543262,4737.318029,8142.265362,-536.266849
93.543583,5033.400406,8364.327145,-536.266849
93.543904,4959.379811,7698.141797,-1072.533697
93.544225,5255.462188,8142.265362,-612.876398
93.544545,4663.297435,8216.285956,306.438199
93.544866,3997.112087,8882.471304,76.609550
93.545187,4663.297435,9622.677246,229.828649
93.545508,5699.585753,10288.862594,-459.657299
93.545828,5403.503377,10288.862594,-995.924147
93.546149,4219.173869,9326.594869,-1302.362347
93.546470,3478.967927,8660.409521,-842.705048
93.546791,2664.741391,8068.244768,0.000000
93.547112,3775.050304,8216.285956,766.095498
93.547432,3997.112087,8142.265362,919.314598
93.547753,3701.029710,7698.141797,-459.657299
93.548074,3552.988522,8882.471304,-153.219100
93.548395,3701.029710,9770.718434,0.000000
93.548715,4145.153275,9992.780217,-383.047749
93.549036,5255.462188,9918.759623,-229.828649
93.549357,5773.606348,9844.739029,0.000000
93.549678,4589.276840,9400.615463,-229.828649
93.549999,2886.803174,8290.306550,0.000000
93.550319,2442.679609,7698.141797,-76.609550
93.550640,3627.009116,8512.368333,0.000000
93.550961,3849.070898,8586.388927,383.047749
93.551282,4145.153275,7402.059420,0.000000
93.551602,3849.070898,7328.038826,0.000000
93.551923,3256.906145,8290.306550,306.438199
93.552244,3034.844362,8882.471304,383.047749
93.552565,4145.153275,9326.594869,0.000000
93.552886,5625.565159,9252.574275,0.000000
93.553206,5403.503377,8734.430116,76.609550
93.553527,4663.297435,7624.121203,612.876398
93.553848,4071.132681,7031.956449,383.047749
93.554169,4219.173869,6883.915261,689.485948
93.554489,4737.318029,6513.812290,76.609550
93.554810,5477.523971,5625.565159,0.000000
93.555131,6143.709319,5551.544565,0.000000
93.555452,6143.709319,6143.709319,689.485948
93.555773,5921.647536,7105.977043,612.876398
93.556093,6143.709319,7994.224174,-229.828649
93.556414,7105.977043,8734.430116,-689.485948
93.556735,7105.977043,7994.224174,-1149.143247
93.557056,6587.832884,7328.038826,-766.095498
93.557376,5773.606348,6587.832884,-229.828649
93.557697,5403.503377,6291.750507,-229.828649
93.558018,5847.626942,6291.750507,-536.266849
93.558339,5847.626942,6365.771101,-459.657299
93.558660,5625.565159,6365.771101,-153.219100
93.558980,5477.523971,6439.791695,-76.609550
93.559301,5329.482782,7328.038826,0.000000
93.559622,5255.462188,8512.368333,76.609550
93.559943,6513.812290,8586.388927,-229.828649
93.560263,7402.059420,8216.285956,-1149.143247
93.560584,6365.771101,8068.244768,-995.924147
93.560905,5329.482782,7328.038826,-459.657299
93.561226,4441.235652,7328.038826,-229.828649
93.561546,5107.421000,7698.141797,306.438199
93.561867,5699.585753,7994.224174,76.609550
93.562188,6217.729913,7476.080014,-383.047749
93.562509,6217.729913,7105.977043,-766.095498
93.562830,5107.421000,7994.224174,-689.485948
93.563150,5107.421000,9104.533087,-612.876398
93.563471,5921.647536,10140.821405,-1149.143247
93.563792,6143.709319,9770.718434,-842.705048
93.564113,6143.709319,8882.471304,-1302.362347
93.564433,4885.359217,8512.368333,-1149.143247
93.564754,3330.926739,8216.285956,-1149.143247
93.565075,3256.906145,8882.471304,-766.095498
93.565396,3997.112087,9178.553681,-229.828649
93.565717,4515.256246,8216.285956,76.609550
93.566037,4441.235652,7994.224174,76.609550
93.566358,3849.070898,8808.450710,0.000000
93.566679,2886.803174,10214.842000,76.609550
93.567000,3923.091493,10881.027347,76.609550
93.567320,4959.379811,10732.986159,-536.266849
93.567641,5625.565159,10362.883188,-612.876398
93.567962,4589.276840,9326.594869,-229.828649
93.568283,2664.741391,8512.368333,-229.828649
93.568604,2516.700203,8882.471304,76.609550
93.568924,3478.967927,8734.430116,612.876398
93.569245,4589.276840,8068.244768,306.438199
93.569566,5033.400406,7179.997637,459.657299
93.569887,4737.318029,7624.121203,1225.752797
93.570207,3997.112087,8586.388927,689.485948
93.570528,4145.153275,8956.491898,0.000000
93.570849,5847.626942,8660.409521,-1455.581446
93.571170,6735.874072,7846.182985,-995.924147
93.571491,6143.709319,7476.080014,-459.657299
93.571811,4515.256246,7550.100608,-306.438199
93.572132,3182.885551,7846.182985,-842.705048
93.572453,4219.173869,7476.080014,0.000000
93.572774,4367.215058,7402.059420,459.657299
93.573094,4737.318029,6957.935855,459.657299
93.573415,4293.194464,7031.956449,612.876398
93.573736,3552.988522,7846.182985,536.266849
93.574057,3330.926739,8734.430116,0.000000
93.574378,4219.173869,8956.491898,153.219100
93.574698,5477.523971,8734.430116,-306.438199
93.575019,5477.523971,8364.327145,229.828649
93.575340,4219.173869,7624.121203,383.047749
93.575661,2960.823768,6809.894666,919.314598
93.575981,3478.967927,7105.977043,383.047749
93.576302,4071.132681,6883.915261,919.314598
93.576623,4885.359217,6513.812290,1072.533697
93.576944,5773.606348,6735.874072,1378.971896
93.577264,5329.482782,6957.935855,689.485948
93.577585,5403.503377,7624.121203,0.000000
93.577906,5773.606348,7550.100608,-536.266849
93.578227,7328.038826,7402.059420,-612.876398
93.578548,7994.224174,7550.100608,-689.485948
93.578868,7698.141797,7772.162391,-1225.752797
93.579189,6069.688724,7031.956449,-1532.190996
93.579510,5847.626942,6957.935855,-2221.676944
93.579831,6439.791695,7179.997637,-919.314598
93.580151,7550.100608,6809.894666,-383.047749
93.580472,6883.915261,5995.668130,-612.876398
93.580793,5921.647536,6661.853478,-536.266849
93.581114,5033.400406,8142.265362,-612.876398
93.581435,5477.523971,8808.450710,0.000000
93.581755,6809.894666,9400.615463,-766.095498
93.582076,7179.997637,8808.450710,-1225.752797
93.582397,6809.894666,8364.327145,-1302.362347
93.582718,4885.359217,7698.141797,-1225.752797
93.583038,4071.132681,7624.121203,-76.609550
93.583359,4145.153275,8216.285956,306.438199
93.583680,4737.318029,8290.306550,153.219100
93.584001,5107.421000,8290.306550,153.219100
93.584322,4959.379811,8216.285956,0.000000
93.584642,4737.318029,8956.491898,229.828649
93.584963,4663.297435,9474.636058,153.219100
93.585284,5255.462188,9474.636058,-689.485948
93.585605,6143.709319,9178.553681,-1685.410096
93.585925,6365.771101,9030.512492,-1455.581446
93.586246,5847.626942,9252.574275,-1302.362347
93.586567,4737.318029,8142.265362,-766.095498
93.586888,4145.153275,7846.182985,-612.876398
93.587209,4737.318029,8512.368333,153.219100
93.587529,4885.359217,9252.574275,153.219100
93.587850,4293.194464,8438.347739,0.000000
93.588171,4145.153275,8142.265362,-229.828649
93.588492,3923.091493,9178.553681,-306.438199
93.588812,4515.256246,9992.780217,-536.266849
93.589133,5181.441594,10288.862594,-689.485948
93.589454,5551.544565,9622.677246,-689.485948
93.589775,4367.215058,8364.327145,-536.266849
93.590096,3182.885551,8216.285956,383.047749
93.590416,2368.659014,7846.182985,536.266849
93.590737,2516.700203,8512.368333,842.705048
93.591058,3997.112087,8290.306550,919.314598
93.591379,4515.256246,7698.141797,919.314598
93.591700,4367.215058,7328.038826,1302.362347
93.592020,3478.967927,7179.997637,1455.581446
93.592341,3552.988522,8512.368333,459.657299
93.592662,4811.338623,8660.409521,229.828649
93.592983,5921.647536,8808.450710,0.000000
93.593304,5921.647536,7328.038826,0.000000
93.593625,5625.565159,6069.688724,-229.828649
93.593945,4589.276840,6365.771101,229.828649
93.594266,4367.215058,6957.935855,536.266849
93.594587,5033.400406,6587.832884,153.219100
93.594908,5921.647536,6069.688724,0.000000
93.595229,6439.791695,5625.565159,0.000000
93.595550,5773.606348,6809.894666,536.266849
93.595870,4885.359217,7920.203579,383.047749
93.596191,5847.626942,8438.347739,-229.828649
93.596512,6587.832884,7994.224174,-766.095498
93.596833,6809.894666,7031.956449,-536.266849
93.597154,5995.668130,5995.668130,-612.876398
93.597475,4737.318029,5921.647536,76.609550
93.597795,4441.235652,6883.915261,153.219100
93.598116,5329.482782,7402.059420,76.609550
93.598437,6217.729913,6957.935855,153.219100
93.598758,6735.874072,6291.750507,76.609550
93.599079,5699.585753,6365.771101,536.266849
93.599400,5033.400406,7624.121203,76.609550
93.599720,4885.359217,8734.430116,-689.485948
93.600041,6291.750507,9474.636058,-1608.800546
93.600362,7254.018232,9252.574275,-1455.581446
93.600683,6587.832884,8586.388927,-1149.143247
93.601004,4737.318029,8068.244768,-766.095498
93.601325,3552.988522,8364.327145,-383.047749
93.601645,3701.029710,9104.533087,-306.438199
93.601966,4367.215058,8808.450710,-612.876398
93.602287,5181.441594,7624.121203,0.000000
93.602608,4959.379811,8068.244768,153.219100
93.602929,4293.194464,9104.533087,0.000000
93.603249,4071.132681,10066.800811,0.000000
93.603570,4663.297435,10510.924376,-1149.143247
93.603891,5625.565159,10140.821405,-1225.752797
93.604212,5551.544565,9696.697840,-1455.581446
93.604533,4737.318029,9030.512492,-766.095498
93.604854,3997.112087,8660.409521,-842.705048
93.605174,3552.988522,9326.594869,-919.314598
93.605495,4367.215058,9622.677246,-459.657299
93.605816,4811.338623,8734.430116,229.828649
93.606137,4737.318029,8290.306550,229.828649
93.606458,4737.318029,8882.471304,383.047749
93.606779,4367.215058,8882.471304,229.828649
93.607099,5255.462188,9178.553681,-229.828649
93.607420,6365.771101,8956.491898,-536.266849
93.607741,6883.915261,8438.347739,-306.438199
93.608062,6513.812290,7698.141797,-1149.143247
93.608383,4959.379811,7105.977043,-766.095498
93.608704,4515.256246,7254.018232,0.000000
93.609024,4959.379811,7624.121203,-383.047749
93.609345,5773.606348,7105.977043,0.000000
93.609666,5921.647536,6513.812290,459.657299
93.609987,5107.421000,7328.038826,1149.143247
93.610308,4515.256246,7846.182985,383.047749
93.610629,4737.318029,8808.450710,-689.485948
93.610949,5625.565159,8734.430116,-1072.533697
93.611270,6365.771101,7772.162391,-536.266849
93.611591,6365.771101,6809.894666,-76.609550
93.611912,5033.400406,6143.709319,0.000000
93.612233,3849.070898,6587.832884,76.609550
93.612554,3627.009116,7402.059420,1072.533697
93.612874,4959.379811,7254.018232,459.657299
93.613195,5255.462188,6735.874072,919.314598
93.613516,5551.544565,5995.668130,1302.362347
93.613837,4811.338623,7105.977043,1225.752797
93.614158,4441.235652,7994.224174,459.657299
93.614479,5255.462188,8216.285956,76.609550
93.614799,5921.647536,8512.368333,-766.095498
93.615120,5625.565159,7698.141797,-459.657299
93.615441,4737.318029,7105.977043,76.609550
93.615762,3997.112087,7254.018232,153.219100
93.616083,3775.050304,7994.224174,689.485948
93.616403,3775.050304,8142.265362,306.438199
93.616724,4293.194464,7254.018232,229.828649
93.617045,4219.173869,6661.853478,229.828649
93.617366,3775.050304,7920.203579,919.314598
93.617687,3552.988522,9252.574275,153.219100
93.618008,4367.215058,9770.718434,-306.438199
93.618328,5477.523971,9844.739029,-1302.362347
93.618649,5921.647536,9326.594869,-1302.362347
93.618970,4959.379811,8290.306550,-842.705048
93.619291,4145.153275,7254.018232,-229.828649
93.619612,4071.132681,7624.121203,306.438199
93.619933,4219.173869,7994.224174,459.657299
93.620253,4885.359217,7772.162391,0.000000
93.620574,5107.421000,7402.059420,0.000000
93.620895,4959.379811,8364.327145,-306.438199
93.621216,4737.318029,9252.574275,-153.219100
93.621537,5329.482782,9992.780217,-842.705048
93.621858,6291.750507,9696.697840,-1608.800546
93.622178,6513.812290,9400.615463,-1302.362347
93.622499,6143.709319,8438.347739,-766.095498
93.622820,5181.441594,7772.162391,-536.266849
93.623141,4367.215058,7772.162391,-919.314598
93.623462,4737.318029,8734.430116,-766.095498
93.623783,5625.565159,9104.533087,-612.876398
93.624103,5625.565159,8142.265362,76.609550
93.624424,5181.441594,8142.265362,229.828649
93.624745,4663.297435,8290.306550,612.876398
93.625066,4441.235652,9178.553681,919.314598
93.625387,5107.421000,9548.656652,-612.876398
93.625708,5773.606348,9400.615463,-1225.752797
93.626028,5625.565159,8882.471304,-1149.143247
93.626349,4959.379811,7698.141797,-689.485948
93.626670,4219.173869,7698.141797,-229.828649
93.626991,4441.235652,8068.244768,0.000000
93.627312,4737.318029,7624.121203,0.000000
93.627632,5107.421000,7031.956449,-306.438199
93.627953,5329.482782,7254.018232,76.609550
93.628274,5921.647536,7402.059420,383.047749
93.628595,5477.523971,7920.203579,76.609550
93.628916,5921.647536,8216.285956,-459.657299
93.629237,6735.874072,8438.347739,-842.705048
93.629557,6809.894666,8290.306550,-766.095498
93.629878,5181.441594,7105.977043,-1455.581446
93.630199,5181.441594,6439.791695,-1149.143247
93.630520,4367.215058,7031.956449,-459.657299
93.630841,4885.359217,7254.018232,0.000000
93.631162,5329.482782,7402.059420,383.047749
93.631482,5107.421000,6809.894666,306.438199
93.631803,4293.194464,7328.038826,612.876398
93.632124,4589.276840,8512.368333,459.657299
93.632445,4959.379811,8882.471304,0.000000
93.632766,5403.503377,9104.533087,-995.924147
93.633087,5699.585753,8882.471304,-995.924147
93.633407,5329.482782,7550.100608,-306.438199
93.633728,4367.215058,6513.812290,383.047749
93.634049,3478.967927,6735.874072,306.438199
93.634370,3552.988522,7254.018232,76.609550
93.634691,4293.194464,7624.121203,229.828649
93.635012,4959.379811,7179.997637,229.828649
93.635332,5181.441594,6883.915261,459.657299
93.635653,4959.379811,7328.038826,612.876398
93.635974,4737.318029,9104.533087,459.657299
93.636295,5181.441594,9474.636058,-459.657299
93.636616,5847.626942,9326.594869,-1072.533697
93.636937,6291.750507,8364.327145,-919.314598
93.637257,5625.565159,8068.244768,-919.314598
93.637578,4145.153275,7402.059420,-536.266849
93.637899,3923.091493,7624.121203,0.000000
93.638220,4441.235652,7846.182985,0.000000
93.638541,4367.215058,7550.100608,-76.609550
93.638862,4219.173869,7179.997637,0.000000
93.639182,3849.070898,8142.265362,229.828649
93.639503,3849.070898,9992.780217,689.485948
93.639824,4811.338623,10732.986159,0.000000
93.640145,5699.585753,10362.883188,-766.095498
93.640466,5921.647536,9548.656652,-1149.143247
93.640786,4737.318029,8438.347739,-612.876398
93.641107,3552.988522,7624.121203,0.000000
93.641428,3256.906145,7846.182985,0.000000
93.641749,4293.194464,8290.306550,0.000000
93.642070,5329.482782,7698.141797,0.000000
93.642391,5255.462188,7402.059420,-306.438199
93.642711,4737.318029,7994.224174,0.000000
93.643032,3775.050304,9252.574275,76.609550
93.643353,4737.318029,9918.759623,-153.219100
93.643674,6365.771101,10288.862594,0.000000
93.643995,6365.771101,10066.800811,-383.047749
93.644316,5699.585753,8586.388927,-689.485948
93.644636,4959.379811,7624.121203,-919.314598
93.644957,4737.318029,7772.162391,0.000000
93.645278,4219.173869,7105.977043,-383.047749
93.645599,5255.462188,6587.832884,-229.828649
93.645920,5625.565159,6143.709319,-612.876398
93.646241,5255.462188,7031.956449,0.000000
93.646561,4737.318029,8586.388927,689.485948
93.646882,4589.276840,9548.656652,-306.438199
93.647203,5773.606348,9918.759623,-1455.581446
93.647524,6217.729913,9178.553681,-1072.533697
93.647845,5699.585753,7772.162391,-689.485948
93.648166,4959.379811,6957.935855,612.876398
93.648486,3775.050304,7105.977043,153.219100
93.648807,4293.194464,8216.285956,0.000000
93.649128,4959.379811,7920.203579,76.609550
93.649449,5477.523971,6809.894666,0.000000
93.649770,5329.482782,6143.709319,689.485948
93.650091,5329.482782,6661.853478,1302.362347
93.650411,4293.194464,7624.121203,842.705048
93.650732,5329.482782,8364.327145,0.000000
93.651053,6809.894666,8882.471304,-842.705048
93.651374,6957.935855,9400.615463,-842.705048
93.651695,5403.503377,8216.285956,-459.657299
93.652015,4515.256246,7254.018232,-229.828649
93.652336,4589.276840,7105.977043,-153.219100
93.652657,4737.318029,7328.038826,459.657299
93.652978,5477.523971,6957.935855,-919.314598
93.653299,5477.523971,6217.729913,-536.266849
93.653620,4663.297435,7476.080014,0.000000
93.653940,4515.256246,8660.409521,459.657299
93.654261,4885.359217,9474.636058,-306.438199
93.654582,5921.647536,9400.615463,-766.095498
93.654903,6661.853478,8882.471304,0.000000
93.655224,5403.503377,7772.162391,306.438199
93.655545,4219.173869,7328.038826,459.657299
93.655865,3552.988522,7328.038826,0.000000
93.656186,4367.215058,7179.997637,0.000000
93.656507,4811.338623,7105.977043,612.876398
93.656828,5181.441594,6957.935855,153.219100
93.657149,5107.421000,7254.018232,0.000000
93.657470,4145.153275,8290.306550,459.657299
93.657790,4293.194464,9474.636058,-229.828649
93.658111,4959.379811,10436.903782,-383.047749
93.658432,5847.626942,10362.883188,-306.438199
93.658753,5625.565159,9622.677246,0.000000
93.659074,4367.215058,8734.430116,-536.266849
93.659395,3330.926739,7698.141797,-153.219100
93.659715,3775.050304,7624.121203,0.000000
93.660036,4071.132681,7772.162391,-76.609550
93.660357,4367.215058,7476.080014,-383.047749
93.660678,4367.215058,8142.265362,383.047749
93.660999,3775.050304,8290.306550,153.219100
93.661320,3775.050304,9474.636058,459.657299
93.661640,4663.297435,10066.800811,0.000000
93.661961,5995.668130,9474.636058,-612.876398
93.662282,5773.606348,9104.533087,-766.095498
93.662603,4515.256246,8364.327145,-689.485948
93.662924,4071.132681,7846.182985,-459.657299
93.663244,4589.276840,8216.285956,-306.438199
93.663565,5255.462188,8364.327145,-383.047749
93.663886,5329.482782,7624.121203,-153.219100
93.664207,5847.626942,6439.791695,0.000000
93.664528,5329.482782,6661.853478,383.047749
93.664849,4737.318029,7402.059420,689.485948
93.665169,5181.441594,9252.574275,0.000000
93.665490,6513.812290,9400.615463,-612.876398
93.665811,6143.709319,8438.347739,-1149.143247
93.666132,6291.750507,7254.018232,-1072.533697
93.666453,5329.482782,6513.812290,-229.828649
93.666774,4441.235652,6513.812290,0.000000
93.667094,4737.318029,7402.059420,0.000000
93.667415,5255.462188,7105.977043,-689.485948
93.667736,5921.647536,6439.791695,-689.485948
93.668057,5699.585753,6365.771101,306.438199
93.668378,5625.565159,7328.038826,306.438199
93.668699,5181.441594,8660.409521,-76.609550
93.669019,6513.812290,9030.512492,-1225.752797
93.669340,7105.977043,8586.388927,-1378.971896
93.669661,6957.935855,7698.141797,-1072.533697
93.669982,6365.771101,7254.018232,153.219100
93.670303,5329.482782,6957.935855,459.657299
93.670624,5033.400406,6661.853478,0.000000
93.670944,5255.462188,6513.812290,0.000000
93.671265,5995.668130,6661.853478,0.000000
93.671586,5551.544565,6513.812290,0.000000
93.671907,4737.318029,7402.059420,-229.828649
93.672228,4811.338623,8586.388927,0.000000
93.672549,5181.441594,9622.677246,-383.047749
93.672869,5551.544565,9548.656652,-383.047749
93.673190,5625.565159,9252.574275,-76.609550
93.673511,4293.194464,8586.388927,0.000000
93.673832,3627.009116,8734.430116,0.000000
93.674153,3108.864956,8734.430116,0.000000
93.674474,3404.947333,8438.347739,-995.924147
93.674794,4737.318029,8142.265362,-229.828649
93.675115,4441.235652,7624.121203,0.000000
93.675436,3997.112087,7476.080014,76.609550
93.675757,3404.947333,8734.430116,919.314598
93.676078,3923.091493,9918.759623,-383.047749
93.676398,4885.359217,10288.862594,-536.266849
93.676719,5329.482782,10140.821405,0.000000
93.677040,5033.400406,9252.574275,0.000000
93.677361,4441.235652,8216.285956,76.609550
93.677682,3997.112087,7550.100608,-229.828649
93.678003,4071.132681,7846.182985,-306.438199
93.678323,4737.318029,7328.038826,-153.219100
93.678644,5033.400406,6957.935855,-76.609550
93.678965,5181.441594,6957.935855,0.000000
93.679286,5255.462188,7698.141797,383.047749
93.679607,5255.462188,9178.553681,459.657299
93.679928,5551.544565,10214.842000,-612.876398
93.680248,6143.709319,9770.718434,-1072.533697
93.680569,5921.647536,8364.327145,-383.047749
93.680890,4811.338623,7105.977043,536.266849
93.681211,4293.194464,6883.915261,536.266849
93.681532,3849.070898,7328.038826,0.000000
93.681853,3997.112087,7698.141797,-306.438199
93.682173,4737.318029,7624.121203,-612.876398
93.682494,5181.441594,6661.853478,-229.828649
93.682815,4737.318029,7105.977043,536.266849
93.683136,4959.379811,8290.306550,459.657299
93.683457,4811.338623,8882.471304,-383.047749
93.683778,5477.523971,9104.533087,-995.924147
93.684098,5995.668130,8290.306550,-612.876398
93.684419,5847.626942,7328.038826,76.609550
93.684740,5625.565159,7105.977043,536.266849
93.685061,4885.359217,7476.080014,459.657299
93.685382,4959.379811,7772.162391,-536.266849
93.685703,5773.606348,6735.874072,-229.828649
93.686023,6513.812290,5995.668130,-153.219100
93.686344,6291.750507,5921.647536,612.876398
93.686665,5625.565159,7105.977043,842.705048
93.686986,5921.647536,8586.388927,-229.828649
93.687307,6365.771101,9104.533087,-1455.581446
93.687627,6735.874072,8882.471304,-1762.019645
93.687948,6735.874072,7920.203579,-1072.533697
93.688269,5995.668130,7179.997637,-153.219100
93.688590,5403.503377,7550.100608,0.000000
93.688911,4737.318029,7846.182985,-536.266849
93.689232,4959.379811,7624.121203,-1302.362347
93.689552,4737.318029,7402.059420,-459.657299
93.689873,4589.276840,7328.038826,0.000000
93.690194,4737.318029,8734.430116,306.438199
93.690515,4885.359217,9474.636058,76.609550
93.690835,4737.318029,9696.697840,-919.314598
93.691156,4959.379811,9326.594869,-919.314598
93.691477,4737.318029,8882.471304,76.609550
93.691798,4515.256246,7846.182985,919.314598
93.692118,3849.070898,7920.203579,995.924147
93.692439,3997.112087,8364.327145,0.000000
93.692760,3923.091493,8512.368333,-612.876398
93.693080,4589.276840,7772.162391,-229.828649
93.693401,4959.379811,7254.018232,0.000000
93.693722,4737.318029,7624.121203,306.438199
93.694043,4959.379811,8882.471304,459.657299
93.694363,5403.503377,10214.842000,-612.876398
93.694684,5477.523971,10658.965565,-536.266849
93.695005,5773.606348,9844.739029,-842.705048
93.695326,5329.482782,8290.306550,0.000000
93.695646,4589.276840,7402.059420,0.000000
93.695967,4071.132681,7550.100608,-306.438199
93.696288,3923.091493,7994.224174,-612.876398
93.696608,4219.173869,7846.182985,-995.924147
93.696929,4367.215058,7550.100608,-229.828649
93.697250,4441.235652,7994.224174,612.876398
93.697571,4145.153275,9326.594869,689.485948
93.697891,4293.194464,10066.800811,306.438199
93.698212,4589.276840,9918.759623,-383.047749
93.698533,4959.379811,9030.512492,-612.876398
93.698853,4663.297435,8216.285956,153.219100
93.699174,3775.050304,7624.121203,536.266849
93.699495,3997.112087,8142.265362,76.609550
93.699816,4367.215058,8068.244768,229.828649
93.700136,4441.235652,7624.121203,766.095498
93.700457,5033.400406,6365.771101,995.924147
93.700778,5255.462188,6069.688724,995.924147
93.701099,5329.482782,6809.894666,689.485948
93.701419,5699.585753,7846.182985,153.219100
93.701740,6735.874072,8438.347739,-76.609550
93.702061,7328.038826,8290.306550,-1072.533697
93.702381,6883.915261,7476.080014,-919.314598
93.702702,6217.729913,6735.874072,0.000000
93.703023,5847.626942,6513.812290,0.000000
93.703344,5329.482782,7105.977043,0.000000
93.703664,5551.544565,6809.894666,-229.828649
93.703985,5773.606348,6883.915261,-383.047749
93.704306,5551.544565,6291.750507,229.828649
93.704627,4811.338623,7031.956449,459.657299
93.704947,4885.359217,7698.141797,306.438199
93.705268,5477.523971,8882.471304,-612.876398
93.705589,5847.626942,9104.533087,-1149.143247
93.705909,5847.626942,8364.327145,-995.924147
93.706230,5329.482782,7624.121203,76.609550
93.706551,4219.173869,7624.121203,306.438199
93.706872,3923.091493,7772.162391,306.438199
93.707192,3923.091493,8142.265362,76.609550
93.707513,4515.256246,7698.141797,76.609550
93.707834,5255.462188,6957.935855,76.609550
93.708155,5033.400406,7772.162391,229.828649
93.708475,4589.276840,8660.409521,229.828649
93.708796,4885.359217,9548.656652,-459.657299
93.709117,5699.585753,9918.759623,-1072.533697
93.709437,6217.729913,9622.677246,-842.705048
93.709758,5551.544565,8586.388927,-459.657299
93.710079,4589.276840,8216.285956,-536.266849
93.710400,4441.235652,8068.244768,-306.438199
93.710720,4441.235652,8734.430116,-76.609550
93.711041,4737.318029,8438.347739,-842.705048
93.711362,5329.482782,7402.059420,-766.095498
93.711682,4737.318029,7550.100608,0.000000
93.712003,4441.235652,9252.574275,76.609550
93.712324,4811.338623,9770.718434,0.000000
93.712645,5699.585753,9992.780217,-1149.143247
93.712965,5995.668130,9400.615463,-1302.362347
93.713286,5477.523971,8586.388927,0.000000
93.713607,4737.318029,8660.409521,229.828649
93.713928,3256.906145,8808.450710,-536.266849
93.714248,3182.885551,9030.512492,-689.485948
93.714569,4737.318029,8216.285956,-383.047749
93.714890,4811.338623,7328.038826,229.828649
93.715210,4663.297435,7179.997637,1149.143247
93.715531,4219.173869,7476.080014,689.485948
93.715852,3701.029710,8734.430116,383.047749
93.716173,4663.297435,9474.636058,0.000000
93.716493,5995.668130,9844.739029,0.000000
93.716814,5773.606348,9178.553681,-536.266849
93.717135,4811.338623,8290.306550,-459.657299
93.717456,4293.194464,7476.080014,459.657299
93.717776,3775.050304,7254.018232,229.828649
93.718097,3997.112087,7254.018232,689.485948
93.718418,4589.276840,6735.874072,0.000000
93.718738,4737.318029,6809.894666,-76.609550
93.719059,4811.338623,7402.059420,689.485948
93.719380,4663.297435,8216.285956,459.657299
93.719701,5403.503377,8068.244768,-306.438199
93.720021,6365.771101,8512.368333,-612.876398
93.720342,6809.894666,8512.368333,-306.438199
93.720663,6143.709319,7031.956449,0.000000
93.720984,5403.503377,6513.812290,-306.438199
93.721304,5403.503377,6735.874072,919.314598
93.721625,5625.565159,7179.997637,0.000000
93.721946,5773.606348,6957.935855,0.000000
93.722266,5995.668130,6291.750507,153.219100
93.722587,5625.565159,6365.771101,76.609550
93.722908,5329.482782,6883.915261,459.657299
93.723229,5551.544565,7772.162391,0.000000
93.723549,5847.626942,8364.327145,-459.657299
93.723870,6143.709319,8882.471304,-689.485948
93.724191,5995.668130,8438.347739,-459.657299
93.724511,5255.462188,7994.224174,-383.047749
93.724832,4071.132681,7846.182985,0.000000
93.725153,3849.070898,8142.265362,0.000000
93.725474,4071.132681,8364.327145,-153.219100
93.725794,4071.132681,7846.182985,0.000000
93.726115,4515.256246,7105.977043,536.266849
93.726436,4441.235652,7772.162391,612.876398
93.726757,3478.967927,8808.450710,536.266849
93.727077,3997.112087,9770.718434,0.000000
93.727398,4737.318029,9992.780217,-1225.752797
93.727719,5107.421000,9548.656652,-766.095498
93.728039,5033.400406,8882.471304,0.000000
93.728360,4145.153275,7920.203579,-153.219100
93.728681,3552.988522,7846.182985,-306.438199
93.729002,4293.194464,8882.471304,0.000000
93.729322,4589.276840,8216.285956,0.000000
93.729643,4885.359217,7550.100608,0.000000
93.729964,4737.318029,7920.203579,0.000000
93.730285,4515.256246,8882.471304,-612.876398
93.730605,5255.462188,9400.615463,-383.047749
93.730926,5773.606348,9992.780217,-1302.362347
93.731247,5847.626942,9400.615463,-1608.800546
93.731567,5403.503377,8290.306550,-995.924147
93.731888,3775.050304,7920.203579,-842.705048
93.732209,3330.926739,7994.224174,-612.876398
93.732530,3478.967927,9104.533087,-383.047749
93.732850,3775.050304,8512.368333,-153.219100
93.733171,4441.235652,8290.306550,76.609550
93.733492,4515.256246,7920.203579,842.705048
93.733813,3997.112087,8142.265362,919.314598
93.734133,4145.153275,8956.491898,153.219100
93.734454,4959.379811,9696.697840,-766.095498
93.734775,5847.626942,9474.636058,-1072.533697
93.735095,6143.709319,8586.388927,-689.485948
93.735416,5773.606348,7105.977043,-229.828649
93.735737,5107.421000,7105.977043,153.219100
93.736058,4441.235652,7179.997637,76.609550
93.736378,5255.462188,6809.894666,0.000000
93.736699,6439.791695,6143.709319,76.609550
93.737020,6439.791695,6365.771101,612.876398
93.737341,6513.812290,6513.812290,766.095498
93.737661,6439.791695,7624.121203,0.000000
93.737982,6513.812290,8068.244768,-842.705048
93.738303,7476.080014,8068.244768,-766.095498
93.738623,7772.162391,7476.080014,-919.314598
93.738944,7254.018232,6661.853478,-306.438199
93.739265,5995.668130,6217.729913,-459.657299
93.739586,5329.482782,6735.874072,-612.876398
93.739906,5551.544565,7402.059420,-612.876398
93.740227,5033.400406,7105.977043,0.000000
93.740548,5181.441594,6661.853478,76.609550
93.740868,4885.359217,6735.874072,766.095498
93.741189,4663.297435,7698.141797,842.705048
93.741510,4515.256246,8956.491898,306.438199
93.741831,4885.359217,9400.615463,-689.485948
93.742151,5329.482782,9400.615463,-306.438199
93.742472,4885.359217,7994.224174,229.828649
93.742793,3997.112087,7476.080014,842.705048
93.743114,3997.112087,7105.977043,536.266849
93.743434,3627.009116,7920.203579,76.609550
93.743755,4293.194464,8216.285956,-383.047749
93.744076,4885.359217,7624.121203,76.609550
93.744396,5033.400406,7105.977043,306.438199
93.744717,4737.318029,7994.224174,689.485948
93.745038,4663.297435,8956.491898,153.219100
93.745359,4737.318029,9622.677246,-766.095498
93.745679,5551.544565,9696.697840,-995.924147
93.746000,5625.565159,8660.409521,-612.876398
93.746321,5107.421000,7846.182985,-842.705048
93.746642,4515.256246,7772.162391,-306.438199
93.746962,3478.967927,8660.409521,-995.924147
93.747283,3997.112087,9104.533087,-842.705048
93.747604,4071.132681,8364.327145,-1072.533697
93.747924,4219.173869,8216.285956,0.000000
93.748245,4145.153275,8290.306550,383.047749
93.748566,3923.091493,9474.636058,536.266849
93.748887,3701.029710,10807.006753,-306.438199
93.749207,4293.194464,10510.924376,-383.047749
93.749528,4885.359217,9844.739029,-766.095498
93.749849,4367.215058,8660.409521,-229.828649
93.750170,3182.885551,8068.244768,229.828649
93.750490,3034.844362,8364.327145,153.219100
93.750811,3478.967927,8882.471304,306.438199
93.751132,3701.029710,8364.327145,306.438199
93.751452,4737.318029,6809.894666,995.924147
93.751773,5107.421000,7105.977043,995.924147
93.752094,4589.276840,8660.409521,536.266849
93.752415,4737.318029,9548.656652,-459.657299
93.752735,6291.750507,9622.677246,-1225.752797
93.753056,7031.956449,8364.327145,-842.705048
93.753377,6661.853478,7031.956449,0.000000
93.753697,5921.647536,6439.791695,-306.438199
93.754018,5625.565159,7105.977043,-919.314598
93.754339,5847.626942,7846.182985,-766.095498
93.754660,7105.977043,7105.977043,-1225.752797
93.754980,7772.162391,5255.462188,-919.314598
93.755301,7328.038826,4515.256246,229.828649
93.755622,6143.709319,6291.750507,2298.286494
93.755943,5847.626942,8290.306550,229.828649
93.756263,6069.688724,8882.471304,-1302.362347
93.756584,7254.018232,8808.450710,-1838.629195
93.756905,7031.956449,7772.162391,-995.924147
93.757225,5995.668130,6217.729913,0.000000
93.757546,4737.318029,6291.750507,689.485948
93.757867,4441.235652,7328.038826,76.609550
93.758188,4367.215058,7328.038826,153.219100
93.758508,5181.441594,7254.018232,689.485948
93.758829,5107.421000,6957.935855,536.266849
93.759150,5181.441594,6809.894666,612.876398
93.759471,4959.379811,8216.285956,919.314598
93.759791,5255.462188,8882.471304,0.000000
93.760112,6069.688724,8660.409521,-459.657299
93.760433,6069.688724,7550.100608,-153.219100
93.760753,4885.359217,7254.018232,-689.485948
93.761074,4515.256246,7772.162391,229.828649
93.761395,4515.256246,8364.327145,153.219100
93.761716,4811.338623,8364.327145,-306.438199
93.762036,5625.565159,7476.080014,306.438199
93.762357,5477.523971,6883.915261,76.609550
93.762678,4589.276840,7105.977043,459.657299
93.762999,3775.050304,8364.327145,-153.219100
93.763319,4441.235652,9326.594869,-995.924147
93.763640,5625.565159,10214.842000,-1378.971896
93.763961,5847.626942,9918.759623,-919.314598
93.764281,4959.379811,9030.512492,-842.705048
93.764602,3775.050304,8512.368333,-383.047749
93.764923,2960.823768,8438.347739,-536.266849
93.765244,2960.823768,8734.430116,536.266849
93.765564,3775.050304,7920.203579,153.219100
93.765885,4145.153275,6957.935855,229.828649
93.766206,3849.070898,8068.244768,153.219100
93.766526,3108.864956,9104.533087,459.657299
93.766847,2960.823768,10066.800811,76.609550
93.767168,4515.256246,9992.780217,-459.657299
93.767489,5403.503377,9918.759623,-612.876398
93.767809,4885.359217,9104.533087,-612.876398
93.768130,4219.173869,7698.141797,-689.485948
93.768451,4367.215058,7254.018232,-766.095498
93.768772,4219.173869,8216.285956,-76.609550
93.769092,4589.276840,8364.327145,-229.828649
93.769413,4737.318029,8068.244768,0.000000
93.769734,4663.297435,7772.162391,459.657299
93.770054,4219.173869,8364.327145,536.266849
93.770375,4219.173869,8586.388927,229.828649
93.770696,5329.482782,8660.409521,-1225.752797
93.771017,5921.647536,8882.471304,-1072.533697
93.771337,6735.874072,8364.327145,-766.095498
93.771658,5551.544565,7550.100608,-153.219100
93.771979,4811.338623,7105.977043,0.000000
93.772300,4663.297435,7105.977043,306.438199
93.772620,4959.379811,7698.141797,306.438199
93.772941,5847.626942,6883.915261,153.219100
93.773262,5995.668130,6143.709319,-306.438199
93.773582,6069.688724,6513.812290,306.438199
93.773903,5847.626942,6957.935855,536.266849
93.774224,5551.544565,8290.306550,-536.266849
93.774545,6439.791695,8956.491898,-995.924147
93.774865,7105.977043,8512.368333,-842.705048
93.775186,6735.874072,7550.100608,-459.657299
93.775507,5625.565159,6513.812290,-306.438199
93.775828,4737.318029,6587.832884,-383.047749
93.776148,4515.256246,7105.977043,229.828649
93.776469,5255.462188,7476.080014,0.000000
93.776790,5625.565159,6957.935855,229.828649
93.777110,5699.585753,6143.709319,229.828649
93.777431,5551.544565,6809.894666,459.657299
93.777752,4959.379811,8290.306550,0.000000
93.778073,5477.523971,9474.636058,-689.485948
93.778393,6587.832884,8882.471304,-995.924147
93.778714,6513.812290,7994.224174,-842.705048
93.779035,5551.544565,7031.956449,-536.266849
93.779355,4589.276840,7402.059420,-229.828649
93.779676,4589.276840,8438.347739,0.000000
93.779997,4737.318029,8512.368333,-536.266849
93.780318,5477.523971,7254.018232,-306.438199
93.780638,5625.565159,6513.812290,-229.828649
93.780959,5181.441594,6957.935855,459.657299
93.781280,3775.050304,8808.450710,536.266849
93.781601,4293.194464,9918.759623,-689.485948
93.781921,5847.626942,10140.821405,-1225.752797
93.782242,5477.523971,9326.594869,-919.314598
93.782563,4811.338623,7994.224174,-306.438199
93.782883,3627.009116,8068.244768,-383.047749
93.783204,2664.741391,9178.553681,-153.219100
93.783525,2886.803174,9770.718434,0.000000
93.783846,3775.050304,9030.512492,-536.266849
93.784166,4367.215058,7846.182985,0.000000
93.784487,3701.029710,8586.388927,919.314598
93.784808,2960.823768,9326.594869,1072.533697
93.785129,3182.885551,10510.924376,-383.047749
93.785449,3923.091493,10362.883188,-842.705048
93.785770,5181.441594,9992.780217,-612.876398
93.786091,5033.400406,8956.491898,0.000000
93.786411,3701.029710,8068.244768,-153.219100
93.786732,2738.761985,8364.327145,-76.609550
93.787053,3701.029710,8808.450710,-229.828649
93.787374,4589.276840,8142.265362,306.438199
93.787694,4959.379811,7105.977043,766.095498
93.788015,5107.421000,6513.812290,1455.581446
93.788336,4293.194464,7476.080014,842.705048
93.788657,4737.318029,8956.491898,0.000000
93.788977,5847.626942,9178.553681,-1302.362347
93.789298,7179.997637,9104.533087,-1302.362347
93.789619,7105.977043,8216.285956,-842.705048
93.789939,6365.771101,7476.080014,-459.657299
93.790260,5181.441594,6957.935855,-383.047749
93.790581,4737.318029,7179.997637,-383.047749
93.790902,4885.359217,7624.121203,-306.438199
93.791222,5329.482782,7031.956449,0.000000
93.791543,5921.647536,6143.709319,689.485948
93.791864,5551.544565,6587.832884,919.314598
93.792184,4811.338623,7994.224174,689.485948
93.792503,5255.462188,8734.430116,-229.828649
93.792824,5921.647536,8586.388927,-1149.143247
93.793145,6291.750507,7772.162391,-536.266849
93.793466,5995.668130,6439.791695,306.438199
93.793787,5255.462188,6513.812290,306.438199
93.794107,4663.297435,7105.977043,0.000000
93.794428,4959.379811,7698.141797,229.828649
93.794749,5995.668130,6809.894666,0.000000
93.795070,6143.709319,6143.709319,306.438199
93.795390,5773.606348,6143.709319,536.266849
93.795711,5255.462188,7328.038826,306.438199
93.796032,5403.503377,8438.347739,0.000000
93.796353,6365.771101,8660.409521,-919.314598
93.796674,7254.018232,8216.285956,-995.924147
93.796994,6587.832884,7105.977043,-1302.362347
93.797315,5699.585753,6365.771101,-1378.971896
93.797636,4737.318029,7624.121203,-842.705048
93.797957,5107.421000,8734.430116,-842.705048
93.798278,5107.421000,8290.306550,-612.876398
93.798598,6291.750507,7402.059420,0.000000
93.798919,5181.441594,7402.059420,306.438199
93.799240,3478.967927,8512.368333,995.924147
93.799561,3404.947333,9548.656652,0.000000
93.799882,4515.256246,10436.903782,-1225.752797
93.800202,4885.359217,10288.862594,-1455.581446
93.800523,5181.441594,9918.759623,-842.705048
93.800844,3923.091493,8956.491898,-842.705048
93.801165,1998.556043,8512.368333,153.219100
93.801485,2368.659014,9474.636058,766.095498
93.801806,2590.720797,9474.636058,842.705048
93.802127,3627.009116,8660.409521,842.705048
93.802448,3775.050304,8216.285956,1608.800546
93.802769,3552.988522,8438.347739,919.314598
93.803089,3404.947333,9696.697840,536.266849
93.803410,3627.009116,10584.944971,-383.047749
93.803731,5329.482782,9992.780217,-1455.581446
93.804052,6291.750507,8882.471304,-919.314598
93.804373,5625.565159,7994.224174,-536.266849
93.804693,4441.235652,7624.121203,-306.438199
93.805014,3849.070898,8438.347739,-766.095498
93.805335,4145.153275,9178.553681,-1072.533697
93.805656,5181.441594,8216.285956,-612.876398
93.805976,5773.606348,7328.038826,0.000000
93.806297,5033.400406,7105.977043,842.705048
93.806618,4219.173869,7772.162391,612.876398
93.806939,4219.173869,9252.574275,0.000000
93.807260,5181.441594,9252.574275,-383.047749
93.807580,6217.729913,8364.327145,-689.485948
93.807901,5699.585753,7179.997637,-229.828649
93.808222,4885.359217,6513.812290,153.219100
93.808543,3997.112087,6957.935855,459.657299
93.808864,4441.235652,7476.080014,689.485948
93.809184,5107.421000,7105.977043,229.828649
93.809505,6365.771101,6365.771101,153.219100
93.809826,6069.688724,6069.688724,842.705048
93.810147,5255.462188,6735.874072,1302.362347
93.810467,4959.379811,7846.182985,153.219100
93.810788,5625.565159,8586.388927,-919.314598
93.811109,6957.935855,8216.285956,-1302.362347
93.811430,7105.977043,7550.100608,-995.924147
93.811751,6365.771101,6809.894666,-229.828649
93.812071,5551.544565,6587.832884,0.000000
93.812392,4959.379811,7105.977043,-459.657299
93.812713,5329.482782,7328.038826,0.000000
93.813034,5847.626942,6439.791695,229.828649
93.813355,5773.606348,5847.626942,995.924147
93.813675,5699.585753,6217.729913,1072.533697
93.813996,4959.379811,7179.997637,306.438199
93.814317,5477.523971,8438.347739,-842.705048
93.814638,6587.832884,9474.636058,-1608.800546
93.814959,6661.853478,9178.553681,-1149.143247
93.815279,6069.688724,8438.347739,-766.095498
93.815600,5255.462188,8068.244768,-383.047749
93.815921,4589.276840,8660.409521,-612.876398
93.816242,4071.132681,9030.512492,-459.657299
93.816562,4367.215058,8290.306550,-919.314598
93.816883,5181.441594,7328.038826,153.219100
93.817204,4515.256246,7476.080014,1149.143247
93.817525,3701.029710,8586.388927,1225.752797
93.817846,3849.070898,9918.759623,0.000000
93.818166,4515.256246,10214.842000,-995.924147
93.818487,4885.359217,10140.821405,-1149.143247
93.818808,5107.421000,8364.327145,-306.438199
93.819129,4737.318029,7698.141797,153.219100
93.819450,3627.009116,8734.430116,0.000000
93.819770,3182.885551,9770.718434,-536.266849
93.820091,4145.153275,9770.718434,-766.095498
93.820412,4515.256246,8512.368333,-536.266849
93.820733,4663.297435,7920.203579,306.438199
93.821053,4663.297435,8512.368333,383.047749
93.821374,3997.112087,9696.697840,0.000000
93.821695,4145.153275,11029.068536,-766.095498
93.822016,4959.379811,10510.924376,-1532.190996
93.822337,4885.359217,9400.615463,-1072.533697
93.822657,4441.235652,7772.162391,-536.266849
93.822978,3849.070898,7550.100608,76.609550
93.823299,3849.070898,8216.285956,459.657299
93.823620,3701.029710,8734.430116,153.219100
93.823941,4663.297435,7624.121203,0.000000
93.824261,4959.379811,6735.874072,612.876398
93.824582,4737.318029,6957.935855,1455.581446
93.824903,4515.256246,8364.327145,1072.533697
93.825224,4959.379811,9474.636058,-459.657299
93.825544,5773.606348,9474.636058,-1302.362347
93.825865,6587.832884,8142.265362,-1149.143247
93.826186,6143.709319,6661.853478,-536.266849
93.826507,5181.441594,6365.771101,0.000000
93.826828,4663.297435,7105.977043,153.219100
93.827148,4811.338623,7772.162391,0.000000
93.827469,5329.482782,7550.100608,-229.828649
93.827790,5921.647536,6439.791695,306.438199
93.828111,6069.688724,6291.750507,842.705048
93.828432,5477.523971,7179.997637,766.095498
93.828752,5107.421000,8512.368333,0.000000
93.829073,5847.626942,8586.388927,-1072.533697
93.829394,7105.977043,8068.244768,-1302.362347
93.829715,7105.977043,7179.997637,-383.047749
93.830036,5477.523971,6217.729913,0.000000
93.830356,4959.379811,6291.750507,153.219100
93.830677,5033.400406,6661.853478,306.438199
93.830998,5403.503377,6883.915261,0.000000
93.831319,5921.647536,6735.874072,-153.219100
93.831639,6217.729913,6291.750507,612.876398
93.831960,5921.647536,7476.080014,306.438199
93.832281,5625.565159,8290.306550,-459.657299
93.832602,6365.771101,9252.574275,-1149.143247
93.832923,6957.935855,8808.450710,-995.924147
93.833243,5995.668130,7772.162391,-842.705048
93.833564,5403.503377,7031.956449,-536.266849
93.833885,4367.215058,7105.977043,-153.219100
93.834206,3997.112087,8586.388927,-306.438199
93.834527,4589.276840,8882.471304,-612.876398
93.834847,4885.359217,8068.244768,-229.828649
93.835168,4663.297435,7328.038826,383.047749
93.835489,4293.194464,7920.203579,1149.143247
93.835810,3923.091493,8512.368333,689.485948
93.836130,3627.009116,9844.739029,-766.095498
93.836451,4737.318029,9770.718434,-1149.143247
93.836772,5625.565159,9770.718434,-1072.533697
93.837093,5107.421000,8956.491898,-689.485948
93.837414,4219.173869,8660.409521,-153.219100
93.837734,3701.029710,8956.491898,-383.047749
93.838055,3849.070898,9326.594869,-459.657299
93.838376,4219.173869,8364.327145,0.000000
93.838697,4589.276840,7402.059420,229.828649
93.839018,4811.338623,7328.038826,766.095498
93.839338,4219.173869,8956.491898,536.266849
93.839659,4663.297435,10140.821405,-459.657299
93.839980,5403.503377,9696.697840,-1685.410096
93.840301,5995.668130,9400.615463,-1378.971896
93.840621,5995.668130,8586.388927,-612.876398
93.840942,4737.318029,8142.265362,-153.219100
93.841263,3849.070898,7772.162391,-612.876398
93.841584,4811.338623,8216.285956,0.000000
93.841905,4441.235652,8438.347739,-383.047749
93.842225,4441.235652,8068.244768,-459.657299
93.842546,4737.318029,7624.121203,536.266849
93.842867,4071.132681,8068.244768,689.485948
93.843188,4293.194464,9104.533087,383.047749
93.843509,4959.379811,9770.718434,0.000000
93.843829,5403.503377,9400.615463,-1072.533697
93.844150,5107.421000,8808.450710,-612.876398
93.844471,4441.235652,7624.121203,459.657299
93.844792,3923.091493,6883.915261,536.266849
93.845113,4145.153275,6661.853478,459.657299
93.845433,4737.318029,7105.977043,536.266849
93.845754,5477.523971,6587.832884,76.609550
93.846075,5403.503377,6291.750507,536.266849
93.846396,5477.523971,6587.832884,842.705048
93.846716,5773.606348,7031.956449,612.876398
93.847037,6217.729913,7920.203579,229.828649
93.847358,7031.956449,8734.430116,-1149.143247
93.847679,7328.038826,8290.306550,-1378.971896
93.848000,6735.874072,6957.935855,-1225.752797
93.848320,6513.812290,6069.688724,-689.485948
93.848641,5921.647536,6365.771101,-536.266849
93.848962,5551.544565,7105.977043,-383.047749
93.849283,5255.462188,6809.894666,0.000000
93.849604,5255.462188,6217.729913,76.609550
93.849924,5181.441594,6291.750507,536.266849
93.850245,4885.359217,7105.977043,842.705048
93.850566,5033.400406,8956.491898,0.000000
93.850887,5403.503377,9696.697840,-612.876398
93.851207,5773.606348,9030.512492,-842.705048
93.851528,5403.503377,7846.182985,-536.266849
93.851849,5107.421000,6735.874072,306.438199
93.852170,4293.194464,7476.080014,0.000000
93.852491,4367.215058,8438.347739,-459.657299
93.852811,4885.359217,8290.306550,-383.047749
93.853132,5625.565159,7402.059420,0.000000
93.853453,5329.482782,7179.997637,0.000000
93.853774,4959.379811,8216.285956,766.095498
93.854095,4367.215058,9474.636058,306.438199
93.854415,4441.235652,9992.780217,-919.314598
93.854736,5551.544565,9696.697840,-1378.971896
93.855057,5625.565159,9474.636058,-1302.362347
93.855378,4589.276840,8512.368333,-995.924147
93.855699,3849.070898,7846.182985,-383.047749
93.856019,3552.988522,8660.409521,-306.438199
93.856340,3849.070898,9178.553681,-383.047749
93.856661,4071.132681,8808.450710,76.609550
93.856982,3849.070898,8216.285956,306.438199
93.857302,3997.112087,8808.450710,229.828649
93.857623,3997.112087,10362.883188,0.000000
93.857944,3923.091493,11473.192101,-766.095498
93.858265,4737.318029,11251.130318,-1532.190996
93.858586,5181.441594,10510.924376,-766.095498
93.858906,4145.153275,8808.450710,0.000000
93.859227,3108.864956,7402.059420,536.266849
93.859548,3034.844362,7402.059420,459.657299
93.859869,3182.885551,7994.224174,-306.438199
93.860190,4441.235652,7920.203579,0.000000
93.860510,5181.441594,7105.977043,689.485948
93.860831,5255.462188,7254.018232,1225.752797
93.861152,5329.482782,8290.306550,842.705048
93.861473,5477.523971,9548.656652,-229.828649
93.861793,5699.585753,9548.656652,-1378.971896
93.862114,6661.853478,8512.368333,-1455.581446
93.862435,7105.977043,7031.956449,-153.219100
93.862756,6217.729913,5921.647536,153.219100
93.863077,5033.400406,5995.668130,-153.219100
93.863397,4737.318029,6809.894666,-689.485948
93.863718,5329.482782,7328.038826,-919.314598
93.864039,5551.544565,6217.729913,-229.828649
93.864360,6291.750507,5255.462188,689.485948
93.864681,6217.729913,5847.626942,1149.143247
93.865001,5329.482782,7920.203579,689.485948
93.865322,5033.400406,8808.450710,-1149.143247
93.865643,5921.647536,8216.285956,-1149.143247
93.865964,6661.853478,7698.141797,-459.657299
93.866284,6365.771101,7179.997637,536.266849
93.866605,5329.482782,7031.956449,766.095498
93.866926,4589.276840,7105.977043,0.000000
93.867247,4441.235652,7105.977043,-383.047749
93.867568,4885.359217,6143.709319,383.047749
93.867888,5477.523971,5403.503377,995.924147
93.868209,5181.441594,6069.688724,1225.752797
93.868530,5329.482782,7846.182985,919.314598
93.868851,5477.523971,9622.677246,-306.438199
93.869172,5921.647536,10066.800811,-1149.143247
93.869492,6513.812290,9178.553681,-689.485948
93.869813,5995.668130,8142.265362,-383.047749
93.870134,4811.338623,6957.935855,0.000000
93.870455,4071.132681,7550.100608,229.828649
93.870776,4293.194464,8142.265362,-536.266849
93.871096,4441.235652,8364.327145,-229.828649
93.871417,4737.318029,7920.203579,-229.828649
93.871738,4885.359217,7772.162391,-306.438199
93.872059,4959.379811,9104.533087,76.609550
93.872379,4441.235652,9918.759623,0.000000
93.872700,4663.297435,10436.903782,-919.314598
93.873021,5477.523971,9992.780217,-995.924147
93.873342,4811.338623,9622.677246,-383.047749
93.873663,4515.256246,8734.430116,-153.219100
