#time,accel_x,accel_y,accel_z
600.592468,5255.462188,8364.327145,-383.047749
600.592788,4959.379811,8068.244768,0.000000
600.593109,4885.359217,7846.182985,0.000000
600.593430,5255.462188,8142.265362,-229.828649
600.593750,4811.338623,8142.265362,-383.047749
600.594071,4959.379811,8364.327145,-229.828649
600.594392,4885.359217,8216.285956,-306.438199
600.594712,5033.400406,8068.244768,-536.266849
600.595033,4811.338623,8216.285956,-306.438199
600.595354,5329.482782,8216.285956,-306.438199
600.595674,4959.379811,8142.265362,-229.828649
600.595995,4959.379811,7846.182985,-536.266849
600.596316,4959.379811,7920.203579,0.000000
600.596636,4959.379811,7846.182985,-153.219100
600.596957,4663.297435,8290.306550,229.828649
600.597278,4811.338623,7846.182985,229.828649
600.597598,5181.441594,8216.285956,-306.438199
600.597919,4959.379811,7994.224174,-229.828649
600.598240,4885.359217,7920.203579,-153.219100
600.598560,4737.318029,7920.203579,0.000000
600.598881,4737.318029,7994.224174,-76.609550
600.599202,4959.379811,8142.265362,-76.609550
600.599522,4811.338623,7846.182985,-153.219100
600.599843,4885.359217,7994.224174,0.000000
600.600164,4811.338623,8290.306550,0.000000
600.600484,4737.318029,8216.285956,-76.609550
600.600805,4737.318029,7994.224174,-76.609550
600.601126,4885.359217,8216.285956,0.000000
600.601446,5255.462188,7994.224174,-306.438199
600.601767,4959.379811,7920.203579,-383.047749
600.602088,4959.379811,7920.203579,-229.828649
600.602408,4959.379811,8068.244768,-76.609550
600.602729,4885.359217,7920.203579,-153.219100
600.603050,4811.338623,8142.265362,0.000000
600.603370,4589.276840,7920.203579,-536.266849
600.603691,3997.112087,7179.997637,-383.047749
600.604012,4589.276840,7772.162391,153.219100
600.604332,4811.338623,9252.574275,-766.095498
600.604653,4515.256246,9918.759623,-1378.971896
600.604974,4737.318029,9992.780217,-1302.362347
600.605294,4515.256246,9696.697840,-919.314598
600.605615,3775.050304,9178.553681,0.000000
600.605936,3182.885551,8438.347739,919.314598
600.606256,2886.803174,8882.471304,1149.143247
600.606577,2738.761985,9326.594869,153.219100
600.606898,2590.720797,9252.574275,-459.657299
600.607218,2738.761985,8586.388927,-383.047749
600.607539,3034.844362,9104.533087,-383.047749
600.607860,3034.844362,9474.636058,459.657299
600.608180,2442.679609,9474.636058,689.485948
600.608501,2146.597232,8660.409521,229.828649
600.608822,2368.659014,9622.677246,-536.266849
600.609142,2072.576638,10807.006753,-919.314598
600.609463,1998.556043,11769.274478,-1225.752797
600.609784,1776.494261,11991.336260,-919.314598
600.610104,1628.453072,12065.356855,-612.876398
600.610425,222.061783,11103.089130,-995.924147
600.610746,-666.185348,10732.986159,-1762.019645
600.611066,-1480.411884,11991.336260,-842.705048
600.611387,-1480.411884,12213.398043,153.219100
600.611708,-1554.432478,12361.439231,995.924147
600.612028,-1184.329507,11991.336260,842.705048
600.612349,-962.267725,12361.439231,1838.629195
600.612670,-1480.411884,12953.603985,1838.629195
600.612990,-2294.638420,11769.274478,1532.190996
600.613311,-1998.556043,10288.862594,0.000000
600.613632,-1332.370696,9696.697840,-153.219100
600.613952,-1036.288319,9474.636058,306.438199
600.614273,-518.144159,9696.697840,612.876398
600.614594,0.000000,10362.883188,459.657299
600.614914,666.185348,11029.068536,-842.705048
600.615235,1406.391290,11103.089130,-1532.190996
600.615556,1998.556043,10658.965565,-1302.362347
600.615876,2738.761985,10510.924376,76.609550
600.616197,3256.906145,10881.027347,229.828649
600.616518,2738.761985,9844.739029,-536.266849
600.616838,2294.638420,8956.491898,-2221.676944
600.617159,1776.494261,9104.533087,-1915.238745
600.617480,2220.617826,9770.718434,-1378.971896
600.617800,2072.576638,10066.800811,-689.485948
600.618121,1924.535449,10140.821405,-919.314598
600.618442,1480.411884,10881.027347,-459.657299
600.618762,444.123565,11473.192101,76.609550
600.619083,-740.205942,10881.027347,919.314598
600.619404,-666.185348,10066.800811,766.095498
600.619724,-518.144159,9992.780217,995.924147
600.620045,-296.082377,10140.821405,1072.533697
600.620366,-666.185348,10362.883188,536.266849
600.620686,-370.102971,11473.192101,689.485948
600.621007,74.020594,11917.315666,995.924147
600.621328,666.185348,11695.253884,995.924147
600.621648,888.247130,11177.109724,612.876398
600.621969,740.205942,10584.944971,76.609550
600.622290,1258.350101,10214.842000,-383.047749
600.622610,1998.556043,9696.697840,306.438199
600.622931,1480.411884,9400.615463,0.000000
600.623252,1924.535449,8660.409521,-383.047749
600.623572,2442.679609,8956.491898,-766.095498
600.623893,2886.803174,10214.842000,-995.924147
600.624214,2590.720797,10955.047942,-612.876398
600.624534,3256.906145,10732.986159,-612.876398
600.624855,3627.009116,10584.944971,-1225.752797
600.625176,3182.885551,9992.780217,-995.924147
600.625496,2738.761985,9770.718434,-459.657299
600.625817,2220.617826,10362.883188,-1225.752797
600.626138,1110.308913,11251.130318,-612.876398
600.626458,740.205942,11399.171507,-459.657299
600.626779,592.164754,11251.130318,-689.485948
600.627100,74.020594,10584.944971,-1378.971896
600.627420,-592.164754,9770.718434,-766.095498
600.627741,-1480.411884,9030.512492,-766.095498
600.628062,-1776.494261,8882.471304,229.828649
600.628382,-1554.432478,9474.636058,995.924147
600.628703,-296.082377,11251.130318,1685.410096
600.629024,666.185348,13027.624579,1532.190996
600.629344,814.226536,14434.015869,1149.143247
600.629665,1036.288319,13841.851115,229.828649
600.629986,1702.473667,11695.253884,-536.266849
600.630306,1406.391290,10066.800811,-76.609550
600.630627,740.205942,9548.656652,229.828649
600.630948,0.000000,9548.656652,-536.266849
600.631268,-1406.391290,9622.677246,-1608.800546
600.631589,-1480.411884,9696.697840,-1915.238745
600.631909,-1258.350101,10658.965565,-1685.410096
600.632230,-148.041188,11473.192101,0.000000
600.632551,518.144159,11991.336260,459.657299
600.632871,296.082377,13323.706956,0.000000
600.633192,370.102971,13471.748144,-536.266849
600.633513,444.123565,13323.706956,0.000000
600.633833,740.205942,12213.398043,0.000000
600.634154,888.247130,10658.965565,0.000000
600.634475,1998.556043,8586.388927,76.609550
600.634795,1776.494261,8216.285956,229.828649
600.635116,666.185348,8808.450710,612.876398
600.635437,0.000000,9844.739029,842.705048
600.635757,222.061783,9622.677246,612.876398
600.636078,0.000000,8216.285956,-229.828649
600.636399,1258.350101,8438.347739,0.000000
600.636719,2146.597232,9992.780217,0.000000
600.637040,1554.432478,12065.356855,-459.657299
600.637361,444.123565,13545.768739,-1455.581446
600.637681,1332.370696,13989.892304,-1838.629195
600.638002,1110.308913,13175.665768,-2145.067394
600.638323,444.123565,11473.192101,-1378.971896
600.638643,518.144159,10732.986159,-383.047749
600.638964,592.164754,10584.944971,459.657299
600.639285,370.102971,10436.903782,1455.581446
600.639605,-666.185348,10658.965565,842.705048
600.639926,-740.205942,9844.739029,536.266849
600.640247,-1628.453072,8808.450710,1608.800546
600.640567,-1184.329507,9030.512492,2068.457845
600.640888,-444.123565,8438.347739,612.876398
600.641209,222.061783,10214.842000,-766.095498
600.641529,1110.308913,12361.439231,-995.924147
600.641850,1924.535449,13767.830521,-1532.190996
600.642171,1406.391290,12213.398043,-766.095498
600.642491,1110.308913,9770.718434,-1302.362347
600.642812,2220.617826,7994.224174,-153.219100
600.643133,3478.967927,9548.656652,1685.410096
600.643453,2368.659014,11399.171507,383.047749
600.643774,1036.288319,11177.109724,-1762.019645
600.644095,1702.473667,11251.130318,-2987.772442
600.644415,1850.514855,11473.192101,-2528.115143
600.644736,-814.226536,9030.512492,-1991.848295
600.645057,0.000000,7402.059420,-1838.629195
600.645377,1036.288319,9474.636058,-1072.533697
600.645698,-666.185348,12361.439231,612.876398
600.646019,-1258.350101,14137.933492,612.876398
600.646339,-1406.391290,15840.407159,-459.657299
600.646660,-1924.535449,15766.386565,-689.485948
600.646981,-1554.432478,13841.851115,995.924147
600.647301,-1332.370696,10066.800811,1455.581446
600.647622,-1110.308913,8882.471304,1072.533697
600.647943,-2294.638420,9992.780217,1532.190996
600.648263,-1554.432478,10658.965565,689.485948
600.648584,-518.144159,9474.636058,459.657299
600.648905,74.020594,8734.430116,76.609550
600.649225,1850.514855,8808.450710,1608.800546
600.649546,2738.761985,10066.800811,1838.629195
600.649867,3701.029710,11843.295072,-229.828649
600.650187,5033.400406,13545.768739,-2145.067394
600.650508,4515.256246,11843.295072,-3753.867940
600.650829,4441.235652,9400.615463,-3370.820191
600.651149,3034.844362,6957.935855,-1762.019645
600.651470,1702.473667,6661.853478,-536.266849
600.651791,3478.967927,9326.594869,153.219100
600.652111,1702.473667,11843.295072,229.828649
600.652432,1184.329507,13841.851115,-1455.581446
600.652753,1036.288319,12287.418637,-1608.800546
600.653073,-370.102971,10066.800811,-459.657299
600.653394,-2294.638420,9918.759623,459.657299
600.653715,-1998.556043,9622.677246,1455.581446
600.654035,-1332.370696,11029.068536,459.657299
600.654356,-1110.308913,12583.501014,-306.438199
600.654677,-2738.761985,12953.603985,-612.876398
600.654998,-2886.803174,13101.645173,153.219100
600.655318,-1628.453072,11621.233289,1685.410096
600.655639,-666.185348,10955.047942,3140.991542
600.655960,518.144159,11399.171507,2528.115143
600.656280,-592.164754,10658.965565,1072.533697
600.656601,-370.102971,10066.800811,306.438199
600.656922,-370.102971,9474.636058,536.266849
600.657242,1036.288319,7772.162391,1072.533697
600.657563,3256.906145,7698.141797,612.876398
600.657884,4885.359217,9030.512492,153.219100
600.658204,3849.070898,11103.089130,-1149.143247
600.658525,3478.967927,12139.377449,-2374.896044
600.658846,3923.091493,11029.068536,-2145.067394
600.659166,4663.297435,9474.636058,-1991.848295
600.659487,3923.091493,8068.244768,-1072.533697
600.659808,2368.659014,6957.935855,-689.485948
600.660129,2146.597232,9770.718434,-1532.190996
600.660449,740.205942,12583.501014,-1685.410096
600.660770,74.020594,12879.583391,-2374.896044
600.661091,1258.350101,10658.965565,-2298.286494
600.661411,296.082377,9178.553681,0.000000
600.661732,-592.164754,10362.883188,2374.896044
600.662053,-1776.494261,12139.377449,2834.553343
600.662373,-3701.029710,12805.562797,1072.533697
600.662694,-3108.864956,12361.439231,0.000000
600.663015,-1480.411884,10732.986159,1072.533697
600.663335,0.000000,10288.862594,1532.190996
600.663656,-1036.288319,11547.212695,1532.190996
600.663977,-2294.638420,14063.912898,919.314598
600.664298,-2886.803174,14137.933492,-306.438199
600.664618,-888.247130,11103.089130,-229.828649
600.664939,2664.741391,9844.739029,1532.190996
600.665260,1998.556043,9696.697840,1685.410096
600.665580,888.247130,9548.656652,229.828649
600.665901,1702.473667,10510.924376,-1072.533697
600.666222,2590.720797,9844.739029,-1455.581446
600.666542,4959.379811,9252.574275,-919.314598
600.666863,6883.915261,9400.615463,-306.438199
600.667184,3701.029710,9548.656652,-2451.505594
600.667504,3701.029710,9622.677246,-2451.505594
600.667825,2886.803174,9252.574275,-2145.067394
600.668146,2886.803174,8216.285956,-1608.800546
600.668466,3404.947333,10362.883188,-689.485948
600.668787,2516.700203,12879.583391,-2145.067394
600.669108,-666.185348,14582.057057,-5132.839837
600.669429,444.123565,13545.768739,-3753.867940
600.669749,-666.185348,10658.965565,-919.314598
600.670070,-1406.391290,9918.759623,2604.724693
600.670391,-1850.514855,11251.130318,4826.401637
600.670711,-4293.194464,13545.768739,2757.943793
600.671032,-4663.297435,14211.954086,766.095498
600.671353,-2294.638420,13545.768739,1149.143247
600.671673,-1258.350101,11621.233289,2834.553343
600.671994,-1702.473667,10510.924376,2911.162892
600.672315,-3108.864956,10436.903782,2681.334243
600.672635,-3478.967927,10288.862594,1915.238745
600.672956,-1406.391290,10881.027347,2068.457845
600.673277,-148.041188,9400.615463,1225.752797
600.673598,1628.453072,9918.759623,76.609550
600.673918,2812.782580,10510.924376,-1072.533697
600.674239,3404.947333,12065.356855,-459.657299
600.674560,3404.947333,11325.150913,76.609550
600.674880,4515.256246,8142.265362,-689.485948
600.675201,5625.565159,7476.080014,-2528.115143
600.675522,5699.585753,8882.471304,-2987.772442
600.675842,3404.947333,8956.491898,-2681.334243
600.676163,4293.194464,8956.491898,-2911.162892
600.676484,4811.338623,9326.594869,-1302.362347
600.676804,3997.112087,8216.285956,76.609550
600.677125,2664.741391,7105.977043,0.000000
600.677446,2738.761985,7994.224174,-919.314598
600.677766,1628.453072,10658.965565,-1608.800546
600.678087,1184.329507,10510.924376,-995.924147
600.678408,296.082377,8438.347739,-995.924147
600.678729,-296.082377,5847.626942,1762.019645
600.679049,888.247130,9400.615463,3753.867940
600.679370,-1406.391290,12065.356855,2068.457845
600.679691,-2738.761985,14359.995275,-1608.800546
600.680011,0.000000,14434.015869,-1455.581446
600.680332,-666.185348,12953.603985,612.876398
600.680653,-148.041188,11473.192101,1532.190996
600.680973,592.164754,9548.656652,1455.581446
600.681294,-3108.864956,8438.347739,-1532.190996
600.681615,-2812.782580,9326.594869,-689.485948
600.681935,296.082377,11547.212695,919.314598
600.682256,-592.164754,9992.780217,0.000000
600.682577,814.226536,9918.759623,-842.705048
600.682898,4071.132681,11917.315666,-612.876398
600.683218,2220.617826,12583.501014,-1149.143247
600.683539,1258.350101,10436.903782,-2604.724693
600.683860,4515.256246,8142.265362,-3600.648841
600.684180,4145.153275,9030.512492,-2834.553343
600.684501,2368.659014,11251.130318,-229.828649
600.684822,3256.906145,11917.315666,-1838.629195
600.685142,2664.741391,11473.192101,-4366.744339
600.685463,4219.173869,13545.768739,-2451.505594
600.685784,3034.844362,14582.057057,0.000000
600.686104,222.061783,13471.748144,-1225.752797
600.686425,0.000000,11991.336260,-1455.581446
600.686746,-2812.782580,9992.780217,-1685.410096
600.687066,-3849.070898,8068.244768,689.485948
600.687387,-2442.679609,9104.533087,2451.505594
600.687708,-1850.514855,12657.521608,842.705048
600.688029,-2220.617826,13249.686362,689.485948
600.688349,0.000000,13323.706956,1532.190996
600.688670,-1776.494261,10955.047942,1915.238745
600.688991,-1850.514855,10288.862594,2681.334243
600.689311,666.185348,11325.150913,2374.896044
600.689632,1406.391290,11473.192101,-536.266849
600.689953,74.020594,10140.821405,-1685.410096
600.690273,6513.812290,10214.842000,-1762.019645
600.690594,4663.297435,10362.883188,-1762.019645
600.690915,1850.514855,9326.594869,-1149.143247
600.691235,3997.112087,8956.491898,0.000000
600.691556,4589.276840,9178.553681,536.266849
600.691877,3627.009116,7328.038826,-766.095498
600.692198,6069.688724,7698.141797,-229.828649
600.692518,3701.029710,8290.306550,-1378.971896
600.692839,2072.576638,8364.327145,-1915.238745
600.693160,2886.803174,8808.450710,536.266849
600.693480,3775.050304,7328.038826,76.609550
600.693801,3256.906145,8660.409521,306.438199
600.694122,2220.617826,9474.636058,-383.047749
600.694442,-592.164754,11473.192101,-1685.410096
600.694763,222.061783,11103.089130,-536.266849
600.695084,0.000000,10140.821405,612.876398
600.695404,1184.329507,10584.944971,306.438199
600.695725,222.061783,9548.656652,-1072.533697
600.696046,-1776.494261,11251.130318,-995.924147
600.696367,-2442.679609,11621.233289,-766.095498
600.696687,-2886.803174,11399.171507,689.485948
600.697008,-962.267725,11473.192101,3753.867940
600.697329,-1480.411884,10955.047942,2451.505594
600.697649,-1628.453072,11399.171507,1378.971896
600.697970,-74.020594,14582.057057,1685.410096
600.698291,-2072.576638,14359.995275,1225.752797
600.698611,-2220.617826,10436.903782,383.047749
600.698932,3330.926739,9400.615463,1225.752797
600.699253,592.164754,8290.306550,1225.752797
600.699573,-888.247130,8586.388927,229.828649
600.699894,814.226536,11029.068536,-383.047749
600.700215,444.123565,11473.192101,-1532.190996
600.700535,74.020594,10288.862594,-689.485948
600.700856,3627.009116,9474.636058,306.438199
600.701177,3775.050304,9474.636058,-919.314598
600.701498,1406.391290,10955.047942,-2681.334243
600.701818,0.000000,12731.542202,-2757.943793
600.702139,1110.308913,12287.418637,-4596.572988
600.702460,3034.844362,10510.924376,-2757.943793
600.702780,3923.091493,11029.068536,76.609550
600.703101,1850.514855,11843.295072,-306.438199
600.703422,-1406.391290,12065.356855,-1608.800546
600.703742,148.041188,13323.706956,0.000000
600.704063,0.000000,12361.439231,1378.971896
600.704384,3404.947333,9770.718434,3370.820191
600.704704,2664.741391,7550.100608,2221.676944
600.705025,-1776.494261,6513.812290,153.219100
600.705346,-3404.947333,7031.956449,1225.752797
600.705667,74.020594,7846.182985,1915.238745
600.705987,814.226536,7105.977043,0.000000
600.706308,6143.709319,8142.265362,-306.438199
600.706629,7402.059420,11695.253884,-306.438199
600.706949,4145.153275,12879.583391,-2604.724693
600.707270,4441.235652,12361.439231,-2451.505594
600.707591,5921.647536,10658.965565,-1608.800546
600.707911,5921.647536,5625.565159,-1838.629195
600.708232,7994.224174,5255.462188,-383.047749
600.708553,7105.977043,7994.224174,-1608.800546
600.708873,3182.885551,12879.583391,-4366.744339
600.709194,2738.761985,12731.542202,-1991.848295
600.709515,5403.503377,9548.656652,306.438199
600.709835,6513.812290,5847.626942,2298.286494
600.710156,4959.379811,4293.194464,3907.087040
600.710477,3552.988522,4885.359217,1072.533697
600.710798,2146.597232,5847.626942,-459.657299
600.711118,4663.297435,8586.388927,689.485948
600.711439,7698.141797,6735.874072,1608.800546
600.711760,7105.977043,4811.338623,-153.219100
600.712080,7105.977043,5921.647536,-1225.752797
600.712401,5329.482782,9030.512492,-2451.505594
600.712722,3701.029710,9696.697840,-3830.477490
600.713042,6513.812290,9474.636058,-5286.058936
600.713363,6217.729913,7402.059420,-4366.744339
600.713684,9104.533087,9696.697840,459.657299
600.714004,7476.080014,13027.624579,3294.210641
600.714325,888.247130,12657.521608,2451.505594
600.714646,2072.576638,10732.986159,-1225.752797
600.714967,3775.050304,8808.450710,0.000000
600.715287,1036.288319,6661.853478,1302.362347
600.715608,3849.070898,5847.626942,2298.286494
600.715929,4737.318029,6143.709319,1838.629195
600.716249,1406.391290,5921.647536,-383.047749
600.716570,1036.288319,6661.853478,1149.143247
600.716891,2146.597232,5847.626942,2681.334243
600.717211,3330.926739,6809.894666,2068.457845
600.717532,8068.244768,10362.883188,3294.210641
600.717853,7031.956449,11843.295072,689.485948
600.718173,4293.194464,7105.977043,-4826.401637
600.718494,6513.812290,4441.235652,-4213.525239
600.718815,10140.821405,6069.688724,-1608.800546
600.719135,8142.265362,9992.780217,-536.266849
600.719456,7624.121203,9030.512492,-2451.505594
600.719777,7254.018232,8142.265362,-4596.572988
600.720098,8364.327145,7698.141797,-2298.286494
600.720418,7254.018232,7254.018232,2911.162892
600.720739,4367.215058,7772.162391,3064.381992
600.721060,4515.256246,5773.606348,0.000000
600.721380,3256.906145,6069.688724,229.828649
600.721701,1554.432478,5329.482782,153.219100
600.722022,2960.823768,4811.338623,306.438199
600.722342,5921.647536,8068.244768,1455.581446
600.722663,2738.761985,12139.377449,766.095498
600.722984,296.082377,13101.645173,-1915.238745
600.723304,5403.503377,10807.006753,-995.924147
600.723625,7624.121203,10066.800811,1762.019645
600.723946,2960.823768,9178.553681,3217.601092
600.724267,148.041188,7402.059420,536.266849
600.724587,1998.556043,8290.306550,-3370.820191
600.724908,1406.391290,8586.388927,-1225.752797
600.725229,4959.379811,8290.306550,1608.800546
600.725549,8734.430116,6439.791695,1225.752797
600.725870,3923.091493,6957.935855,-689.485948
600.726191,444.123565,6809.894666,-1225.752797
600.726511,3923.091493,7624.121203,689.485948
600.726832,7550.100608,7772.162391,1915.238745
600.727153,8956.491898,9696.697840,2145.067394
600.727473,9918.759623,11991.336260,995.924147
600.727794,4959.379811,9918.759623,-3370.820191
600.728115,3330.926739,7476.080014,-3600.648841
600.728436,5033.400406,5699.585753,0.000000
600.728756,5773.606348,4737.318029,229.828649
600.729077,4145.153275,3182.885551,-766.095498
600.729398,3997.112087,5255.462188,-3140.991542
600.729718,3997.112087,9326.594869,-3370.820191
600.730039,3182.885551,13619.789333,-612.876398
600.730360,6217.729913,14804.118840,1991.848295
600.730680,5477.523971,10881.027347,766.095498
600.731001,3478.967927,6217.729913,612.876398
600.731322,4293.194464,4219.173869,919.314598
600.731642,3182.885551,6069.688724,229.828649
600.731963,3108.864956,9696.697840,-536.266849
600.732284,3330.926739,11843.295072,-612.876398
600.732604,5921.647536,11769.274478,153.219100
600.732925,6957.935855,8512.368333,3600.648841
600.733246,3256.906145,5773.606348,3907.087040
600.733567,1628.453072,5329.482782,1532.190996
600.733887,2812.782580,4885.359217,-306.438199
600.734208,2590.720797,3775.050304,-1225.752797
600.734529,8734.430116,4589.276840,-306.438199
600.734849,13767.830521,9326.594869,1302.362347
600.735170,8142.265362,13027.624579,-1838.629195
600.735491,5847.626942,12805.562797,-4903.011187
600.735811,5921.647536,8512.368333,-3983.696590
600.736132,7846.182985,3775.050304,-689.485948
600.736453,11177.109724,3997.112087,2068.457845
600.736773,8660.409521,7994.224174,229.828649
600.737094,3034.844362,10288.862594,-4136.915689
600.737415,518.144159,7772.162391,-3753.867940
600.737736,3182.885551,5255.462188,612.876398
600.738056,6809.894666,5107.421000,3907.087040
600.738377,6217.729913,7031.956449,5132.839837
600.738698,2886.803174,11473.192101,-383.047749
600.739018,888.247130,10732.986159,-3677.258390
600.739339,2738.761985,7772.162391,-1149.143247
600.739660,5625.565159,6217.729913,2681.334243
600.739980,4737.318029,8290.306550,2374.896044
600.740301,4071.132681,10066.800811,0.000000
600.740622,2886.803174,11695.253884,-1762.019645
600.740942,3108.864956,9696.697840,-1302.362347
600.741263,3997.112087,6883.915261,919.314598
600.741584,4145.153275,5773.606348,2221.676944
600.741904,4737.318029,7402.059420,2145.067394
600.742225,5181.441594,6809.894666,1225.752797
600.742546,5181.441594,4515.256246,-459.657299
600.742867,6291.750507,5033.400406,-229.828649
600.743187,8734.430116,8882.471304,1225.752797
600.743508,4737.318029,9622.677246,306.438199
600.743829,7994.224174,9474.636058,-1762.019645
600.744149,11843.295072,7328.038826,-1915.238745
600.744470,7476.080014,6143.709319,-1608.800546
600.744791,6439.791695,7994.224174,-1762.019645
600.745111,4959.379811,9622.677246,-766.095498
600.745432,1036.288319,6069.688724,-2298.286494
600.745753,7772.162391,5181.441594,-1072.533697
600.746073,8882.471304,6661.853478,2451.505594
600.746394,2738.761985,10881.027347,995.924147
600.746715,1332.370696,11769.274478,-536.266849
600.747036,1850.514855,9770.718434,-995.924147
600.747356,4589.276840,5847.626942,842.705048
600.747677,7105.977043,4811.338623,4903.011187
600.747998,7105.977043,8438.347739,2681.334243
600.748318,888.247130,10807.006753,-3140.991542
600.748639,370.102971,10881.027347,-2528.115143
600.748960,4663.297435,7550.100608,153.219100
600.749280,5921.647536,5033.400406,2451.505594
600.749601,5181.441594,4811.338623,3907.087040
600.749922,3627.009116,9622.677246,0.000000
600.750242,1628.453072,11399.171507,-3983.696590
600.750563,2960.823768,8808.450710,-2911.162892
600.750884,7624.121203,7624.121203,-383.047749
600.751204,9918.759623,8586.388927,1991.848295
600.751525,6809.894666,10214.842000,2451.505594
600.751846,2220.617826,9178.553681,-383.047749
600.752167,4293.194464,7698.141797,-2987.772442
600.752487,7031.956449,7698.141797,-1149.143247
600.752807,4885.359217,6809.894666,-536.266849
600.753128,4441.235652,4737.318029,-2068.457845
600.753448,6069.688724,5181.441594,-153.219100
600.753769,4663.297435,5699.585753,459.657299
600.754089,5181.441594,7328.038826,612.876398
600.754409,6217.729913,9548.656652,-306.438199
600.754730,5699.585753,9548.656652,-1378.971896
600.755050,6143.709319,9030.512492,-689.485948
600.755371,8142.265362,7624.121203,612.876398
600.755691,7920.203579,8142.265362,229.828649
600.756011,5995.668130,10510.924376,-919.314598
600.756332,4589.276840,10807.006753,-1455.581446
600.756652,4219.173869,8438.347739,-2451.505594
600.756973,5033.400406,4663.297435,0.000000
600.757293,3330.926739,5699.585753,1302.362347
600.757613,2812.782580,7550.100608,842.705048
600.757934,814.226536,10436.903782,0.000000
600.758254,3256.906145,8512.368333,0.000000
600.758575,5107.421000,8512.368333,0.000000
600.758895,7402.059420,9326.594869,766.095498
600.759215,4441.235652,11843.295072,-229.828649
600.759536,3775.050304,12509.480420,-995.924147
600.759856,3923.091493,8438.347739,-306.438199
600.760177,7402.059420,6513.812290,1838.629195
600.760497,8142.265362,5995.668130,2374.896044
600.760817,4589.276840,7402.059420,-536.266849
600.761138,444.123565,6513.812290,-3524.039291
600.761458,1036.288319,5403.503377,-2987.772442
600.761779,8512.368333,5847.626942,229.828649
600.762099,8660.409521,7476.080014,1838.629195
600.762419,6513.812290,8956.491898,0.000000
600.762740,5995.668130,10362.883188,-2068.457845
600.763060,4811.338623,9622.677246,-1915.238745
600.763381,5477.523971,7476.080014,919.314598
600.763701,9622.677246,7476.080014,2834.553343
600.764021,7846.182985,8216.285956,995.924147
600.764342,4145.153275,8734.430116,-2221.676944
600.764662,3849.070898,7254.018232,-1455.581446
600.764983,4145.153275,5329.482782,-1608.800546
600.765303,3552.988522,3997.112087,612.876398
600.765624,2812.782580,6217.729913,1685.410096
600.765944,1998.556043,8660.409521,-842.705048
600.766264,3775.050304,9622.677246,-612.876398
600.766585,5107.421000,9696.697840,689.485948
600.766905,4737.318029,10955.047942,536.266849
600.767226,4737.318029,12213.398043,919.314598
600.767546,3701.029710,10510.924376,536.266849
600.767866,3849.070898,7402.059420,-229.828649
600.768187,5255.462188,5477.523971,1455.581446
600.768507,4959.379811,6809.894666,383.047749
600.768828,4737.318029,9326.594869,-2221.676944
600.769148,2368.659014,8068.244768,-4290.134789
600.769468,3404.947333,5847.626942,-2681.334243
600.769789,7254.018232,4589.276840,1608.800546
600.770109,6735.874072,7105.977043,2528.115143
600.770430,3034.844362,7994.224174,612.876398
600.770750,3034.844362,9696.697840,-2451.505594
600.771070,5847.626942,10288.862594,-1302.362347
600.771391,6513.812290,9918.759623,2145.067394
600.771711,9548.656652,8438.347739,1378.971896
600.772032,7624.121203,7328.038826,-2145.067394
600.772352,4959.379811,7476.080014,-4903.011187
600.772672,4885.359217,7476.080014,-3140.991542
600.772993,5033.400406,6217.729913,-842.705048
600.773313,5477.523971,3404.947333,0.000000
600.773634,7624.121203,7105.977043,1225.752797
600.773954,5255.462188,9622.677246,153.219100
600.774274,1480.411884,7698.141797,-1532.190996
600.774595,4145.153275,7994.224174,-612.876398
600.774915,7031.956449,9326.594869,612.876398
600.775236,6735.874072,10658.965565,842.705048
600.775556,5847.626942,7698.141797,-229.828649
600.775876,5181.441594,7624.121203,-3064.381992
600.776197,5033.400406,8438.347739,-1915.238745
600.776517,4441.235652,9252.574275,1072.533697
600.776838,3552.988522,7624.121203,306.438199
600.777158,3108.864956,6291.750507,-1378.971896
600.777478,2368.659014,5551.544565,612.876398
600.777799,4367.215058,7550.100608,536.266849
600.778119,5699.585753,9918.759623,-1378.971896
600.778440,2886.803174,13249.686362,-2604.724693
600.778760,3404.947333,11547.212695,-3140.991542
600.779080,6661.853478,7920.203579,-995.924147
600.779401,7698.141797,6143.709319,1608.800546
600.779721,4959.379811,6735.874072,1991.848295
600.780042,3627.009116,9918.759623,-1455.581446
600.780362,4441.235652,11325.150913,-3370.820191
600.780682,1850.514855,8882.471304,-2068.457845
600.781003,7105.977043,6291.750507,689.485948
600.781323,8882.471304,6143.709319,2451.505594
600.781644,3034.844362,6365.771101,0.000000
600.781964,2072.576638,7179.997637,-2145.067394
600.782284,5033.400406,9030.512492,-1072.533697
600.782605,5255.462188,7920.203579,-229.828649
600.782925,8882.471304,10288.862594,2145.067394
600.783246,9770.718434,11621.233289,1532.190996
600.783566,3701.029710,10584.944971,-1838.629195
600.783887,3034.844362,8290.306550,-306.438199
600.784207,4367.215058,7179.997637,1762.019645
600.784527,3997.112087,8660.409521,1302.362347
600.784848,3404.947333,8290.306550,1149.143247
600.785168,1110.308913,8364.327145,-1149.143247
600.785489,1332.370696,8660.409521,-383.047749
600.785809,1776.494261,7698.141797,2221.676944
600.786129,2442.679609,6217.729913,2604.724693
600.786450,3182.885551,5625.565159,1838.629195
600.786770,3330.926739,6217.729913,1455.581446
600.787091,3404.947333,6143.709319,306.438199
600.787411,4737.318029,6069.688724,-919.314598
600.787731,7105.977043,8512.368333,-1762.019645
600.788052,8808.450710,11769.274478,-2068.457845
600.788372,9474.636058,11325.150913,-2681.334243
600.788693,11029.068536,8068.244768,-3064.381992
600.789013,8660.409521,4737.318029,-536.266849
600.789333,5625.565159,3256.906145,536.266849
600.789654,6217.729913,6143.709319,0.000000
600.789974,5255.462188,8216.285956,-2221.676944
600.790295,4737.318029,7105.977043,-2987.772442
600.790615,8142.265362,5329.482782,0.000000
600.790935,5551.544565,5625.565159,2145.067394
600.791256,2886.803174,6809.894666,1378.971896
600.791576,1406.391290,7476.080014,766.095498
600.791897,1850.514855,5995.668130,-842.705048
600.792217,5625.565159,6439.791695,-919.314598
600.792537,7031.956449,9474.636058,1378.971896
600.792858,4811.338623,12139.377449,-689.485948
600.793178,3552.988522,11991.336260,-2068.457845
600.793499,3849.070898,9474.636058,76.609550
600.793819,5255.462188,8364.327145,0.000000
600.794139,5477.523971,7772.162391,0.000000
600.794460,3997.112087,7254.018232,-612.876398
600.794780,3478.967927,9474.636058,-2681.334243
600.795101,4811.338623,9474.636058,-536.266849
600.795421,5847.626942,8142.265362,689.485948
600.795741,6365.771101,7920.203579,229.828649
600.796062,4293.194464,8882.471304,0.000000
600.796382,4145.153275,11103.089130,153.219100
600.796703,4811.338623,10584.944971,-153.219100
600.797023,5477.523971,9622.677246,76.609550
600.797343,6883.915261,8808.450710,0.000000
600.797664,4885.359217,7105.977043,0.000000
600.797984,5403.503377,7698.141797,229.828649
600.798305,6365.771101,8364.327145,-919.314598
600.798625,4367.215058,6809.894666,-2757.943793
600.798945,4811.338623,6365.771101,-3064.381992
600.799266,7550.100608,9326.594869,-995.924147
600.799586,4441.235652,10510.924376,1072.533697
600.799907,5403.503377,9474.636058,842.705048
600.800227,9770.718434,9030.512492,0.000000
600.800547,4737.318029,9696.697840,-2451.505594
600.800868,2294.638420,7698.141797,-2987.772442
600.801188,3478.967927,6957.935855,612.876398
600.801509,4811.338623,5773.606348,2451.505594
600.801829,5477.523971,7698.141797,3447.429741
600.802150,3627.009116,9622.677246,612.876398
600.802470,888.247130,10214.842000,-4213.525239
600.802790,3182.885551,10362.883188,-689.485948
600.803111,3627.009116,6513.812290,3677.258390
600.803431,5255.462188,4959.379811,3907.087040
600.803752,6809.894666,5551.544565,2451.505594
600.804072,2738.761985,8808.450710,-1685.410096
600.804392,1998.556043,8734.430116,-3447.429741
600.804713,5847.626942,6809.894666,-1378.971896
600.805033,8216.285956,7624.121203,153.219100
600.805354,5551.544565,6587.832884,842.705048
600.805674,4959.379811,7328.038826,536.266849
600.805994,4441.235652,7920.203579,-766.095498
600.806315,4589.276840,8808.450710,-459.657299
600.806635,6069.688724,7402.059420,1838.629195
600.806956,5181.441594,6661.853478,229.828649
600.807276,4737.318029,6809.894666,-459.657299
600.807596,6217.729913,9178.553681,3064.381992
600.807917,6735.874072,10214.842000,2298.286494
600.808237,4959.379811,7698.141797,0.000000
600.808558,2812.782580,6291.750507,-2221.676944
600.808878,3775.050304,6883.915261,-2681.334243
600.809198,2072.576638,7105.977043,1838.629195
600.809519,7846.182985,8956.491898,3140.991542
600.809839,7179.997637,9474.636058,1685.410096
600.810160,962.267725,7179.997637,-1915.238745
600.810480,2368.659014,6439.791695,-1072.533697
600.810800,5477.523971,9252.574275,3064.381992
600.811121,5921.647536,9178.553681,3447.429741
600.811441,7179.997637,11843.295072,1378.971896
600.811762,4219.173869,9104.533087,-1991.848295
600.812082,1480.411884,6069.688724,-3753.867940
600.812402,3552.988522,5477.523971,766.095498
600.812723,4737.318029,5033.400406,1685.410096
600.813043,6365.771101,8068.244768,-1762.019645
600.813364,6217.729913,10362.883188,-1838.629195
600.813684,4367.215058,12509.480420,-2451.505594
600.814004,5329.482782,10288.862594,76.609550
600.814325,5329.482782,5033.400406,2528.115143
600.814645,5551.544565,5033.400406,2068.457845
600.814966,5033.400406,7402.059420,-536.266849
600.815286,3330.926739,9030.512492,-3907.087040
600.815606,5329.482782,8290.306550,-4749.792088
600.815927,7105.977043,7698.141797,-842.705048
600.816247,8808.450710,9548.656652,2451.505594
600.816568,4737.318029,10288.862594,536.266849
600.816888,4293.194464,7402.059420,-2604.724693
600.817208,4811.338623,7550.100608,-1378.971896
600.817529,4737.318029,6809.894666,2374.896044
600.817849,5625.565159,4737.318029,2911.162892
600.818170,3849.070898,5033.400406,-1608.800546
600.818490,2886.803174,7031.956449,-4596.572988
600.818810,6957.935855,10732.986159,-1685.410096
600.819131,7031.956449,9696.697840,766.095498
600.819451,6587.832884,9178.553681,-153.219100
600.819772,9104.533087,9474.636058,306.438199
600.820092,4219.173869,9770.718434,-995.924147
600.820413,2146.597232,8660.409521,-1378.971896
600.820733,5403.503377,7031.956449,1532.190996
600.821053,6883.915261,7105.977043,1455.581446
600.821374,6587.832884,7846.182985,0.000000
600.821694,3108.864956,8290.306550,-1991.848295
600.822015,2072.576638,7031.956449,-3524.039291
600.822335,5921.647536,8882.471304,0.000000
600.822655,6513.812290,9696.697840,4749.792088
600.822976,5403.503377,10436.903782,2145.067394
600.823296,7624.121203,8586.388927,383.047749
600.823617,4071.132681,7550.100608,-1608.800546
600.823937,5773.606348,8142.265362,-995.924147
600.824257,6587.832884,7624.121203,1685.410096
600.824578,5181.441594,7772.162391,383.047749
600.824898,5625.565159,6957.935855,-842.705048
600.825219,5329.482782,6587.832884,-1072.533697
600.825539,3627.009116,7772.162391,-1532.190996
600.825859,3330.926739,7920.203579,-306.438199
600.826180,2442.679609,7105.977043,229.828649
600.826500,4663.297435,8734.430116,383.047749
600.826821,5107.421000,8364.327145,1225.752797
600.827141,4441.235652,9622.677246,1302.362347
600.827461,6217.729913,10362.883188,0.000000
600.827782,2812.782580,8882.471304,-76.609550
600.828102,2294.638420,7179.997637,-995.924147
600.828423,4589.276840,4663.297435,306.438199
600.828743,4293.194464,4885.359217,842.705048
600.829063,4737.318029,7624.121203,1302.362347
600.829384,2960.823768,8956.491898,0.000000
600.829704,3404.947333,7846.182985,-1915.238745
600.830025,6217.729913,7328.038826,-1838.629195
600.830345,7698.141797,8290.306550,1072.533697
600.830665,6809.894666,8882.471304,2298.286494
600.830986,4663.297435,7328.038826,1455.581446
600.831306,4589.276840,5181.441594,0.000000
600.831627,6809.894666,6809.894666,-306.438199
600.831947,4663.297435,7328.038826,-1225.752797
600.832267,4367.215058,8142.265362,-2757.943793
600.832588,7328.038826,8512.368333,-2145.067394
600.832908,4885.359217,7476.080014,-766.095498
600.833229,6143.709319,6143.709319,766.095498
600.833549,6587.832884,7328.038826,842.705048
600.833869,2886.803174,9252.574275,-1378.971896
600.834190,3701.029710,9548.656652,-1225.752797
600.834510,4293.194464,7550.100608,536.266849
600.834831,6143.709319,8512.368333,-383.047749
600.835151,6883.915261,10658.965565,1532.190996
600.835471,3182.885551,13323.706956,-229.828649
600.835792,2294.638420,13545.768739,-2451.505594
600.836112,2812.782580,10140.821405,0.000000
600.836433,3182.885551,4441.235652,1608.800546
600.836753,4737.318029,4293.194464,2298.286494
600.837073,4663.297435,7105.977043,1685.410096
600.837394,1554.432478,10807.006753,-1378.971896
600.837714,2516.700203,9844.739029,-2451.505594
600.838035,6513.812290,6735.874072,0.000000
600.838355,8956.491898,7031.956449,1532.190996
600.838675,7328.038826,10288.862594,2068.457845
600.838996,5477.523971,10140.821405,-1225.752797
600.839316,6365.771101,8808.450710,-4060.306139
600.839637,9548.656652,7698.141797,-995.924147
600.839957,9918.759623,7105.977043,2068.457845
600.840278,6587.832884,5403.503377,766.095498
600.840598,5329.482782,5773.606348,-1072.533697
600.840918,4367.215058,6883.915261,-2757.943793
600.841239,2516.700203,4145.153275,-2374.896044
600.841559,7328.038826,2146.597232,-153.219100
600.841880,11917.315666,6217.729913,1072.533697
600.842200,4663.297435,9918.759623,-1378.971896
600.842520,1850.514855,9548.656652,-4366.744339
600.842841,4811.338623,10288.862594,-3064.381992
600.843161,5477.523971,10584.944971,-459.657299
600.843482,5033.400406,9252.574275,2298.286494
600.843802,6143.709319,9400.615463,689.485948
600.844122,2664.741391,11843.295072,-2451.505594
600.844443,370.102971,12065.356855,536.266849
600.844763,1332.370696,9992.780217,4136.915689
600.845084,1850.514855,7179.997637,1685.410096
600.845404,666.185348,6143.709319,1149.143247
600.845724,296.082377,6365.771101,0.000000
600.846045,1702.473667,3849.070898,-1149.143247
600.846365,4885.359217,4737.318029,995.924147
600.846686,6217.729913,7550.100608,2145.067394
600.847006,4737.318029,8216.285956,153.219100
600.847326,7624.121203,8808.450710,-766.095498
600.847647,8512.368333,9400.615463,0.000000
600.847967,10140.821405,11695.253884,-1455.581446
600.848288,11399.171507,10362.883188,-3677.258390
600.848608,9030.512492,6513.812290,-6511.811733
600.848928,8438.347739,4441.235652,-3753.867940
600.849249,8660.409521,4737.318029,536.266849
600.849569,7105.977043,4737.318029,1838.629195
600.849890,4663.297435,5995.668130,-459.657299
600.850210,4737.318029,10881.027347,-459.657299
600.850530,2812.782580,10584.944971,76.609550
600.850851,4145.153275,6291.750507,383.047749
600.851171,8438.347739,4367.215058,1455.581446
600.851492,3627.009116,6217.729913,383.047749
600.851812,518.144159,9104.533087,-1149.143247
600.852133,1110.308913,10510.924376,-1378.971896
600.852453,2886.803174,9548.656652,-1762.019645
600.852773,7105.977043,11029.068536,995.924147
600.853094,5551.544565,12065.356855,3217.601092
600.853414,-148.041188,9548.656652,-766.095498
600.853735,1258.350101,7772.162391,-919.314598
600.854055,2886.803174,6069.688724,1378.971896
600.854376,3552.988522,5403.503377,76.609550
600.854696,5699.585753,6069.688724,612.876398
600.855017,5625.565159,10140.821405,-689.485948
600.855337,5773.606348,12953.603985,-689.485948
600.855657,7624.121203,11103.089130,1532.190996
600.855978,8956.491898,7254.018232,919.314598
600.856298,6809.894666,4737.318029,-1149.143247
600.856619,3182.885551,3182.885551,-229.828649
600.856939,4145.153275,6069.688724,-1149.143247
600.857260,6217.729913,6513.812290,-2374.896044
600.857580,6957.935855,7328.038826,-2374.896044
600.857901,7476.080014,10140.821405,-2068.457845
600.858221,7105.977043,12361.439231,-1302.362347
600.858541,3627.009116,10584.944971,-153.219100
600.858862,3997.112087,7105.977043,1072.533697
600.859182,5551.544565,7254.018232,1608.800546
600.859503,4515.256246,9548.656652,1378.971896
600.859823,518.144159,9844.739029,0.000000
600.860144,4071.132681,8808.450710,-1455.581446
600.860464,4367.215058,8808.450710,-459.657299
600.860785,2738.761985,8290.306550,766.095498
600.861105,3997.112087,7698.141797,2298.286494
600.861426,2812.782580,9548.656652,3217.601092
600.861746,518.144159,7476.080014,1225.752797
600.862066,4441.235652,6217.729913,2451.505594
600.862387,5699.585753,5255.462188,3217.601092
600.862707,4219.173869,8068.244768,842.705048
600.863028,4515.256246,9696.697840,459.657299
600.863348,5181.441594,8956.491898,-2374.896044
600.863669,9474.636058,9474.636058,-1915.238745
600.863989,8068.244768,7624.121203,919.314598
600.864310,6883.915261,7328.038826,-842.705048
600.864630,6513.812290,5995.668130,-2451.505594
600.864950,5403.503377,5551.544565,-2298.286494
600.865271,7402.059420,5551.544565,-306.438199
600.865591,8068.244768,5995.668130,0.000000
600.865912,5995.668130,8142.265362,-1685.410096
600.866232,3849.070898,9326.594869,-2298.286494
600.866553,4293.194464,7031.956449,-1532.190996
600.866873,6143.709319,5847.626942,612.876398
600.867194,6735.874072,7994.224174,2451.505594
600.867514,6217.729913,9400.615463,612.876398
600.867834,2294.638420,7994.224174,-2987.772442
600.868155,2294.638420,5921.647536,-2145.067394
600.868475,4811.338623,7105.977043,919.314598
600.868796,3627.009116,7476.080014,1455.581446
600.869116,2590.720797,8142.265362,-1149.143247
600.869437,6735.874072,10362.883188,-2374.896044
600.869757,3108.864956,11325.150913,-2145.067394
600.870078,3701.029710,9548.656652,-1072.533697
600.870398,5847.626942,9104.533087,1685.410096
600.870719,4959.379811,9178.553681,2145.067394
600.871039,5033.400406,11473.192101,2298.286494
600.871359,5847.626942,10288.862594,995.924147
600.871680,3701.029710,6217.729913,-2145.067394
600.872000,4737.318029,6513.812290,-689.485948
600.872321,4885.359217,8068.244768,1915.238745
600.872641,4737.318029,9548.656652,-536.266849
600.872962,5773.606348,9474.636058,-536.266849
600.873282,6143.709319,7402.059420,-1225.752797
600.873603,4663.297435,5551.544565,-1455.581446
600.873923,3997.112087,6291.750507,0.000000
600.874243,5699.585753,11917.315666,-1225.752797
600.874564,6069.688724,12731.542202,-2834.553343
600.874884,6143.709319,10140.821405,-2987.772442
600.875205,8734.430116,9548.656652,-689.485948
600.875525,7846.182985,10584.944971,1455.581446
600.875846,4219.173869,11843.295072,1915.238745
600.876166,1998.556043,9474.636058,-766.095498
600.876487,4737.318029,6513.812290,-1455.581446
600.876807,5625.565159,3478.967927,2145.067394
600.877127,2960.823768,222.061783,4596.572988
600.877448,2220.617826,2960.823768,2145.067394
600.877768,2294.638420,9400.615463,-1838.629195
600.878089,296.082377,11251.130318,-2298.286494
600.878409,7105.977043,8586.388927,-766.095498
600.878730,11621.233289,7698.141797,1532.190996
600.879050,6809.894666,9696.697840,689.485948
600.879371,1332.370696,10732.986159,-2451.505594
600.879691,2664.741391,9696.697840,-2604.724693
600.880011,4737.318029,5625.565159,-1302.362347
600.880332,7920.203579,4145.153275,459.657299
600.880652,7624.121203,4737.318029,153.219100
600.880973,3701.029710,8142.265362,-3983.696590
600.881293,2368.659014,9696.697840,-2068.457845
600.881614,4663.297435,7624.121203,689.485948
600.881934,8808.450710,4071.132681,2374.896044
600.882255,7846.182985,2812.782580,3370.820191
600.882575,3034.844362,5847.626942,1608.800546
600.882896,2664.741391,10584.944971,-1149.143247
600.883216,2812.782580,10807.006753,-2068.457845
600.883536,5107.421000,7624.121203,-2834.553343
600.883857,6513.812290,6217.729913,-536.266849
600.884177,6291.750507,8290.306550,1762.019645
600.884498,3108.864956,12509.480420,1072.533697
600.884818,2960.823768,12879.583391,-919.314598
600.885139,3627.009116,9252.574275,-2757.943793
600.885459,5551.544565,4663.297435,-306.438199
600.885780,6217.729913,5477.523971,4213.525239
600.886100,6217.729913,7920.203579,5132.839837
600.886420,2960.823768,9252.574275,1838.629195
600.886741,3552.988522,7328.038826,-1532.190996
600.887061,6291.750507,7254.018232,-995.924147
600.887382,5181.441594,7105.977043,1915.238745
600.887702,8438.347739,8808.450710,2604.724693
600.888023,8512.368333,9400.615463,76.609550
600.888343,2960.823768,7031.956449,-3217.601092
600.888664,4589.276840,3997.112087,-1608.800546
600.888984,6143.709319,3775.050304,536.266849
600.889304,6069.688724,6439.791695,0.000000
600.889625,8956.491898,12805.562797,-1608.800546
600.889945,6883.915261,13841.851115,-3677.258390
600.890266,3701.029710,10436.903782,-4060.306139
600.890586,6439.791695,5995.668130,995.924147
600.890907,5107.421000,4885.359217,3753.867940
600.891227,4737.318029,9918.759623,1915.238745
600.891548,814.226536,9030.512492,-306.438199
600.891868,-518.144159,7994.224174,-2604.724693
600.892189,5107.421000,8290.306550,229.828649
600.892509,4737.318029,9770.718434,3830.477490
600.892829,1998.556043,10807.006753,1991.848295
600.893150,1184.329507,9178.553681,-76.609550
600.893470,1110.308913,6513.812290,-1685.410096
600.893791,2664.741391,5403.503377,76.609550
600.894111,4441.235652,5995.668130,2068.457845
600.894432,7179.997637,10732.986159,153.219100
600.894752,3997.112087,13619.789333,-2068.457845
600.895073,3034.844362,10658.965565,-2911.162892
600.895393,8660.409521,6735.874072,-919.314598
600.895713,9548.656652,3997.112087,2068.457845
600.896034,6069.688724,5551.544565,1915.238745
600.896354,4959.379811,9844.739029,-1838.629195
600.896675,4367.215058,9252.574275,-4290.134789
600.896995,5477.523971,5403.503377,-2145.067394
600.897316,10881.027347,3330.926739,2757.943793
600.897636,9770.718434,4367.215058,1378.971896
600.897957,2886.803174,6365.771101,-2604.724693
600.898277,2072.576638,8216.285956,-4903.011187
600.898597,6069.688724,9252.574275,-2681.334243
600.898918,7994.224174,7994.224174,2374.896044
600.899238,8364.327145,10881.027347,4213.525239
600.899559,5255.462188,13545.768739,383.047749
600.899879,74.020594,11843.295072,-4060.306139
600.900200,2146.597232,7624.121203,-1838.629195
600.900520,4219.173869,4663.297435,1991.848295
600.900841,4589.276840,4811.338623,3294.210641
600.901161,3256.906145,5773.606348,2451.505594
600.901482,1776.494261,10807.006753,-306.438199
600.901802,2516.700203,12583.501014,-842.705048
600.902122,4737.318029,9548.656652,1762.019645
600.902443,6957.935855,6883.915261,2987.772442
600.902763,6883.915261,5403.503377,2834.553343
600.903084,4663.297435,7476.080014,1455.581446
600.903404,3923.091493,7846.182985,-842.705048
600.903725,4811.338623,7105.977043,-2068.457845
600.904045,7920.203579,7105.977043,-766.095498
600.904366,8438.347739,8512.368333,-153.219100
600.904686,8512.368333,11399.171507,-1378.971896
600.905006,8142.265362,8956.491898,-1991.848295
600.905327,6513.812290,4811.338623,-536.266849
600.905647,7476.080014,740.205942,1685.410096
600.905968,8364.327145,2072.576638,3370.820191
600.906288,7476.080014,3775.050304,1608.800546
600.906609,9770.718434,9104.533087,-842.705048
600.906929,10362.883188,9844.739029,-3064.381992
600.907250,5847.626942,3923.091493,-3753.867940
600.907570,8512.368333,2590.720797,459.657299
600.907890,9474.636058,5699.585753,3064.381992
600.908211,3775.050304,8142.265362,229.828649
600.908531,4737.318029,7031.956449,-3830.477490
600.908852,7698.141797,5995.668130,-4596.572988
600.909172,4293.194464,6661.853478,-1838.629195
600.909493,6069.688724,7105.977043,1991.848295
600.909813,8512.368333,11547.212695,2298.286494
600.910134,6365.771101,12657.521608,-995.924147
600.910454,5255.462188,9992.780217,-689.485948
600.910774,5625.565159,5107.421000,2374.896044
600.911095,3404.947333,2442.679609,2374.896044
600.911415,4885.359217,4071.132681,4826.401637
600.911736,5329.482782,5625.565159,2911.162892
600.912056,9030.512492,7105.977043,-1838.629195
600.912377,10436.903782,5255.462188,-1838.629195
600.912697,10584.944971,4811.338623,0.000000
600.913018,12509.480420,7254.018232,1532.190996
600.913338,11325.150913,6069.688724,2374.896044
600.913659,13249.686362,5255.462188,-536.266849
600.913979,16136.489536,4071.132681,-2987.772442
600.914299,15248.242405,3775.050304,-3217.601092
600.914620,13471.748144,4737.318029,-1532.190996
600.914940,12065.356855,3775.050304,-1455.581446
600.915261,13323.706956,4811.338623,-2451.505594
600.915581,13693.809927,5033.400406,-2298.286494
600.915902,12287.418637,3775.050304,-536.266849
600.916222,10510.924376,2738.761985,1838.629195
600.916543,9844.739029,4737.318029,3753.867940
600.916863,5403.503377,2960.823768,1302.362347
600.917183,5773.606348,2072.576638,-1685.410096
600.917504,8290.306550,4959.379811,-2757.943793
600.917824,7105.977043,9178.553681,-536.266849
600.918145,5921.647536,10066.800811,306.438199
600.918465,10732.986159,8734.430116,-1225.752797
600.918786,8586.388927,7994.224174,-766.095498
600.919106,7624.121203,6217.729913,689.485948
600.919427,6439.791695,4219.173869,2757.943793
600.919747,7179.997637,2146.597232,2298.286494
600.920067,9548.656652,1406.391290,3140.991542
600.920388,10881.027347,1036.288319,1685.410096
600.920708,10436.903782,2146.597232,-2757.943793
600.921029,12139.377449,4737.318029,-3907.087040
600.921349,10584.944971,6217.729913,-1838.629195
600.921670,12361.439231,5033.400406,-919.314598
600.921990,14137.933492,4219.173869,536.266849
600.922311,12361.439231,4071.132681,-1455.581446
600.922631,9326.594869,6217.729913,-4366.744339
600.922952,9104.533087,8882.471304,-4596.572988
600.923272,9548.656652,9844.739029,-2451.505594
600.923592,9252.574275,8512.368333,0.000000
600.923913,7031.956449,5403.503377,0.000000
600.924233,6069.688724,4515.256246,-306.438199
600.924554,4293.194464,4367.215058,153.219100
600.924874,3404.947333,5773.606348,1378.971896
600.925195,4811.338623,4737.318029,1225.752797
600.925515,6809.894666,5255.462188,995.924147
600.925836,9992.780217,9770.718434,1302.362347
600.926156,8216.285956,12287.418637,1608.800546
600.926476,7179.997637,11103.089130,0.000000
600.926797,8438.347739,8290.306550,-459.657299
600.927117,7772.162391,4145.153275,0.000000
600.927438,8364.327145,2368.659014,1532.190996
600.927758,9992.780217,3034.844362,536.266849
600.928079,8290.306550,4663.297435,-2298.286494
600.928399,9622.677246,6883.915261,-3064.381992
600.928720,11473.192101,8438.347739,-2451.505594
600.929040,10807.006753,6587.832884,-1685.410096
600.929360,12879.583391,5403.503377,1762.019645
600.929681,14063.912898,5921.647536,3524.039291
600.930001,9104.533087,5255.462188,689.485948
600.930322,8364.327145,3997.112087,-2068.457845
600.930642,10140.821405,2886.803174,-1608.800546
600.930963,8956.491898,3997.112087,-1608.800546
600.931283,11029.068536,5551.544565,76.609550
600.931604,8882.471304,6587.832884,-536.266849
600.931924,6587.832884,5773.606348,-3370.820191
600.932245,5625.565159,5255.462188,-995.924147
600.932565,7254.018232,5477.523971,842.705048
600.932885,7698.141797,4811.338623,1225.752797
600.933206,6809.894666,4737.318029,1915.238745
600.933526,6883.915261,6143.709319,0.000000
600.933847,9696.697840,9252.574275,-2298.286494
600.934167,8290.306550,8956.491898,-306.438199
600.934488,8586.388927,6587.832884,306.438199
600.934808,10510.924376,3552.988522,2221.676944
600.935129,10288.862594,3552.988522,3447.429741
600.935449,8734.430116,4219.173869,4060.306139
600.935769,9104.533087,3997.112087,1302.362347
600.936090,9474.636058,2738.761985,-1225.752797
600.936410,11103.089130,814.226536,-1608.800546
600.936731,12583.501014,740.205942,-919.314598
600.937051,13471.748144,4071.132681,-536.266849
600.937372,12509.480420,7476.080014,0.000000
600.937692,10510.924376,6365.771101,0.000000
600.938013,12213.398043,5477.523971,-689.485948
600.938333,13323.706956,4145.153275,-842.705048
600.938653,11769.274478,4959.379811,-995.924147
600.938974,9770.718434,5107.421000,-2604.724693
600.939294,9548.656652,5773.606348,-2604.724693
600.939615,8882.471304,4515.256246,-383.047749
600.939935,7994.224174,3034.844362,1838.629195
600.940256,10066.800811,3923.091493,2451.505594
600.940576,8808.450710,5403.503377,76.609550
600.940897,5625.565159,7105.977043,-1532.190996
600.941217,6291.750507,5773.606348,-306.438199
600.941537,9992.780217,5403.503377,689.485948
600.941858,10066.800811,7402.059420,1915.238745
600.942178,9178.553681,9918.759623,766.095498
600.942499,7846.182985,10288.862594,-2451.505594
600.942819,6365.771101,8512.368333,-3217.601092
600.943140,7994.224174,6069.688724,0.000000
600.943460,9622.677246,3923.091493,3217.601092
600.943781,8142.265362,4515.256246,2451.505594
600.944101,7550.100608,4737.318029,383.047749
600.944422,7624.121203,4737.318029,-1762.019645
600.944742,8808.450710,4367.215058,-2757.943793
600.945062,10881.027347,4367.215058,0.000000
600.945383,12583.501014,4885.359217,2068.457845
600.945703,12953.603985,5773.606348,1072.533697
600.946024,12953.603985,5403.503377,-766.095498
600.946344,10658.965565,3701.029710,-3524.039291
600.946665,12731.542202,5329.482782,-2834.553343
600.946985,11103.089130,5773.606348,-766.095498
600.947306,10436.903782,6735.874072,-1302.362347
600.947626,11103.089130,6513.812290,-1072.533697
600.947946,10510.924376,6217.729913,-689.485948
600.948267,8290.306550,5847.626942,-842.705048
600.948587,6587.832884,5255.462188,-689.485948
600.948908,5033.400406,4663.297435,-1455.581446
600.949228,6587.832884,4811.338623,-919.314598
600.949549,7402.059420,5699.585753,1455.581446
600.949869,8438.347739,7846.182985,1762.019645
600.950190,7254.018232,8660.409521,1225.752797
600.950510,5625.565159,7550.100608,995.924147
600.950830,6587.832884,5995.668130,919.314598
600.951151,9474.636058,4885.359217,2451.505594
600.951471,10288.862594,5033.400406,3294.210641
600.951792,9474.636058,5255.462188,2068.457845
600.952112,9104.533087,4737.318029,0.000000
600.952433,9696.697840,4071.132681,-1149.143247
600.952753,11029.068536,3256.906145,0.000000
600.953074,13619.789333,2812.782580,229.828649
600.953394,13249.686362,2516.700203,-1455.581446
600.953715,12583.501014,2442.679609,-1072.533697
600.954035,13249.686362,3108.864956,-689.485948
600.954355,14137.933492,3330.926739,-383.047749
600.954676,13027.624579,3256.906145,-1072.533697
600.954997,14508.036463,5107.421000,-1532.190996
600.955317,12287.418637,6883.915261,-2451.505594
600.955638,9770.718434,5995.668130,-1455.581446
600.955958,9696.697840,2590.720797,306.438199
600.956279,9400.615463,2146.597232,919.314598
600.956599,7550.100608,3478.967927,536.266849
600.956920,6513.812290,5329.482782,306.438199
600.957240,4811.338623,5847.626942,-1149.143247
600.957561,5625.565159,6365.771101,-842.705048
600.957881,5699.585753,6735.874072,1915.238745
600.958202,5773.606348,8216.285956,612.876398
600.958522,6069.688724,9252.574275,76.609550
600.958843,4737.318029,9252.574275,-766.095498
600.959164,5921.647536,8290.306550,0.000000
600.959484,5773.606348,7772.162391,1072.533697
600.959805,6587.832884,7476.080014,842.705048
600.960125,7254.018232,8660.409521,383.047749
600.960446,6957.935855,8512.368333,306.438199
600.960766,7698.141797,6661.853478,1225.752797
600.961087,9400.615463,3923.091493,2298.286494
600.961407,9770.718434,3034.844362,1915.238745
600.961728,9696.697840,4145.153275,1149.143247
600.962048,9178.553681,4071.132681,76.609550
600.962369,11843.295072,2960.823768,-1302.362347
600.962689,15026.180623,3182.885551,-1149.143247
600.963010,15026.180623,3256.906145,-1532.190996
600.963331,14285.974681,5329.482782,-2374.896044
600.963651,13175.665768,7254.018232,-3064.381992
600.963972,13101.645173,7179.997637,-3064.381992
600.964292,13619.789333,5551.544565,-2374.896044
600.964613,13545.768739,4293.194464,-1915.238745
600.964933,12139.377449,5477.523971,-2298.286494
600.965254,8364.327145,6439.791695,-1532.190996
600.965574,6365.771101,5033.400406,-1149.143247
600.965895,7105.977043,3627.009116,612.876398
600.966215,7772.162391,3404.947333,2681.334243
600.966536,7476.080014,5921.647536,3064.381992
600.966856,4441.235652,8216.285956,1532.190996
600.967177,3701.029710,7402.059420,-383.047749
600.967497,5255.462188,5625.565159,995.924147
600.967818,6809.894666,3701.029710,2911.162892
600.968139,7624.121203,5181.441594,2834.553343
600.968459,7328.038826,7846.182985,1072.533697
600.968780,6143.709319,9400.615463,-2451.505594
600.969100,7550.100608,7920.203579,-2298.286494
600.969421,9474.636058,4663.297435,306.438199
600.969741,11621.233289,2368.659014,1838.629195
600.970062,11917.315666,2886.803174,1455.581446
600.970382,10732.986159,4663.297435,-1225.752797
600.970703,10214.842000,3997.112087,-2987.772442
600.971023,12213.398043,2368.659014,-2374.896044
600.971344,14508.036463,2220.617826,383.047749
600.971664,13915.871710,3182.885551,1302.362347
600.971985,12879.583391,3701.029710,-919.314598
600.972306,12139.377449,5551.544565,-3370.820191
600.972626,11473.192101,5847.626942,-3064.381992
600.972947,11177.109724,6217.729913,-766.095498
600.973267,10362.883188,6143.709319,153.219100
600.973588,9030.512492,6957.935855,-306.438199
600.973908,7328.038826,7105.977043,-153.219100
600.974229,5625.565159,6069.688724,76.609550
600.974549,6217.729913,5107.421000,612.876398
600.974870,6217.729913,5921.647536,1838.629195
600.975190,4959.379811,7476.080014,2681.334243
600.975511,4885.359217,8882.471304,2298.286494
600.975831,5329.482782,8290.306550,1838.629195
600.976152,4811.338623,7328.038826,2068.457845
600.976473,4959.379811,5847.626942,2451.505594
600.976793,6291.750507,4737.318029,2221.676944
600.977114,7328.038826,5699.585753,536.266849
600.977434,8512.368333,6587.832884,229.828649
600.977755,9474.636058,6883.915261,-306.438199
600.978075,10881.027347,6661.853478,-842.705048
600.978396,11769.274478,5255.462188,-306.438199
600.978716,11769.274478,3775.050304,0.000000
600.979037,12139.377449,2738.761985,-995.924147
600.979357,12361.439231,2368.659014,-2145.067394
600.979678,12213.398043,3034.844362,-1915.238745
600.979998,13027.624579,4589.276840,-1149.143247
600.980319,13545.768739,6069.688724,-1225.752797
600.980639,12435.459826,6587.832884,-2451.505594
600.980960,11103.089130,6069.688724,-2298.286494
600.981281,9326.594869,4885.359217,-1149.143247
600.981601,7698.141797,4293.194464,459.657299
600.981922,6883.915261,3997.112087,1302.362347
600.982242,6365.771101,4663.297435,153.219100
600.982563,6587.832884,6069.688724,-766.095498
600.982883,5921.647536,8142.265362,-306.438199
600.983204,6883.915261,9030.512492,1072.533697
600.983524,6957.935855,8586.388927,1378.971896
600.983845,6217.729913,6809.894666,2221.676944
600.984165,5773.606348,5699.585753,1915.238745
600.984486,5551.544565,5181.441594,1302.362347
600.984806,5921.647536,5181.441594,995.924147
600.985127,7328.038826,5403.503377,919.314598
600.985448,9474.636058,5403.503377,76.609550
600.985768,10510.924376,6069.688724,-1225.752797
600.986089,11325.150913,6735.874072,-1915.238745
600.986409,12065.356855,6143.709319,-1532.190996
600.986730,12435.459826,5107.421000,-536.266849
600.987050,12583.501014,3627.009116,612.876398
600.987371,12435.459826,3552.988522,919.314598
600.987691,11399.171507,5107.421000,0.000000
600.988012,10732.986159,5551.544565,-1608.800546
600.988332,10807.006753,5699.585753,-3064.381992
600.988653,11103.089130,4515.256246,-2604.724693
600.988973,10807.006753,4145.153275,-1455.581446
600.989294,10436.903782,4441.235652,0.000000
600.989615,9400.615463,5773.606348,919.314598
600.989935,8068.244768,6365.771101,1302.362347
600.990256,7846.182985,6291.750507,1608.800546
600.990576,8364.327145,5255.462188,1378.971896
600.990897,7550.100608,5477.523971,842.705048
600.991217,6957.935855,5699.585753,689.485948
600.991538,7624.121203,6439.791695,76.609550
600.991858,7624.121203,6809.894666,0.000000
600.992179,7550.100608,6513.812290,0.000000
600.992499,7772.162391,5773.606348,-76.609550
600.992820,7846.182985,5477.523971,229.828649
600.993140,7179.997637,5329.482782,1302.362347
600.993461,8142.265362,4219.173869,1838.629195
600.993781,9474.636058,3404.947333,1532.190996
600.994102,10140.821405,4293.194464,76.609550
600.994423,9474.636058,4737.318029,-1532.190996
600.994743,9622.677246,5995.668130,-2604.724693
600.995064,11177.109724,6217.729913,-2451.505594
600.995384,11991.336260,6069.688724,-1302.362347
600.995705,11769.274478,5773.606348,-612.876398
600.996025,10955.047942,5403.503377,-612.876398
600.996346,9622.677246,5033.400406,-536.266849
600.996666,8586.388927,5033.400406,229.828649
600.996987,9178.553681,4441.235652,995.924147
600.997307,9548.656652,4293.194464,306.438199
600.997628,9178.553681,5181.441594,153.219100
600.997948,8142.265362,5699.585753,-459.657299
600.998269,7846.182985,5329.482782,-1072.533697
600.998590,8142.265362,5181.441594,-842.705048
600.998910,7772.162391,5773.606348,0.000000
600.999231,8734.430116,7031.956449,0.000000
600.999551,8734.430116,8216.285956,229.828649
600.999872,8734.430116,8512.368333,919.314598
601.000192,8882.471304,7624.121203,1685.410096
601.000513,8882.471304,6661.853478,1455.581446
601.000833,8734.430116,6217.729913,1455.581446
601.001154,8512.368333,5403.503377,1072.533697
601.001474,8586.388927,4145.153275,1378.971896
601.001795,8882.471304,3404.947333,1225.752797
601.002115,8956.491898,3849.070898,1149.143247
601.002436,9548.656652,4885.359217,0.000000
601.002757,10214.842000,6883.915261,-1225.752797
601.003077,10362.883188,8068.244768,-1608.800546
601.003398,10436.903782,8290.306550,-306.438199
601.003718,9622.677246,7402.059420,612.876398
601.004039,8216.285956,6661.853478,1225.752797
601.004359,7105.977043,7031.956449,766.095498
601.004680,5773.606348,6587.832884,306.438199
601.005000,6291.750507,5699.585753,0.000000
601.005321,5995.668130,5477.523971,0.000000
601.005641,5329.482782,5995.668130,0.000000
601.005962,5477.523971,7105.977043,1149.143247
601.006282,5551.544565,8882.471304,2068.457845
601.006603,5625.565159,9770.718434,3064.381992
601.006923,6217.729913,9622.677246,3447.429741
601.007244,5847.626942,8808.450710,3447.429741
601.007565,5403.503377,8068.244768,3524.039291
601.007885,5107.421000,8068.244768,4060.306139
601.008206,5255.462188,8438.347739,3907.087040
601.008526,5403.503377,9326.594869,3217.601092
601.008847,5847.626942,9400.615463,2681.334243
601.009167,6143.709319,8956.491898,3370.820191
601.009488,5995.668130,8734.430116,4673.182538
601.009808,6143.709319,7624.121203,5515.887586
601.010129,6661.853478,7698.141797,5439.278036
601.010449,7031.956449,7846.182985,5669.106685
601.010770,7105.977043,8216.285956,5669.106685
601.011090,6661.853478,8216.285956,5745.716235
601.011411,7105.977043,8068.244768,5898.935335
601.011732,7105.977043,8290.306550,6281.983084
601.012052,7105.977043,7846.182985,6665.030833
601.012373,7179.997637,6883.915261,6358.592633
601.012693,6957.935855,6291.750507,5975.544884
601.013014,6143.709319,5625.565159,6052.154434
601.013334,6069.688724,5477.523971,5975.544884
601.013655,6217.729913,6291.750507,5975.544884
601.013975,6365.771101,7920.203579,6358.592633
601.014296,6069.688724,8956.491898,6435.202183
601.014616,5625.565159,8586.388927,6205.373534
601.014937,4959.379811,7698.141797,6741.640382
601.015257,4219.173869,6957.935855,7584.345430
601.015578,3701.029710,6513.812290,7507.735880
601.015899,3034.844362,5995.668130,7048.078582
601.016219,2294.638420,6069.688724,6511.811733
601.016540,1850.514855,5699.585753,5975.544884
601.016860,2368.659014,5847.626942,5975.544884
601.017181,2442.679609,6661.853478,6205.373534
601.017501,2368.659014,7031.956449,6588.421283
601.017822,2886.803174,7328.038826,6741.640382
601.018142,3404.947333,7624.121203,6818.249932
601.018463,3404.947333,8142.265362,6435.202183
601.018783,3997.112087,8068.244768,6435.202183
601.019104,4589.276840,7624.121203,5515.887586
601.019424,4663.297435,6809.894666,4826.401637
601.019745,4219.173869,5847.626942,4290.134789
601.020065,4219.173869,4737.318029,3753.867940
601.020386,4663.297435,4515.256246,4903.011187
601.020707,4219.173869,4589.276840,4213.525239
601.021027,4589.276840,5699.585753,3064.381992
601.021348,5699.585753,6809.894666,2451.505594
601.021668,6217.729913,8216.285956,2604.724693
601.021989,7179.997637,8734.430116,2911.162892
601.022309,7179.997637,9844.739029,2757.943793
601.022630,7031.956449,9992.780217,2681.334243
601.022950,7031.956449,9770.718434,3830.477490
601.023271,6291.750507,10214.842000,4290.134789
601.023591,5477.523971,9992.780217,5592.497135
601.023912,5329.482782,10658.965565,4979.620737
601.024232,4737.318029,10362.883188,5056.230287
601.024553,3849.070898,8290.306550,4596.572988
601.024874,3034.844362,5773.606348,4213.525239
601.025194,3404.947333,4145.153275,4290.134789
601.025515,3552.988522,4145.153275,3370.820191
601.025835,4441.235652,6143.709319,1991.848295
601.026156,6587.832884,9400.615463,153.219100
601.026476,8364.327145,13101.645173,-1225.752797
601.026797,9548.656652,15544.324782,-383.047749
601.027117,9918.759623,15322.262999,2145.067394
601.027438,9622.677246,13693.809927,3907.087040
601.027758,8808.450710,11621.233289,5745.716235
601.028079,6513.812290,9844.739029,5745.716235
601.028399,5181.441594,7920.203579,4749.792088
601.028720,4071.132681,6735.874072,3983.696590
601.029041,3034.844362,5847.626942,3907.087040
601.029361,3182.885551,4589.276840,3600.648841
601.029682,4219.173869,4589.276840,3140.991542
601.030002,5477.523971,6661.853478,3983.696590
601.030323,5181.441594,8956.491898,3983.696590
601.030643,5625.565159,11695.253884,2987.772442
601.030964,6217.729913,12879.583391,2757.943793
601.031284,6513.812290,13471.748144,2911.162892
601.031605,7772.162391,13915.871710,4213.525239
601.031925,7328.038826,11991.336260,5515.887586
601.032246,5181.441594,9474.636058,6128.763984
601.032566,2294.638420,6883.915261,5515.887586
601.032887,2220.617826,5773.606348,5745.716235
601.033207,2220.617826,4737.318029,5745.716235
601.033528,2516.700203,3775.050304,5362.668486
601.033849,3849.070898,4071.132681,5592.497135
601.034169,5329.482782,5477.523971,7507.735880
601.034490,4959.379811,7550.100608,8120.612279
601.034810,4737.318029,9770.718434,6588.421283
601.035131,5403.503377,10436.903782,5132.839837
601.035451,5625.565159,10732.986159,5056.230287
601.035772,5847.626942,9252.574275,5209.449386
601.036092,6291.750507,7328.038826,6358.592633
601.036413,6883.915261,7550.100608,7737.564530
601.036733,3997.112087,9104.533087,7967.393179
601.037054,2516.700203,8956.491898,7048.078582
601.037374,2590.720797,6513.812290,6741.640382
601.037695,2368.659014,3256.906145,7967.393179
601.038016,1850.514855,814.226536,9039.926876
601.038336,4367.215058,1628.453072,8273.831378
601.038657,5181.441594,5329.482782,7048.078582
601.038977,3330.926739,8882.471304,4749.792088
601.039298,4293.194464,10510.924376,2298.286494
601.039618,6069.688724,10732.986159,3524.039291
601.039939,5329.482782,8808.450710,6052.154434
601.040259,3701.029710,5551.544565,8350.440928
601.040580,4441.235652,5329.482782,7584.345430
601.040900,3997.112087,7698.141797,7277.907231
601.041221,3627.009116,10658.965565,6435.202183
601.041541,4145.153275,10066.800811,4903.011187
601.041862,5255.462188,8956.491898,3983.696590
601.042183,2960.823768,5477.523971,4213.525239
601.042503,2516.700203,2738.761985,5439.278036
601.042824,4737.318029,1702.473667,6588.421283
601.043144,4737.318029,4145.153275,7431.126331
601.043465,4219.173869,7402.059420,4596.572988
601.043785,5181.441594,9548.656652,1915.238745
601.044106,5477.523971,11843.295072,2298.286494
601.044426,6365.771101,14211.954086,6281.983084
601.044747,7624.121203,15026.180623,8427.050478
601.045067,7105.977043,11843.295072,5898.935335
601.045388,4811.338623,8438.347739,3140.991542
601.045708,3701.029710,5625.565159,2681.334243
601.046029,3923.091493,4145.153275,3217.601092
601.046349,4145.153275,5847.626942,4903.011187
601.046670,4293.194464,8882.471304,4903.011187
601.046991,4885.359217,10288.862594,4136.915689
601.047311,6661.853478,10140.821405,4366.744339
601.047632,6735.874072,9844.739029,5286.058936
601.047952,6365.771101,10362.883188,5209.449386
601.048273,5995.668130,10807.006753,4596.572988
601.048593,6365.771101,9844.739029,4290.134789
601.048914,6735.874072,9104.533087,5286.058936
601.049234,7031.956449,10362.883188,6281.983084
601.049555,7105.977043,10955.047942,4903.011187
601.049875,4737.318029,10658.965565,3677.258390
601.050196,4293.194464,9548.656652,3677.258390
601.050516,5033.400406,8142.265362,4826.401637
601.050837,5921.647536,6513.812290,5439.278036
601.051158,4663.297435,5773.606348,5745.716235
601.051478,3034.844362,7402.059420,4903.011187
601.051799,4145.153275,10362.883188,3983.696590
601.052119,4959.379811,11029.068536,2987.772442
601.052440,4515.256246,8216.285956,3983.696590
601.052760,6217.729913,7254.018232,4903.011187
601.053081,6439.791695,9770.718434,6588.421283
601.053401,3404.947333,10881.027347,5132.839837
601.053721,2442.679609,9400.615463,3217.601092
601.054042,4145.153275,7031.956449,3217.601092
601.054362,4293.194464,5403.503377,5209.449386
601.054683,3775.050304,4959.379811,7431.126331
601.055003,2442.679609,5551.544565,5975.544884
601.055324,3034.844362,7105.977043,3907.087040
601.055644,4071.132681,7772.162391,3907.087040
601.055964,4737.318029,7179.997637,4749.792088
601.056285,6439.791695,6661.853478,5362.668486
601.056605,6661.853478,8438.347739,6205.373534
601.056926,4145.153275,8290.306550,4519.963438
601.057246,3182.885551,7031.956449,2757.943793
601.057567,5181.441594,6735.874072,3524.039291
601.057887,5625.565159,5995.668130,5745.716235
601.058208,6291.750507,6809.894666,6052.154434
601.058528,5921.647536,9400.615463,3907.087040
601.058849,2220.617826,9474.636058,1762.019645
601.059169,2442.679609,5551.544565,3677.258390
601.059490,7179.997637,4071.132681,7660.954980
601.059810,7031.956449,7031.956449,8656.879127
601.060130,3034.844362,8734.430116,6435.202183
601.060451,2664.741391,10140.821405,3217.601092
601.060771,3923.091493,9400.615463,2834.553343
601.061092,5255.462188,8586.388927,6894.859482
601.061412,7105.977043,9844.739029,8580.269578
601.061733,6069.688724,10881.027347,5286.058936
601.062053,1036.288319,9400.615463,3524.039291
601.062374,1776.494261,7624.121203,4903.011187
601.062694,5107.421000,6735.874072,5592.497135
601.063015,4293.194464,7550.100608,5745.716235
601.063335,3182.885551,9252.574275,5362.668486
601.063656,5107.421000,10288.862594,4366.744339
601.063976,5181.441594,8808.450710,4290.134789
601.064296,5625.565159,7624.121203,5898.935335
601.064617,6587.832884,8142.265362,4826.401637
601.064937,5847.626942,9252.574275,3677.258390
601.065258,4515.256246,9770.718434,4136.915689
601.065578,6661.853478,9770.718434,4519.963438
601.065899,8438.347739,10584.944971,4826.401637
601.066219,6217.729913,9178.553681,5286.058936
601.066540,4219.173869,8956.491898,5669.106685
601.066860,4441.235652,9770.718434,5439.278036
601.067181,2960.823768,8216.285956,4903.011187
601.067501,4589.276840,6365.771101,4213.525239
601.067822,5033.400406,5255.462188,5056.230287
601.068142,3478.967927,7624.121203,5056.230287
601.068463,2812.782580,9548.656652,6128.763984
601.068783,5255.462188,9548.656652,4826.401637
601.069103,5699.585753,8216.285956,4213.525239
601.069424,5847.626942,8290.306550,5822.325785
601.069744,4959.379811,9252.574275,6052.154434
601.070065,4737.318029,8660.409521,4749.792088
601.070385,5625.565159,7920.203579,4749.792088
601.070706,6809.894666,6809.894666,4979.620737
601.071026,5625.565159,7031.956449,4903.011187
601.071347,3552.988522,7031.956449,6358.592633
601.071667,3478.967927,5477.523971,4366.744339
601.071988,3775.050304,3701.029710,2068.457845
601.072308,4811.338623,4959.379811,2068.457845
601.072629,5477.523971,7402.059420,3217.601092
601.072949,6513.812290,8956.491898,3600.648841
601.073269,6439.791695,9178.553681,2374.896044
601.073590,5699.585753,9992.780217,2451.505594
601.073910,5699.585753,9844.739029,4213.525239
601.074231,7105.977043,8808.450710,5822.325785
601.074551,4589.276840,7254.018232,5975.544884
601.074872,2886.803174,5847.626942,3830.477490
601.075192,5625.565159,7402.059420,2987.772442
601.075513,3627.009116,7328.038826,3064.381992
601.075833,2146.597232,5847.626942,4290.134789
601.076154,4367.215058,6217.729913,4826.401637
601.076474,5773.606348,7994.224174,2834.553343
601.076795,2738.761985,7105.977043,3217.601092
601.077115,4589.276840,7624.121203,5056.230287
601.077435,7920.203579,9992.780217,5132.839837
601.077756,5699.585753,11325.150913,3447.429741
601.078076,4515.256246,10140.821405,2451.505594
601.078397,7105.977043,11029.068536,3447.429741
601.078717,7698.141797,12731.542202,6894.859482
601.079038,4589.276840,10362.883188,6588.421283
601.079358,4515.256246,7105.977043,1838.629195
601.079679,4441.235652,4663.297435,1149.143247
601.079999,3256.906145,4145.153275,5669.106685
601.080320,3849.070898,5181.441594,6435.202183
601.080640,5403.503377,7179.997637,2757.943793
601.080961,5181.441594,9844.739029,1762.019645
601.081281,6143.709319,11917.315666,3677.258390
601.081601,7179.997637,13841.851115,5132.839837
601.081922,7254.018232,13989.892304,5132.839837
601.082242,6661.853478,11251.130318,4290.134789
601.082563,5699.585753,6143.709319,3753.867940
601.082883,4811.338623,4441.235652,4443.353888
601.083204,3182.885551,6957.935855,4903.011187
601.083524,4441.235652,8290.306550,5439.278036
601.083845,3775.050304,8586.388927,4903.011187
601.084165,6365.771101,9548.656652,4826.401637
601.084486,5329.482782,8808.450710,5132.839837
601.084806,4145.153275,5995.668130,4290.134789
601.085127,4293.194464,4515.256246,4596.572988
601.085447,5699.585753,5995.668130,5362.668486
601.085767,5329.482782,9326.594869,4060.306139
601.086088,6439.791695,10510.924376,2681.334243
601.086408,6957.935855,10214.842000,3983.696590
601.086729,3404.947333,9400.615463,7354.516781
601.087049,3849.070898,8882.471304,9116.536426
601.087370,4071.132681,7031.956449,6435.202183
601.087690,2590.720797,4811.338623,3524.039291
601.088011,2442.679609,1924.535449,2604.724693
601.088331,5033.400406,2516.700203,1455.581446
601.088652,4441.235652,3775.050304,1378.971896
601.088972,5107.421000,5551.544565,3677.258390
601.089293,8586.388927,9104.533087,2834.553343
601.089613,9326.594869,13175.665768,2451.505594
601.089934,6809.894666,13027.624579,3140.991542
601.090254,7328.038826,10584.944971,6205.373534
601.090574,6809.894666,7254.018232,8580.269578
601.090895,3849.070898,4959.379811,8197.221829
601.091215,4441.235652,6365.771101,5209.449386
601.091536,4663.297435,8956.491898,2987.772442
601.091856,2812.782580,8438.347739,3524.039291
601.092177,2738.761985,4071.132681,5132.839837
601.092497,5551.544565,2442.679609,5362.668486
601.092818,3330.926739,2664.741391,5362.668486
601.093138,3108.864956,7179.997637,5515.887586
601.093459,5329.482782,9992.780217,3830.477490
601.093779,5551.544565,9992.780217,766.095498
601.094100,7846.182985,10955.047942,1149.143247
601.094420,10436.903782,14804.118840,3140.991542
601.094740,7550.100608,13545.768739,4366.744339
601.095061,4737.318029,11917.315666,4903.011187
601.095381,4515.256246,11325.150913,4366.744339
601.095702,2664.741391,8734.430116,3524.039291
601.096022,592.164754,6291.750507,5822.325785
601.096343,2516.700203,6883.915261,7277.907231
601.096663,2220.617826,8068.244768,5975.544884
601.096984,2294.638420,8586.388927,4749.792088
601.097304,2368.659014,6143.709319,3370.820191
601.097625,4737.318029,5551.544565,4519.963438
601.097945,6291.750507,9104.533087,7201.297681
601.098266,5033.400406,9252.574275,3983.696590
601.098586,5921.647536,7550.100608,153.219100
601.098906,10881.027347,10362.883188,2604.724693
601.099227,12065.356855,15322.262999,7890.783629
601.099547,8364.327145,15248.242405,7890.783629
601.099868,6883.915261,12583.501014,2987.772442
601.100188,6143.709319,9030.512492,229.828649
601.100509,3330.926739,2146.597232,3064.381992
601.100829,4219.173869,-2368.659014,7048.078582
601.101150,6735.874072,0.000000,6205.373534
601.101470,2516.700203,2738.761985,2451.505594
601.101791,1258.350101,4737.318029,612.876398
601.102111,5181.441594,4367.215058,1838.629195
601.102432,7254.018232,4959.379811,2374.896044
601.102752,8882.471304,9252.574275,3600.648841
601.103072,8142.265362,14434.015869,1225.752797
601.103393,4663.297435,14359.995275,-1378.971896
601.103713,4737.318029,10362.883188,-153.219100
601.104034,7550.100608,6291.750507,1991.848295
601.104354,6069.688724,3849.070898,2221.676944
601.104675,740.205942,5699.585753,2145.067394
601.104995,-2886.803174,6291.750507,1455.581446
601.105316,370.102971,5773.606348,2145.067394
601.105636,5995.668130,4145.153275,3830.477490
601.105957,5329.482782,4885.359217,3524.039291
601.106277,1036.288319,5625.565159,2681.334243
601.106598,592.164754,7402.059420,1915.238745
601.106918,4663.297435,10658.965565,76.609550
601.107238,7031.956449,11103.089130,0.000000
601.107559,9844.739029,13249.686362,1455.581446
601.107879,9104.533087,14656.077652,1685.410096
601.108200,2368.659014,12361.439231,919.314598
601.108520,2294.638420,7994.224174,2911.162892
601.108841,6439.791695,6143.709319,5362.668486
601.109161,4441.235652,6735.874072,4519.963438
601.109482,2590.720797,9178.553681,2528.115143
601.109802,4959.379811,11251.130318,-1915.238745
601.110123,5995.668130,8512.368333,-4979.620737
601.110443,4219.173869,1258.350101,-2374.896044
601.110764,7994.224174,370.102971,3677.258390
601.111084,11473.192101,9178.553681,4903.011187
601.111405,5477.523971,14878.139434,2681.334243
601.111725,4589.276840,14434.015869,-2145.067394
601.112045,12139.377449,12583.501014,-2987.772442
601.112366,9770.718434,9400.615463,2068.457845
601.112686,5625.565159,8438.347739,6588.421283
601.113007,5625.565159,5847.626942,1149.143247
601.113327,2590.720797,4737.318029,-5898.935335
601.113648,-592.164754,3256.906145,-4903.011187
601.113968,3182.885551,2294.638420,-1455.581446
601.114289,5107.421000,3256.906145,-1608.800546
601.114609,4737.318029,6809.894666,-919.314598
601.114930,6883.915261,13323.706956,76.609550
601.115250,7328.038826,15766.386565,-1532.190996
601.115571,5107.421000,11325.150913,-612.876398
601.115891,5477.523971,8216.285956,2757.943793
601.116211,5699.585753,8290.306550,2145.067394
601.116532,4441.235652,9178.553681,536.266849
601.116852,2442.679609,8956.491898,229.828649
601.117173,3182.885551,7624.121203,1302.362347
601.117493,2294.638420,6661.853478,2987.772442
601.117814,0.000000,4293.194464,2911.162892
601.118134,370.102971,2664.741391,-995.924147
601.118455,1702.473667,3701.029710,-3064.381992
601.118775,3182.885551,6365.771101,-2374.896044
601.119096,9104.533087,9252.574275,-689.485948
601.119416,9326.594869,11843.295072,-153.219100
601.119737,8142.265362,14063.912898,-842.705048
601.120057,8512.368333,16580.613101,-2681.334243
601.120377,7476.080014,14878.139434,-3677.258390
601.120698,3478.967927,7550.100608,-2451.505594
601.121018,5847.626942,1850.514855,3140.991542
601.121339,9400.615463,2294.638420,7201.297681
601.121659,4589.276840,4589.276840,6205.373534
601.121980,-2072.576638,6513.812290,-1225.752797
601.122300,962.267725,6809.894666,-6971.469032
601.122621,5995.668130,7254.018232,-2451.505594
601.122941,7254.018232,6439.791695,3753.867940
601.123262,7698.141797,7476.080014,2145.067394
601.123582,7031.956449,11103.089130,-2528.115143
601.123903,4441.235652,17394.839637,-4290.134789
601.124223,2738.761985,17024.736666,-2681.334243
601.124543,4737.318029,10732.986159,0.000000
601.124864,6735.874072,7624.121203,2374.896044
601.125184,2960.823768,6513.812290,2834.553343
601.125505,-1406.391290,2960.823768,3064.381992
601.125825,3701.029710,3552.988522,4749.792088
601.126146,518.144159,4219.173869,4060.306139
601.126466,1554.432478,6291.750507,459.657299
601.126787,4663.297435,7624.121203,-2757.943793
601.127107,7772.162391,8512.368333,-5209.449386
601.127428,3923.091493,5181.441594,-3677.258390
601.127748,7698.141797,6809.894666,306.438199
601.128069,11843.295072,10510.924376,1838.629195
601.128389,7179.997637,13027.624579,536.266849
601.128709,3256.906145,12213.398043,-919.314598
601.129030,4589.276840,8586.388927,-3753.867940
601.129350,5477.523971,6291.750507,-3600.648841
601.129671,5255.462188,2146.597232,3600.648841
601.129991,7550.100608,4737.318029,3370.820191
601.130312,4367.215058,7772.162391,-2221.676944
601.130632,2294.638420,9030.512492,-5592.497135
601.130953,5403.503377,5699.585753,-3830.477490
601.131273,8586.388927,4219.173869,-306.438199
601.131594,5921.647536,6587.832884,2298.286494
601.131914,4885.359217,10066.800811,1455.581446
601.132235,8956.491898,14359.995275,0.000000
601.132555,6809.894666,12509.480420,995.924147
601.132876,3997.112087,8956.491898,2374.896044
601.133196,5107.421000,7105.977043,1685.410096
601.133516,1480.411884,5329.482782,-153.219100
601.133837,814.226536,6365.771101,842.705048
601.134157,2960.823768,7105.977043,1149.143247
601.134478,6291.750507,8512.368333,-2451.505594
601.134798,5107.421000,9622.677246,-3907.087040
601.135119,3552.988522,9030.512492,-2834.553343
601.135439,3256.906145,9844.739029,-2451.505594
601.135760,4293.194464,10658.965565,919.314598
601.136080,6809.894666,11621.233289,2528.115143
601.136401,7328.038826,11251.130318,1685.410096
601.136721,4367.215058,11769.274478,1838.629195
601.137042,1998.556043,10732.986159,76.609550
601.137362,1924.535449,7698.141797,-3140.991542
601.137682,4071.132681,5033.400406,-1838.629195
601.138003,4071.132681,5181.441594,2834.553343
601.138323,1702.473667,6217.729913,3753.867940
601.138644,4589.276840,9770.718434,229.828649
601.138964,4737.318029,10288.862594,-3983.696590
601.139285,6143.709319,9104.533087,-5515.887586
601.139605,6365.771101,8956.491898,-1532.190996
601.139926,9622.677246,11251.130318,4749.792088
601.140246,6809.894666,9474.636058,5669.106685
601.140567,6439.791695,7402.059420,842.705048
601.140887,5329.482782,6365.771101,-3064.381992
601.141208,3701.029710,3923.091493,-2221.676944
601.141528,6217.729913,4071.132681,1149.143247
601.141848,8290.306550,4071.132681,2604.724693
601.142169,3923.091493,4811.338623,-919.314598
601.142489,4071.132681,5773.606348,-1762.019645
601.142810,5625.565159,7624.121203,0.000000
601.143130,6513.812290,6587.832884,-153.219100
601.143451,4811.338623,6735.874072,-3217.601092
601.143771,6809.894666,8290.306550,-5822.325785
601.144092,7031.956449,11325.150913,-2834.553343
601.144412,6587.832884,13619.789333,3907.087040
601.144733,5255.462188,12139.377449,4213.525239
601.145053,2516.700203,8512.368333,-1225.752797
601.145374,740.205942,4441.235652,-2987.772442
601.145694,1406.391290,4145.153275,1455.581446
601.146014,1998.556043,6291.750507,5056.230287
601.146335,1258.350101,7476.080014,1685.410096
601.146655,1702.473667,8660.409521,-3600.648841
601.146976,3034.844362,8364.327145,-4903.011187
601.147296,1406.391290,7031.956449,-383.047749
601.147617,5477.523971,8438.347739,1455.581446
601.147937,8438.347739,12435.459826,383.047749
601.148258,4959.379811,15470.304188,-1378.971896
601.148578,3923.091493,11399.171507,-1302.362347
601.148899,7031.956449,8734.430116,229.828649
601.149219,5773.606348,6069.688724,842.705048
601.149540,4441.235652,4959.379811,1072.533697
601.149860,7254.018232,8660.409521,0.000000
601.150180,1850.514855,9770.718434,-1685.410096
601.150501,2738.761985,7994.224174,-995.924147
601.150821,9104.533087,5403.503377,-1455.581446
601.151142,7772.162391,3923.091493,-2757.943793
601.151462,3701.029710,5181.441594,-1915.238745
601.151783,6883.915261,10288.862594,-2068.457845
601.152103,9474.636058,13323.706956,-3217.601092
601.152424,6957.935855,11695.253884,229.828649
601.152744,10732.986159,10584.944971,2374.896044
601.153065,8586.388927,9918.759623,76.609550
601.153385,2294.638420,7920.203579,-1455.581446
601.153706,3404.947333,6217.729913,536.266849
601.154026,7105.977043,5181.441594,1685.410096
601.154347,3108.864956,4737.318029,1685.410096
601.154667,2664.741391,7031.956449,842.705048
601.154987,1110.308913,5625.565159,-5975.544884
601.155308,2072.576638,5403.503377,-6741.640382
601.155628,3923.091493,4811.338623,-1532.190996
601.155949,9474.636058,10140.821405,919.314598
601.156269,7476.080014,14211.954086,2834.553343
601.156590,3923.091493,15322.262999,3140.991542
601.156910,3108.864956,12213.398043,383.047749
601.157231,5847.626942,9548.656652,-1072.533697
601.157551,2590.720797,3775.050304,689.485948
601.157872,2738.761985,1406.391290,995.924147
601.158192,3627.009116,3108.864956,-306.438199
601.158513,2220.617826,5329.482782,-2374.896044
601.158833,1480.411884,5847.626942,-3907.087040
601.159154,7031.956449,7846.182985,-3753.867940
601.159474,7179.997637,10732.986159,-1838.629195
601.159795,6513.812290,10288.862594,1378.971896
601.160115,9400.615463,11843.295072,1532.190996
601.160436,8512.368333,12879.583391,459.657299
601.160756,4219.173869,9918.759623,0.000000
601.161077,6735.874072,8438.347739,1072.533697
601.161397,7179.997637,7328.038826,-1072.533697
601.161718,2368.659014,2442.679609,-2068.457845
601.162038,5181.441594,3404.947333,153.219100
601.162359,3775.050304,6365.771101,1532.190996
601.162679,518.144159,5477.523971,995.924147
601.163000,4515.256246,6143.709319,-612.876398
601.163320,8216.285956,7624.121203,-2068.457845
601.163641,2664.741391,8660.409521,-2911.162892
601.163961,5625.565159,10066.800811,-1072.533697
601.164282,7550.100608,13841.851115,229.828649
601.164602,5995.668130,14434.015869,1378.971896
601.164923,6735.874072,11843.295072,1762.019645
601.165243,5625.565159,7105.977043,-1378.971896
601.165564,-1850.514855,666.185348,-3753.867940
601.165884,518.144159,1184.329507,1608.800546
601.166205,4145.153275,5255.462188,4519.963438
601.166525,2368.659014,9178.553681,-995.924147
601.166846,3849.070898,10362.883188,-3677.258390
601.167166,8882.471304,11769.274478,-5056.230287
601.167487,7105.977043,10066.800811,-2604.724693
601.167807,4663.297435,7550.100608,2298.286494
601.168128,8364.327145,9104.533087,1302.362347
601.168448,8808.450710,10066.800811,-2145.067394
601.168769,4071.132681,10658.965565,-536.266849
601.169089,5329.482782,10436.903782,536.266849
601.169410,6439.791695,6513.812290,-1225.752797
601.169730,4959.379811,5033.400406,2451.505594
601.170051,6217.729913,8660.409521,5822.325785
601.170371,1702.473667,7550.100608,1072.533697
601.170692,888.247130,4737.318029,-2834.553343
601.171012,6217.729913,2442.679609,-2604.724693
601.171333,6439.791695,5403.503377,-3447.429741
601.171653,6143.709319,9104.533087,-1302.362347
601.171974,8142.265362,13989.892304,-153.219100
601.172294,10140.821405,16876.695478,-919.314598
601.172615,7550.100608,14952.160028,995.924147
601.172935,5995.668130,10214.842000,2757.943793
601.173256,5773.606348,5033.400406,919.314598
601.173576,3404.947333,2664.741391,-842.705048
601.173897,1406.391290,2590.720797,76.609550
601.174217,3034.844362,3330.926739,1225.752797
601.174538,3182.885551,6439.791695,1608.800546
601.174858,4811.338623,9178.553681,2068.457845
601.175179,5921.647536,9918.759623,-1532.190996
601.175499,6513.812290,10288.862594,-5898.935335
601.175820,2886.803174,9326.594869,-4519.963438
601.176140,6291.750507,9030.512492,1991.848295
601.176461,10066.800811,11843.295072,5669.106685
601.176781,4885.359217,11769.274478,3907.087040
601.177102,-518.144159,8882.471304,-995.924147
601.177422,2368.659014,6513.812290,-3600.648841
601.177743,3034.844362,3701.029710,689.485948
601.178063,3701.029710,1998.556043,6894.859482
601.178384,2664.741391,3849.070898,4443.353888
601.178704,1110.308913,6365.771101,-2681.334243
601.179025,2590.720797,7624.121203,-6281.983084
601.179345,6513.812290,8512.368333,-4673.182538
601.179666,8512.368333,8512.368333,-995.924147
601.179986,9548.656652,7846.182985,1072.533697
601.180307,11325.150913,12287.418637,0.000000
601.180627,5403.503377,14211.954086,-2221.676944
601.180948,4145.153275,10214.842000,-2145.067394
601.181268,8216.285956,4515.256246,459.657299
601.181589,6661.853478,1702.473667,1302.362347
601.181909,2146.597232,1332.370696,1915.238745
601.182230,3256.906145,4737.318029,1762.019645
601.182550,666.185348,6735.874072,-1455.581446
601.182871,5107.421000,7624.121203,-766.095498
601.183191,8882.471304,8660.409521,-1225.752797
601.183512,8882.471304,10510.924376,-4979.620737
601.183832,3775.050304,11843.295072,-3677.258390
601.184153,4959.379811,14285.974681,2221.676944
601.184473,8290.306550,15544.324782,4673.182538
601.184794,6143.709319,11473.192101,4596.572988
601.185114,2664.741391,8068.244768,612.876398
601.185435,3997.112087,7179.997637,-2221.676944
601.185755,888.247130,4663.297435,1532.190996
601.186076,2294.638420,4811.338623,6971.469032
601.186396,4663.297435,6587.832884,4826.401637
601.186717,5107.421000,8660.409521,0.000000
601.187037,4737.318029,8438.347739,-3370.820191
601.187358,5255.462188,6883.915261,-5056.230287
601.187678,6217.729913,4589.276840,-3600.648841
601.187999,8586.388927,5773.606348,459.657299
601.188319,11399.171507,12879.583391,1991.848295
601.188640,9104.533087,18431.127956,612.876398
601.188960,3997.112087,15248.242405,-1149.143247
601.189281,6957.935855,7105.977043,-1455.581446
601.189601,5403.503377,3330.926739,-1455.581446
601.189922,296.082377,74.020594,2068.457845
601.190242,1110.308913,1924.535449,2681.334243
601.190563,962.267725,5625.565159,76.609550
601.190883,1702.473667,9030.512492,-2987.772442
601.191204,5033.400406,8290.306550,-3830.477490
601.191524,6809.894666,9030.512492,-2911.162892
601.191845,2886.803174,10140.821405,76.609550
601.192165,3775.050304,11473.192101,4366.744339
601.192486,9474.636058,11769.274478,5515.887586
601.192806,6143.709319,9474.636058,2451.505594
601.193127,1406.391290,7254.018232,842.705048
601.193447,4663.297435,6587.832884,-766.095498
601.193768,4441.235652,5699.585753,-766.095498
601.194088,3849.070898,6809.894666,919.314598
601.194409,7031.956449,7402.059420,766.095498
601.194729,8364.327145,8068.244768,0.000000
601.195050,5329.482782,5625.565159,153.219100
601.195370,3404.947333,3923.091493,-612.876398
601.195691,5551.544565,3034.844362,-2757.943793
601.196011,7328.038826,5033.400406,0.000000
601.196332,10658.965565,13249.686362,2911.162892
601.196652,9696.697840,15470.304188,1915.238745
601.196973,4737.318029,11917.315666,-1685.410096
601.197293,6439.791695,9474.636058,-2604.724693
601.197614,3552.988522,8216.285956,0.000000
601.197934,-888.247130,4071.132681,2374.896044
601.198255,5033.400406,3256.906145,3370.820191
601.198575,3478.967927,6957.935855,2911.162892
601.198896,74.020594,9178.553681,383.047749
601.199216,2886.803174,9474.636058,229.828649
601.199537,5329.482782,9992.780217,-2451.505594
601.199857,2590.720797,9770.718434,-1762.019645
601.200178,5921.647536,9474.636058,3370.820191
601.200498,9548.656652,9104.533087,2068.457845
601.200819,4737.318029,8438.347739,-306.438199
601.201139,2516.700203,7920.203579,689.485948
601.201460,7402.059420,8290.306550,-229.828649
601.201780,6587.832884,8290.306550,0.000000
601.202101,4959.379811,8512.368333,3140.991542
601.202421,5403.503377,10140.821405,3370.820191
601.202742,5551.544565,7920.203579,1532.190996
601.203062,3034.844362,4811.338623,0.000000
601.203383,3923.091493,3552.988522,-3140.991542
601.203703,5181.441594,2812.782580,-5745.716235
601.204024,4663.297435,4071.132681,-3140.991542
601.204344,5625.565159,8956.491898,-1532.190996
601.204665,8068.244768,13323.706956,153.219100
601.204985,6365.771101,11991.336260,995.924147
601.205306,7624.121203,10436.903782,-1225.752797
601.205626,5625.565159,10510.924376,-1838.629195
601.205947,2368.659014,7920.203579,842.705048
601.206267,4515.256246,4885.359217,3217.601092
601.206588,3849.070898,4515.256246,1302.362347
601.206908,962.267725,4737.318029,-1991.848295
601.207229,2886.803174,6291.750507,-4136.915689
601.207549,5181.441594,6957.935855,-6128.763984
601.207870,3256.906145,4959.379811,-4213.525239
601.208190,7328.038826,7476.080014,1762.019645
601.208511,11399.171507,12953.603985,3064.381992
601.208831,5921.647536,13841.851115,306.438199
601.209152,2590.720797,11325.150913,-689.485948
601.209472,8882.471304,11695.253884,-383.047749
601.209793,7994.224174,9400.615463,0.000000
601.210113,3701.029710,5699.585753,1149.143247
601.210434,7550.100608,7994.224174,1455.581446
601.210754,5255.462188,10658.965565,0.000000
601.211075,-518.144159,7698.141797,995.924147
601.211395,2516.700203,5477.523971,306.438199
601.211716,5477.523971,3775.050304,-766.095498
601.212036,2664.741391,5625.565159,229.828649
601.212357,4367.215058,9178.553681,76.609550
601.212677,6365.771101,12435.459826,-1072.533697
601.212998,4811.338623,12509.480420,612.876398
601.213318,9252.574275,14211.954086,1762.019645
601.213639,6661.853478,13989.892304,-1991.848295
601.213959,2072.576638,9918.759623,-4136.915689
601.214280,3182.885551,5329.482782,-1991.848295
601.214600,7550.100608,2812.782580,1225.752797
601.214921,4367.215058,2146.597232,4213.525239
601.215241,1480.411884,4515.256246,3600.648841
601.215562,4219.173869,9474.636058,-612.876398
601.215882,4219.173869,11843.295072,-2528.115143
601.216203,4441.235652,9326.594869,-612.876398
601.216523,6809.894666,5773.606348,-76.609550
601.216844,7772.162391,4145.153275,536.266849
601.217164,5033.400406,4663.297435,1915.238745
601.217485,4737.318029,7402.059420,-995.924147
601.217805,4885.359217,8290.306550,-3294.210641
601.218126,5551.544565,9178.553681,-1915.238745
601.218446,6217.729913,9252.574275,2298.286494
601.218767,6365.771101,9030.512492,4290.134789
601.219087,3034.844362,6439.791695,3524.039291
601.219408,3775.050304,4737.318029,-1225.752797
601.219728,3552.988522,4367.215058,-4519.963438
601.220049,2368.659014,4811.338623,-3140.991542
601.220369,4219.173869,6809.894666,-2145.067394
601.220690,6439.791695,8068.244768,-229.828649
601.221010,5033.400406,9178.553681,1991.848295
601.221331,7031.956449,10955.047942,3830.477490
601.221651,5181.441594,9770.718434,1608.800546
601.221972,2146.597232,6513.812290,-1532.190996
601.222292,4219.173869,6957.935855,-2145.067394
601.222613,5477.523971,6587.832884,-153.219100
601.222933,3923.091493,7254.018232,689.485948
601.223254,5181.441594,10732.986159,842.705048
601.223574,4663.297435,13619.789333,-2145.067394
601.223895,3256.906145,9918.759623,-4136.915689
601.224215,4219.173869,7105.977043,-3524.039291
601.224536,6217.729913,7105.977043,153.219100
601.224856,3997.112087,7550.100608,2911.162892
601.225177,5477.523971,10584.944971,3447.429741
601.225497,5403.503377,11695.253884,536.266849
601.225818,2960.823768,9622.677246,-1225.752797
601.226138,6291.750507,9992.780217,-1302.362347
601.226459,6957.935855,9696.697840,-842.705048
601.226779,2146.597232,8216.285956,229.828649
601.227100,2368.659014,5921.647536,689.485948
601.227420,5847.626942,7402.059420,-919.314598
601.227741,3478.967927,8586.388927,-1149.143247
601.228061,2146.597232,9178.553681,-383.047749
601.228382,6513.812290,9844.739029,-1608.800546
601.228702,5773.606348,8734.430116,-1991.848295
601.229023,5477.523971,9622.677246,306.438199
601.229343,7624.121203,9844.739029,76.609550
601.229664,4367.215058,8808.450710,-1991.848295
601.229984,4145.153275,8956.491898,-995.924147
601.230305,8512.368333,10140.821405,-842.705048
601.230625,5033.400406,5181.441594,-2451.505594
601.230946,2590.720797,2072.576638,-306.438199
601.231266,6143.709319,6661.853478,2681.334243
601.231587,5403.503377,9252.574275,1608.800546
601.231907,2960.823768,6217.729913,-2451.505594
601.232228,7031.956449,6069.688724,-4673.182538
601.232548,7698.141797,7698.141797,-2757.943793
601.232869,5255.462188,8364.327145,2528.115143
601.233189,6439.791695,8290.306550,3524.039291
601.233510,7698.141797,9030.512492,-919.314598
601.233830,6291.750507,11695.253884,-1455.581446
601.234151,5995.668130,9844.739029,-1149.143247
601.234471,6143.709319,8808.450710,-766.095498
601.234792,3849.070898,9326.594869,2681.334243
601.235112,2368.659014,7846.182985,3830.477490
601.235433,2812.782580,3552.988522,-1608.800546
601.235753,3627.009116,3404.947333,-3370.820191
601.236074,3330.926739,7105.977043,383.047749
601.236394,4737.318029,8216.285956,1762.019645
601.236715,4959.379811,8734.430116,1455.581446
601.237035,5255.462188,10214.842000,1838.629195
601.237356,5847.626942,10955.047942,2145.067394
601.237676,6587.832884,11917.315666,1072.533697
601.237997,4219.173869,8956.491898,0.000000
601.238317,2294.638420,7328.038826,-2221.676944
601.238638,5773.606348,6587.832884,-995.924147
601.238958,3923.091493,5107.421000,76.609550
601.239279,666.185348,5107.421000,1072.533697
601.239599,3182.885551,7105.977043,-306.438199
601.239920,2220.617826,7402.059420,-2528.115143
601.240240,1850.514855,5403.503377,-4749.792088
601.240561,6217.729913,7624.121203,-2604.724693
601.240881,8734.430116,12731.542202,2298.286494
601.241202,3182.885551,11769.274478,2374.896044
601.241522,5181.441594,10066.800811,-1532.190996
601.241843,6957.935855,11695.253884,-3294.210641
601.242163,4071.132681,9844.739029,-1225.752797
601.242484,3849.070898,3923.091493,1455.581446
601.242804,8734.430116,4737.318029,2298.286494
601.243125,4071.132681,6957.935855,3983.696590
601.243445,1850.514855,8586.388927,4213.525239
601.243766,3997.112087,7698.141797,1225.752797
601.244086,3404.947333,5625.565159,-1915.238745
601.244407,4885.359217,7105.977043,-1302.362347
601.244727,8808.450710,8364.327145,-2911.162892
601.245048,9104.533087,7772.162391,-4366.744339
601.245368,10807.006753,12287.418637,-153.219100
601.245689,10955.047942,15174.221811,2221.676944
601.246009,6439.791695,11843.295072,-1915.238745
601.246330,5625.565159,7698.141797,-2528.115143
601.246650,5625.565159,3775.050304,1149.143247
601.246971,6809.894666,2738.761985,5209.449386
601.247291,4737.318029,2738.761985,6052.154434
601.247612,1702.473667,5403.503377,-2451.505594
601.247932,2368.659014,7476.080014,-8656.879127
601.248253,4145.153275,9178.553681,-7431.126331
601.248573,3849.070898,9178.553681,-3447.429741
601.248894,7402.059420,11103.089130,459.657299
601.249214,6735.874072,11621.233289,995.924147
601.249535,2590.720797,10362.883188,153.219100
601.249855,1850.514855,11843.295072,0.000000
601.250176,1036.288319,9400.615463,306.438199
601.250496,1184.329507,4959.379811,306.438199
601.250817,5107.421000,3478.967927,2068.457845
601.251137,2516.700203,6365.771101,1838.629195
601.251458,444.123565,8068.244768,-1149.143247
601.251778,3330.926739,7698.141797,-3217.601092
601.252099,5995.668130,7402.059420,-4366.744339
601.252419,6439.791695,8364.327145,-3447.429741
601.252740,8142.265362,7920.203579,-1149.143247
601.253060,9400.615463,10436.903782,536.266849
601.253381,9622.677246,15914.427753,4903.011187
601.253701,7105.977043,15618.345376,4519.963438
601.254022,4959.379811,8216.285956,-1378.971896
601.254342,6291.750507,4367.215058,-4826.401637
601.254663,4293.194464,2072.576638,-1762.019645
601.254983,4145.153275,2368.659014,3217.601092
601.255304,4811.338623,4959.379811,3524.039291
601.255624,2960.823768,8512.368333,-1838.629195
601.255945,3775.050304,10362.883188,-3600.648841
601.256265,8512.368333,10732.986159,-689.485948
601.256586,8142.265362,12139.377449,459.657299
601.256906,5403.503377,11547.212695,2604.724693
601.257227,5699.585753,10362.883188,2911.162892
601.257547,5625.565159,8512.368333,383.047749
601.257868,2664.741391,7698.141797,229.828649
601.258188,1480.411884,6291.750507,-229.828649
601.258508,3034.844362,2516.700203,-2528.115143
601.258829,3997.112087,3552.988522,-1762.019645
601.259149,2072.576638,5847.626942,689.485948
601.259470,370.102971,7254.018232,1378.971896
601.259790,5699.585753,8956.491898,842.705048
601.260111,6957.935855,11399.171507,-1149.143247
601.260431,3256.906145,10658.965565,-4060.306139
601.260752,7402.059420,10807.006753,-2987.772442
601.261072,9178.553681,9548.656652,76.609550
601.261392,6365.771101,10362.883188,3524.039291
601.261713,5551.544565,11251.130318,3907.087040
601.262033,4293.194464,8364.327145,-1072.533697
601.262354,2368.659014,0.000000,-3294.210641
601.262674,4367.215058,222.061783,3524.039291
601.262995,6217.729913,6069.688724,8120.612279
601.263315,1702.473667,7994.224174,3064.381992
601.263636,2368.659014,8068.244768,-2911.162892
601.263956,9252.574275,8660.409521,-4213.525239
601.264276,8438.347739,8512.368333,-1838.629195
601.264597,8216.285956,9696.697840,153.219100
601.264917,9178.553681,10807.006753,-1225.752797
601.265238,5995.668130,12361.439231,-1302.362347
601.265558,6439.791695,10436.903782,1532.190996
601.265879,7254.018232,5847.626942,1991.848295
601.266199,4737.318029,148.041188,-995.924147
601.266520,3627.009116,666.185348,-306.438199
601.266840,4589.276840,8290.306550,1225.752797
601.267160,1554.432478,9918.759623,0.000000
601.267481,4071.132681,8216.285956,-919.314598
601.267801,8068.244768,7476.080014,-383.047749
601.268122,6291.750507,7698.141797,-2528.115143
601.268442,1406.391290,8364.327145,-3983.696590
601.268763,4219.173869,10510.924376,-3447.429741
601.269083,6883.915261,11695.253884,0.000000
601.269404,7031.956449,11325.150913,4596.572988
601.269724,5107.421000,10807.006753,4519.963438
601.270044,1184.329507,7698.141797,995.924147
601.270365,-2516.700203,3552.988522,-1149.143247
601.270685,2146.597232,5033.400406,2221.676944
601.271006,3404.947333,8808.450710,2145.067394
601.271326,1406.391290,9030.512492,-612.876398
601.271647,1628.453072,9326.594869,-3447.429741
601.271967,5181.441594,10066.800811,-4443.353888
601.272288,4219.173869,9474.636058,-2068.457845
601.272608,7105.977043,10955.047942,766.095498
601.272928,9474.636058,14508.036463,1608.800546
601.273249,5921.647536,14063.912898,2834.553343
601.273569,5107.421000,10436.903782,3217.601092
601.273890,7402.059420,4663.297435,1225.752797
601.274210,6883.915261,2590.720797,842.705048
601.274531,2960.823768,4441.235652,459.657299
601.274851,7254.018232,7994.224174,-2374.896044
601.275172,6143.709319,7994.224174,-3600.648841
601.275492,6291.750507,3775.050304,-612.876398
601.275812,9696.697840,2516.700203,1149.143247
601.276133,10214.842000,6143.709319,306.438199
601.276453,4737.318029,11177.109724,-2451.505594
601.276774,6957.935855,13693.809927,-3753.867940
601.277094,11843.295072,12287.418637,229.828649
601.277415,10436.903782,10362.883188,5439.278036
601.277735,6439.791695,8660.409521,4673.182538
601.278056,1184.329507,5403.503377,-3447.429741
601.278376,1036.288319,3627.009116,-5822.325785
601.278696,3182.885551,3849.070898,2068.457845
601.279017,2590.720797,4737.318029,6128.763984
601.279337,3034.844362,5921.647536,4673.182538
601.279658,2294.638420,8068.244768,1225.752797
601.279978,148.041188,8290.306550,-3600.648841
601.280299,370.102971,6513.812290,-4060.306139
601.280619,7179.997637,8068.244768,-306.438199
601.280940,7846.182985,10807.006753,1915.238745
601.281260,4737.318029,12287.418637,459.657299
601.281581,4515.256246,11843.295072,-1991.848295
601.281901,2960.823768,9326.594869,-5132.839837
601.282221,4071.132681,4811.338623,-1072.533697
601.282542,5699.585753,2886.803174,4596.572988
601.282862,5477.523971,5847.626942,3294.210641
601.283183,3552.988522,10066.800811,-536.266849
601.283503,1702.473667,10510.924376,-3064.381992
601.283824,5625.565159,4811.338623,-2451.505594
601.284144,6513.812290,1924.535449,-919.314598
601.284465,5773.606348,4515.256246,-689.485948
601.284785,7550.100608,11251.130318,-2145.067394
601.285105,8290.306550,15396.283594,-919.314598
601.285426,6439.791695,13989.892304,919.314598
601.285746,7254.018232,10140.821405,1991.848295
601.286067,6365.771101,6439.791695,1225.752797
601.286387,5551.544565,6513.812290,2068.457845
601.286708,5255.462188,8808.450710,3064.381992
601.287028,3923.091493,7846.182985,612.876398
601.287349,4663.297435,6735.874072,-1532.190996
601.287669,4145.153275,5995.668130,-995.924147
601.287989,2664.741391,5329.482782,-1225.752797
601.288310,4145.153275,6587.832884,-612.876398
601.288630,7031.956449,8882.471304,-612.876398
601.288951,6291.750507,11473.192101,-1762.019645
601.289271,4737.318029,10732.986159,-1149.143247
601.289592,4959.379811,9918.759623,76.609550
601.289912,6439.791695,10140.821405,-229.828649
601.290233,2738.761985,8216.285956,-2911.162892
601.290553,3849.070898,5847.626942,-4826.401637
601.290873,6587.832884,7179.997637,-2298.286494
601.291194,1628.453072,7994.224174,1991.848295
601.291514,1110.308913,8290.306550,919.314598
601.291835,4515.256246,8586.388927,-1991.848295
601.292155,4071.132681,8734.430116,-3677.258390
601.292476,3478.967927,7402.059420,-1991.848295
601.292796,6439.791695,7105.977043,1072.533697
601.293117,4811.338623,8438.347739,1991.848295
601.293437,4737.318029,9770.718434,2451.505594
601.293757,6439.791695,8734.430116,-1532.190996
601.294078,5921.647536,6735.874072,-4979.620737
601.294398,6143.709319,7476.080014,-1378.971896
601.294719,7328.038826,9104.533087,2681.334243
601.295039,5551.544565,8808.450710,2757.943793
601.295360,5403.503377,9622.677246,2374.896044
601.295680,4737.318029,9474.636058,-689.485948
601.296001,4071.132681,5181.441594,-3217.601092
601.296321,6291.750507,4293.194464,-1685.410096
601.296641,7105.977043,7476.080014,-1072.533697
601.296962,5033.400406,10288.862594,-689.485948
601.297282,4737.318029,11029.068536,1072.533697
601.297603,8586.388927,11695.253884,2528.115143
601.297923,6735.874072,10881.027347,1608.800546
601.298244,1406.391290,7772.162391,-76.609550
601.298564,1480.411884,6735.874072,-2681.334243
601.298885,4219.173869,6661.853478,153.219100
601.299205,2220.617826,5773.606348,3753.867940
601.299525,2294.638420,6513.812290,0.000000
601.299846,4219.173869,9400.615463,-3983.696590
601.300166,0.000000,9844.739029,-4366.744339
601.300487,1850.514855,7328.038826,-2221.676944
601.300807,5921.647536,5921.647536,-536.266849
601.301128,7698.141797,7105.977043,0.000000
601.301448,6217.729913,9696.697840,842.705048
601.301769,5699.585753,11399.171507,-383.047749
601.302089,4367.215058,11473.192101,-2757.943793
601.302409,6069.688724,8882.471304,-1225.752797
601.302730,6143.709319,1924.535449,-995.924147
601.303050,5329.482782,-740.205942,-383.047749
601.303371,3997.112087,3034.844362,1762.019645
601.303691,1258.350101,6291.750507,-2298.286494
601.304012,2294.638420,4959.379811,-6818.249932
601.304332,5255.462188,3627.009116,-6588.421283
601.304653,7031.956449,7328.038826,-4826.401637
601.304973,5107.421000,9770.718434,-2451.505594
601.305293,6365.771101,11621.233289,-1915.238745
601.305614,7328.038826,13471.748144,-2987.772442
601.305934,6069.688724,10658.965565,-4826.401637
601.306255,3701.029710,6587.832884,-5592.497135
601.306575,4367.215058,5329.482782,-5439.278036
601.306896,3404.947333,6069.688724,-2374.896044
601.307216,3330.926739,5995.668130,1225.752797
601.307537,4515.256246,7328.038826,-995.924147
601.307857,4663.297435,10436.903782,-4979.620737
601.308177,3775.050304,12509.480420,-3524.039291
601.308498,4663.297435,9326.594869,-2528.115143
601.308818,4737.318029,5773.606348,-3753.867940
601.309139,4885.359217,5921.647536,-4749.792088
601.309459,5699.585753,8512.368333,-3064.381992
601.309780,8660.409521,14211.954086,-3294.210641
601.310100,7328.038826,17542.880825,-4290.134789
601.310421,4219.173869,14508.036463,-5132.839837
601.310741,5995.668130,9474.636058,-4519.963438
601.311061,5699.585753,4145.153275,-1072.533697
601.311382,4219.173869,3923.091493,2528.115143
601.311702,2886.803174,8068.244768,689.485948
601.312023,4663.297435,9770.718434,-5745.716235
601.312343,4737.318029,8586.388927,-10495.508323
601.312664,4367.215058,5847.626942,-9116.536426
601.312984,9104.533087,8142.265362,-6052.154434
601.313305,7402.059420,9252.574275,-3677.258390
601.313625,5773.606348,9622.677246,-3907.087040
601.313946,8438.347739,10732.986159,-5362.668486
601.314266,7402.059420,10288.862594,-5669.106685
601.314586,4959.379811,7698.141797,-5209.449386
601.314907,6809.894666,7254.018232,-4673.182538
601.315227,6217.729913,7550.100608,-2911.162892
601.315548,740.205942,5329.482782,-4749.792088
601.315868,2072.576638,3923.091493,-7737.564530
601.316189,3478.967927,5477.523971,-7584.345430
601.316509,4071.132681,6513.812290,-5209.449386
601.316830,2220.617826,6069.688724,-4673.182538
601.317150,3182.885551,5773.606348,-7584.345430
601.317470,5625.565159,9400.615463,-6128.763984
601.317791,7550.100608,14137.933492,-1378.971896
601.318111,5329.482782,11029.068536,-2604.724693
601.318432,3182.885551,5847.626942,-5745.716235
601.318752,4959.379811,4071.132681,-4060.306139
601.319073,4515.256246,2738.761985,-2604.724693
601.319393,1332.370696,2368.659014,-4903.011187
601.319714,2886.803174,4663.297435,-8580.269578
601.320034,5329.482782,7920.203579,-9882.631924
601.320354,7179.997637,9844.739029,-7507.735880
601.320675,8586.388927,9178.553681,-7124.688131
601.320995,7328.038826,8142.265362,-7507.735880
601.321316,6957.935855,9992.780217,-5056.230287
601.321636,5329.482782,10955.047942,-4060.306139
601.321957,5181.441594,8808.450710,-4903.011187
601.322277,5921.647536,7105.977043,-5132.839837
601.322598,7179.997637,8586.388927,-5515.887586
601.322918,4219.173869,9178.553681,-4903.011187
601.323238,1332.370696,9104.533087,-3830.477490
601.323559,1702.473667,9030.512492,-4673.182538
601.323879,2590.720797,7920.203579,-5362.668486
601.324200,2516.700203,7031.956449,-4903.011187
601.324520,3182.885551,7624.121203,-4519.963438
601.324841,3108.864956,9252.574275,-4673.182538
601.325161,4959.379811,10732.986159,-5898.935335
601.325482,3627.009116,9844.739029,-7048.078582
601.325802,5033.400406,10955.047942,-6741.640382
601.326122,6217.729913,10584.944971,-5515.887586
601.326443,5625.565159,9918.759623,-7124.688131
601.326763,7105.977043,9104.533087,-7277.907231
601.327084,7328.038826,9770.718434,-5669.106685
601.327404,3997.112087,8290.306550,-4366.744339
601.327725,5181.441594,7105.977043,-3370.820191
601.328045,6365.771101,6587.832884,-4290.134789
601.328366,4663.297435,4737.318029,-5056.230287
601.328686,5033.400406,4367.215058,-5515.887586
601.329006,6957.935855,6069.688724,-4903.011187
601.329327,7328.038826,9474.636058,-2681.334243
601.329647,6513.812290,10066.800811,-3447.429741
601.329968,6291.750507,8512.368333,-7890.783629
601.330288,6957.935855,8586.388927,-8044.002729
601.330609,6143.709319,8290.306550,-5515.887586
601.330929,4219.173869,7105.977043,-5056.230287
601.331250,5625.565159,7624.121203,-5822.325785
601.331570,4367.215058,9622.677246,-5822.325785
601.331890,4441.235652,10807.006753,-4903.011187
601.332211,3775.050304,10066.800811,-3983.696590
601.332531,3330.926739,8586.388927,-3830.477490
601.332852,3997.112087,6735.874072,-3217.601092
601.333172,3034.844362,4959.379811,-2987.772442
601.333493,2738.761985,3923.091493,-3677.258390
601.333813,5107.421000,6143.709319,-2068.457845
601.334134,7031.956449,10362.883188,-2068.457845
601.334454,4663.297435,11103.089130,-4213.525239
601.334774,3552.988522,9326.594869,-4136.915689
601.335095,6143.709319,7254.018232,-2757.943793
601.335415,5551.544565,6439.791695,-1532.190996
601.335736,3701.029710,4885.359217,-3370.820191
601.336056,2664.741391,3701.029710,-8044.002729
601.336377,4589.276840,5329.482782,-9652.803275
601.336697,6365.771101,8660.409521,-7201.297681
601.337018,6661.853478,10066.800811,-5515.887586
601.337338,6217.729913,9548.656652,-6665.030833
601.337658,5181.441594,7846.182985,-6281.983084
601.337979,5107.421000,6587.832884,-5209.449386
601.338299,4367.215058,3849.070898,-4290.134789
601.338620,5181.441594,3627.009116,-5439.278036
601.338940,4071.132681,4959.379811,-7431.126331
601.339261,4071.132681,7846.182985,-7277.907231
601.339581,5403.503377,9474.636058,-5439.278036
601.339902,5921.647536,8956.491898,-4903.011187
601.340222,5847.626942,8142.265362,-5592.497135
601.340542,5699.585753,9770.718434,-6435.202183
601.340863,3849.070898,9844.739029,-4290.134789
601.341183,2516.700203,8290.306550,-2834.553343
601.341504,4367.215058,7772.162391,-2604.724693
601.341824,4589.276840,8142.265362,-4366.744339
601.342145,2072.576638,7402.059420,-7277.907231
601.342465,3034.844362,7846.182985,-7890.783629
601.342786,4589.276840,9326.594869,-7277.907231
601.343106,6069.688724,8956.491898,-5209.449386
601.343427,4737.318029,7031.956449,-4903.011187
601.343747,5181.441594,6291.750507,-6052.154434
601.344067,5995.668130,9252.574275,-5898.935335
601.344388,8364.327145,11621.233289,-4519.963438
601.344708,9030.512492,11769.274478,-7354.516781
601.345029,8808.450710,9992.780217,-8886.707777
601.345349,7772.162391,10584.944971,-7354.516781
601.345670,7105.977043,9918.759623,-4366.744339
601.345990,5255.462188,7550.100608,-3140.991542
601.346311,5033.400406,6957.935855,-4903.011187
601.346631,4737.318029,7328.038826,-7354.516781
601.346951,3997.112087,7105.977043,-8120.612279
601.347272,3478.967927,7031.956449,-6435.202183
601.347592,5107.421000,8142.265362,-3830.477490
601.347913,5477.523971,9992.780217,-3753.867940
601.348233,4737.318029,11177.109724,-6511.811733
601.348554,2812.782580,9992.780217,-9116.536426
601.348874,3775.050304,9918.759623,-7507.735880
601.349195,5403.503377,9844.739029,-3524.039291
601.349515,4663.297435,8956.491898,-2987.772442
601.349835,4071.132681,7772.162391,-4903.011187
601.350156,2886.803174,7105.977043,-6894.859482
601.350476,2590.720797,6439.791695,-6741.640382
601.350797,3552.988522,4737.318029,-6205.373534
601.351117,5329.482782,3775.050304,-5286.058936
601.351438,6661.853478,5329.482782,-4903.011187
601.351758,7550.100608,7476.080014,-5286.058936
601.352079,7105.977043,9252.574275,-5132.839837
601.352399,6143.709319,8290.306550,-5669.106685
601.352719,6439.791695,5625.565159,-6281.983084
601.353040,7328.038826,6587.832884,-6818.249932
601.353360,5921.647536,7254.018232,-7277.907231
601.353681,5181.441594,7179.997637,-8656.879127
601.354001,7550.100608,7920.203579,-7048.078582
601.354322,6217.729913,8216.285956,-4290.134789
601.354642,3552.988522,7698.141797,-3983.696590
601.354963,3404.947333,8290.306550,-5515.887586
601.355283,3775.050304,8882.471304,-5592.497135
601.355603,2886.803174,7254.018232,-2757.943793
601.355924,5773.606348,5995.668130,-1532.190996
601.356244,4071.132681,5255.462188,-4749.792088
601.356565,2146.597232,6883.915261,-6128.763984
601.356885,3552.988522,10955.047942,-6052.154434
601.357206,4367.215058,11769.274478,-6128.763984
601.357526,4441.235652,9992.780217,-4290.134789
601.357847,6365.771101,8882.471304,-1915.238745
601.358167,5329.482782,8142.265362,-2221.676944
601.358487,3478.967927,7550.100608,-2681.334243
601.358808,4071.132681,7624.121203,-3907.087040
601.359128,4737.318029,6809.894666,-6665.030833
601.359449,5995.668130,6217.729913,-5975.544884
601.359769,7698.141797,8142.265362,-4673.182538
601.360090,7254.018232,9474.636058,-5056.230287
601.360410,5329.482782,8660.409521,-4596.572988
601.360731,6587.832884,7105.977043,-5209.449386
601.361051,7846.182985,6217.729913,-6435.202183
601.361372,6957.935855,7846.182985,-5209.449386
601.361692,6217.729913,10510.924376,-4213.525239
601.362013,5551.544565,10732.986159,-4596.572988
601.362333,4885.359217,8808.450710,-4519.963438
601.362654,6069.688724,7476.080014,-4596.572988
601.362974,4589.276840,6439.791695,-4443.353888
601.363294,2442.679609,6809.894666,-5439.278036
601.363615,2812.782580,7994.224174,-5362.668486
601.363935,2294.638420,7254.018232,-5822.325785
601.364256,3849.070898,6809.894666,-4366.744339
601.364576,6143.709319,8512.368333,-2221.676944
601.364897,4515.256246,10807.006753,-3370.820191
601.365217,1998.556043,10807.006753,-5898.935335
601.365538,3034.844362,8882.471304,-6665.030833
601.365858,4515.256246,7254.018232,-4903.011187
601.366179,4737.318029,7105.977043,-1225.752797
601.366499,4885.359217,7105.977043,-1685.410096
601.366820,2812.782580,7328.038826,-6818.249932
601.367140,2886.803174,7254.018232,-8580.269578
601.367460,5107.421000,7105.977043,-5515.887586
601.367781,5995.668130,5699.585753,-3677.258390
601.368101,5847.626942,4367.215058,-4519.963438
601.368422,6365.771101,6439.791695,-6358.592633
601.368742,6439.791695,9030.512492,-7584.345430
601.369063,6809.894666,9474.636058,-6511.811733
601.369383,8364.327145,9326.594869,-5132.839837
601.369704,8734.430116,8586.388927,-5286.058936
601.370024,6217.729913,7402.059420,-5286.058936
601.370345,4959.379811,6143.709319,-5286.058936
601.370665,4959.379811,5921.647536,-6511.811733
601.370986,5181.441594,6513.812290,-6741.640382
601.371306,4737.318029,7698.141797,-6665.030833
601.371626,4959.379811,8364.327145,-6818.249932
601.371947,4959.379811,9400.615463,-4443.353888
601.372267,4219.173869,9474.636058,-2374.896044
601.372588,3478.967927,7994.224174,-3294.210641
601.372908,3552.988522,7624.121203,-5286.058936
601.373229,3997.112087,8882.471304,-6511.811733
601.373549,4219.173869,10066.800811,-6511.811733
601.373870,5255.462188,10584.944971,-5669.106685
601.374190,4959.379811,11177.109724,-4290.134789
601.374511,3849.070898,10658.965565,-3907.087040
601.374831,3108.864956,9252.574275,-3983.696590
601.375152,2960.823768,7624.121203,-4903.011187
601.375472,2886.803174,5773.606348,-5515.887586
601.375793,3997.112087,5329.482782,-5592.497135
601.376113,5477.523971,7105.977043,-5439.278036
601.376433,5477.523971,9030.512492,-4826.401637
601.376754,6291.750507,10066.800811,-6358.592633
601.377074,6957.935855,9992.780217,-7048.078582
601.377395,6735.874072,8808.450710,-6894.859482
601.377715,6439.791695,7624.121203,-4749.792088
601.378036,6809.894666,6661.853478,-4366.744339
601.378356,6143.709319,6513.812290,-4979.620737
601.378677,5625.565159,8290.306550,-5515.887586
601.378997,6069.688724,9548.656652,-4903.011187
601.379318,5551.544565,9696.697840,-5745.716235
601.379638,4589.276840,8586.388927,-4903.011187
601.379959,4441.235652,7624.121203,-4060.306139
601.380279,3701.029710,6069.688724,-3677.258390
601.380599,3775.050304,5181.441594,-3370.820191
601.380920,4219.173869,6513.812290,-3983.696590
601.381240,4145.153275,7772.162391,-5439.278036
601.381561,4589.276840,9030.512492,-5975.544884
601.381881,6143.709319,10732.986159,-5745.716235
601.382202,7105.977043,11325.150913,-4060.306139
601.382522,7105.977043,10510.924376,-2757.943793
601.382843,5477.523971,8142.265362,-3064.381992
601.383163,4737.318029,6143.709319,-3600.648841
601.383484,4663.297435,4811.338623,-3677.258390
601.383804,4737.318029,4737.318029,-3294.210641
601.384125,3997.112087,5329.482782,-4519.963438
601.384445,4515.256246,6439.791695,-5515.887586
601.384765,5477.523971,8364.327145,-5898.935335
601.385086,6365.771101,9178.553681,-4903.011187
601.385406,5995.668130,9844.739029,-3753.867940
601.385727,5403.503377,9104.533087,-3217.601092
601.386047,5329.482782,8956.491898,-3600.648841
601.386368,4811.338623,9474.636058,-2451.505594
601.386688,4293.194464,10066.800811,-995.924147
601.387009,4293.194464,8956.491898,-2987.772442
601.387329,2960.823768,7105.977043,-3907.087040
601.387650,2072.576638,5181.441594,-4903.011187
601.387970,2368.659014,4293.194464,-4673.182538
601.388291,2960.823768,4737.318029,-3753.867940
601.388611,3404.947333,5551.544565,-4903.011187
601.388932,4441.235652,7105.977043,-5745.716235
601.389252,5403.503377,8882.471304,-5515.887586
601.389572,6735.874072,10584.944971,-4596.572988
601.389893,7105.977043,11621.233289,-3600.648841
601.390213,5847.626942,11547.212695,-4366.744339
601.390534,5181.441594,10288.862594,-5669.106685
601.390854,4959.379811,8808.450710,-4749.792088
601.391175,4737.318029,7031.956449,-3524.039291
601.391495,2960.823768,5107.421000,-3294.210641
601.391816,3108.864956,3478.967927,-4903.011187
601.392136,1924.535449,3034.844362,-5669.106685
601.392457,2442.679609,3256.906145,-4979.620737
601.392777,4515.256246,4515.256246,-3907.087040
601.393098,6735.874072,7031.956449,-4596.572988
601.393418,7328.038826,10732.986159,-5592.497135
601.393738,6957.935855,12879.583391,-7431.126331
601.394059,7328.038826,12583.501014,-8350.440928
601.394379,7698.141797,11399.171507,-7507.735880
601.394700,6217.729913,9252.574275,-7354.516781
601.395020,5033.400406,6291.750507,-6894.859482
601.395341,5847.626942,6957.935855,-5209.449386
601.395661,4145.153275,8808.450710,-3370.820191
601.395982,2590.720797,10436.903782,-3447.429741
601.396302,3627.009116,9252.574275,-4060.306139
601.396623,4367.215058,8512.368333,-3217.601092
601.396943,2516.700203,7105.977043,-2604.724693
601.397264,3701.029710,5477.523971,-2604.724693
601.397584,5255.462188,6513.812290,-4596.572988
601.397905,5255.462188,8660.409521,-6818.249932
601.398225,4737.318029,10288.862594,-6741.640382
601.398545,7105.977043,10658.965565,-7507.735880
601.398866,7476.080014,10510.924376,-6741.640382
601.399186,7031.956449,10881.027347,-3830.477490
601.399507,7550.100608,11029.068536,-2221.676944
601.399827,7402.059420,10807.006753,-3447.429741
601.400148,5699.585753,9104.533087,-4903.011187
601.400468,5477.523971,6365.771101,-5286.058936
601.400789,7328.038826,3849.070898,-6052.154434
601.401109,7328.038826,2886.803174,-5209.449386
601.401430,7698.141797,4293.194464,-3217.601092
601.401750,8142.265362,6365.771101,-2834.553343
601.402071,8438.347739,8142.265362,-2987.772442
601.402391,7920.203579,7994.224174,-2298.286494
601.402711,8512.368333,8438.347739,-2145.067394
601.403032,7624.121203,8364.327145,-2374.896044
601.403352,6883.915261,8216.285956,-2987.772442
601.403673,6661.853478,7254.018232,-3983.696590
601.403993,6069.688724,7105.977043,-4596.572988
601.404314,5181.441594,6513.812290,-4979.620737
