#time,accel_x,accel_y,accel_z
182.140810,4885.359217,7994.224174,0.000000
182.141130,4959.379811,7994.224174,-689.485948
182.141451,4811.338623,7994.224174,-229.828649
182.141772,5033.400406,7846.182985,0.000000
182.142093,5107.421000,7772.162391,0.000000
182.142413,4959.379811,7920.203579,76.609550
182.142734,5107.421000,8216.285956,0.000000
182.143055,5107.421000,7698.141797,-76.609550
182.143375,5181.441594,7994.224174,-153.219100
182.143696,5033.400406,8216.285956,0.000000
182.144017,4811.338623,8142.265362,153.219100
182.144337,4959.379811,7920.203579,0.000000
182.144658,5181.441594,7994.224174,0.000000
182.144979,5033.400406,8142.265362,0.000000
182.145300,5033.400406,8142.265362,0.000000
182.145620,4959.379811,8068.244768,0.000000
182.145941,5033.400406,8068.244768,-76.609550
182.146262,4959.379811,8142.265362,-383.047749
182.146582,4959.379811,8142.265362,-229.828649
182.146903,4885.359217,8290.306550,0.000000
182.147224,5403.503377,7994.224174,-153.219100
182.147544,5255.462188,7920.203579,-383.047749
182.147865,5033.400406,8142.265362,-229.828649
182.148186,5033.400406,8142.265362,-536.266849
182.148507,5033.400406,8216.285956,-383.047749
182.148827,5033.400406,8290.306550,-306.438199
182.149148,4737.318029,8216.285956,0.000000
182.149469,4885.359217,7624.121203,-229.828649
182.149789,4515.256246,7328.038826,-306.438199
182.150110,4145.153275,7476.080014,0.000000
182.150431,4515.256246,8586.388927,-229.828649
182.150751,4663.297435,9696.697840,-919.314598
182.151072,4811.338623,9696.697840,-1225.752797
182.151393,4811.338623,9548.656652,-1225.752797
182.151714,4293.194464,9400.615463,-536.266849
182.152034,3478.967927,8586.388927,383.047749
182.152355,3034.844362,8586.388927,1225.752797
182.152676,2886.803174,9104.533087,612.876398
182.152996,2590.720797,8956.491898,-153.219100
182.153317,2886.803174,8364.327145,-995.924147
182.153638,3108.864956,8586.388927,-306.438199
182.153958,3330.926739,9178.553681,76.609550
182.154279,2664.741391,9326.594869,306.438199
182.154600,2516.700203,8882.471304,153.219100
182.154921,2442.679609,9030.512492,0.000000
182.155241,1850.514855,10066.800811,-612.876398
182.155562,1702.473667,11029.068536,-1149.143247
182.155883,1702.473667,12065.356855,-1149.143247
182.156203,1258.350101,12139.377449,-919.314598
182.156524,814.226536,11473.192101,-995.924147
182.156845,-740.205942,11103.089130,-1838.629195
182.157165,-1406.391290,11473.192101,-1302.362347
182.157486,-1924.535449,12287.418637,-153.219100
182.157807,-1776.494261,12657.521608,766.095498
182.158128,-1258.350101,12139.377449,766.095498
182.158448,-1554.432478,12361.439231,919.314598
182.158769,-1850.514855,12879.583391,1838.629195
182.159090,-1998.556043,12435.459826,1838.629195
182.159410,-2812.782580,11399.171507,153.219100
182.159731,-1480.411884,10288.862594,-229.828649
182.160052,-1332.370696,9918.759623,0.000000
182.160372,-962.267725,9622.677246,766.095498
182.160693,0.000000,10288.862594,459.657299
182.161014,740.205942,11029.068536,-306.438199
182.161335,1110.308913,11473.192101,-1532.190996
182.161655,1702.473667,10658.965565,-1685.410096
182.161976,2368.659014,10732.986159,-612.876398
182.162297,3552.988522,10955.047942,229.828649
182.162617,3330.926739,10288.862594,-153.219100
182.162938,2664.741391,9400.615463,-1762.019645
182.163259,1628.453072,8956.491898,-1838.629195
182.163579,1776.494261,9844.739029,-1149.143247
182.163900,1850.514855,9918.759623,-383.047749
182.164221,1924.535449,10288.862594,306.438199
182.164542,1406.391290,10955.047942,-689.485948
182.164862,814.226536,11251.130318,306.438199
182.165183,0.000000,10955.047942,919.314598
182.165504,-444.123565,10362.883188,995.924147
182.165824,-296.082377,9770.718434,612.876398
182.166145,0.000000,9696.697840,689.485948
182.166466,-444.123565,10362.883188,536.266849
182.166786,0.000000,10955.047942,1302.362347
182.167107,666.185348,11547.212695,1532.190996
182.167428,1258.350101,11843.295072,1455.581446
182.167749,1036.288319,11251.130318,306.438199
182.168069,1110.308913,10955.047942,-689.485948
182.168390,1480.411884,10436.903782,-689.485948
182.168711,2220.617826,9548.656652,-306.438199
182.169031,1850.514855,8808.450710,-536.266849
182.169352,2220.617826,8290.306550,-229.828649
182.169673,2294.638420,8364.327145,-306.438199
182.169993,2516.700203,9844.739029,-383.047749
182.170314,2664.741391,11029.068536,-459.657299
182.170635,3478.967927,11547.212695,-842.705048
182.170956,3552.988522,10732.986159,-1072.533697
182.171276,3182.885551,9696.697840,-995.924147
182.171597,2516.700203,8882.471304,-383.047749
182.171918,2590.720797,9696.697840,-229.828649
182.172238,1332.370696,10881.027347,-1225.752797
182.172559,592.164754,11103.089130,-229.828649
182.172880,814.226536,11621.233289,-842.705048
182.173200,666.185348,11325.150913,-995.924147
182.173521,-666.185348,10510.924376,-1302.362347
182.173842,-1554.432478,9178.553681,-1072.533697
182.174163,-1480.411884,8438.347739,-76.609550
182.174483,-1554.432478,8956.491898,842.705048
182.174804,-962.267725,10584.944971,1608.800546
182.175125,0.000000,12805.562797,1225.752797
182.175445,0.000000,14656.077652,689.485948
182.175766,740.205942,14878.139434,383.047749
182.176087,1332.370696,12805.562797,-229.828649
182.176407,1036.288319,10066.800811,-229.828649
182.176728,666.185348,9252.574275,383.047749
182.177049,-518.144159,9474.636058,-383.047749
182.177370,-1258.350101,9622.677246,-1685.410096
182.177690,-1628.453072,9770.718434,-2451.505594
182.178011,-1110.308913,10436.903782,-1532.190996
182.178332,-222.061783,11325.150913,-383.047749
182.178652,444.123565,12583.501014,459.657299
182.178973,740.205942,13619.789333,-76.609550
182.179294,296.082377,14063.912898,-766.095498
182.179614,444.123565,14285.974681,-383.047749
182.179935,1184.329507,13101.645173,0.000000
182.180256,814.226536,10436.903782,0.000000
182.180577,1554.432478,7994.224174,-153.219100
182.180897,1702.473667,7328.038826,-306.438199
182.181218,370.102971,8882.471304,459.657299
182.181539,296.082377,9918.759623,1225.752797
182.181859,592.164754,10510.924376,1072.533697
182.182180,888.247130,9918.759623,383.047749
182.182501,1406.391290,8808.450710,76.609550
182.182821,1850.514855,9178.553681,153.219100
182.183142,1776.494261,11473.192101,-306.438199
182.183463,296.082377,13101.645173,-995.924147
182.183784,0.000000,13027.624579,-2451.505594
182.184104,444.123565,12953.603985,-2528.115143
182.184425,148.041188,12509.480420,-689.485948
182.184746,444.123565,12139.377449,383.047749
182.185066,888.247130,11177.109724,459.657299
182.185387,592.164754,10732.986159,612.876398
182.185708,-814.226536,10140.821405,1532.190996
182.186028,-962.267725,9104.533087,1378.971896
182.186349,-962.267725,8216.285956,1225.752797
182.186670,-740.205942,8290.306550,1685.410096
182.186991,-222.061783,8290.306550,612.876398
182.187311,740.205942,9400.615463,-689.485948
182.187632,1702.473667,11917.315666,-995.924147
182.187953,2516.700203,14211.954086,-1225.752797
182.188273,2072.576638,13693.809927,-1608.800546
182.188594,1406.391290,10140.821405,-1685.410096
182.188915,1776.494261,7105.977043,-689.485948
182.189235,3330.926739,7846.182985,1532.190996
182.189556,1480.411884,9918.759623,1302.362347
182.189877,518.144159,11251.130318,-1072.533697
182.190198,1480.411884,12435.459826,-2298.286494
182.190518,2368.659014,11547.212695,-2528.115143
182.190839,296.082377,8290.306550,-1455.581446
182.191160,370.102971,6661.853478,-1072.533697
182.191480,0.000000,9178.553681,-689.485948
182.191801,-1110.308913,12361.439231,0.000000
182.192122,-814.226536,13915.871710,689.485948
182.192442,-740.205942,14063.912898,536.266849
182.192763,-518.144159,14952.160028,459.657299
182.193084,-592.164754,14878.139434,1149.143247
182.193405,-1554.432478,12361.439231,995.924147
182.193725,-1554.432478,10584.944971,-306.438199
182.194046,-592.164754,9770.718434,76.609550
182.194367,-296.082377,8734.430116,689.485948
182.194687,-1480.411884,8438.347739,1302.362347
182.195008,-1332.370696,9252.574275,1455.581446
182.195329,74.020594,9992.780217,1225.752797
182.195649,1850.514855,10214.842000,1915.238745
182.195970,3775.050304,11103.089130,383.047749
182.196291,4885.359217,12435.459826,-1149.143247
182.196612,4441.235652,12583.501014,-2451.505594
182.196932,3330.926739,11103.089130,-3677.258390
182.197253,1850.514855,8882.471304,-3294.210641
182.197574,1184.329507,7105.977043,-1608.800546
182.197894,2738.761985,9178.553681,612.876398
182.198215,1776.494261,11547.212695,2145.067394
182.198536,1036.288319,13767.830521,-689.485948
182.198856,666.185348,13249.686362,-2834.553343
182.199177,-740.205942,10955.047942,-1838.629195
182.199498,-2220.617826,9622.677246,459.657299
182.199819,-1406.391290,9844.739029,2681.334243
182.200140,-1406.391290,10362.883188,842.705048
182.200461,-1184.329507,12509.480420,-842.705048
182.200781,-2368.659014,13545.768739,-459.657299
182.201102,-2886.803174,12805.562797,153.219100
182.201423,-1924.535449,11695.253884,1685.410096
182.201744,0.000000,10288.862594,3907.087040
182.202065,1480.411884,10881.027347,3140.991542
182.202386,-1258.350101,10510.924376,612.876398
182.202707,-962.267725,10436.903782,-1685.410096
182.203028,296.082377,9178.553681,-153.219100
182.203349,2294.638420,8586.388927,1838.629195
182.203669,3330.926739,6143.709319,1455.581446
182.203990,4811.338623,7328.038826,-306.438199
182.204311,4441.235652,11177.109724,-2221.676944
182.204632,2590.720797,12879.583391,-1915.238745
182.204953,4441.235652,11251.130318,-1991.848295
182.205274,6587.832884,9548.656652,-1991.848295
182.205595,4441.235652,8586.388927,-1608.800546
182.205916,2072.576638,6809.894666,-1608.800546
182.206237,1702.473667,7846.182985,-1991.848295
182.206558,518.144159,11547.212695,-1149.143247
182.206878,0.000000,13397.727550,-995.924147
182.207199,814.226536,11843.295072,-2451.505594
182.207520,1110.308913,10584.944971,-1838.629195
182.207841,-1110.308913,11325.150913,1608.800546
182.208162,-2590.720797,12657.521608,3907.087040
182.208483,-2886.803174,12583.501014,1991.848295
182.208804,-2886.803174,13249.686362,229.828649
182.209125,-3404.947333,12065.356855,229.828649
182.209446,-2146.597232,11251.130318,536.266849
182.209766,-962.267725,11103.089130,1838.629195
182.210087,-1850.514855,12953.603985,2451.505594
182.210408,-2664.741391,13323.706956,1072.533697
182.210729,-592.164754,12065.356855,-306.438199
182.211050,1776.494261,11695.253884,766.095498
182.211371,888.247130,10288.862594,1685.410096
182.211692,1998.556043,9104.533087,306.438199
182.212013,3182.885551,9178.553681,0.000000
182.212334,2960.823768,8142.265362,-1378.971896
182.212655,5551.544565,7550.100608,-995.924147
182.212975,7254.018232,8290.306550,-766.095498
182.213296,4663.297435,9400.615463,-2068.457845
182.213617,3701.029710,9326.594869,-2145.067394
182.213938,5403.503377,10288.862594,-2221.676944
182.214259,5995.668130,10066.800811,-2451.505594
182.214580,3775.050304,10066.800811,-2298.286494
182.214901,2960.823768,10881.027347,-3294.210641
182.215222,444.123565,11843.295072,-2834.553343
182.215543,-370.102971,11991.336260,-1225.752797
182.215863,-222.061783,9696.697840,383.047749
182.216184,-592.164754,8882.471304,1378.971896
182.216505,-296.082377,11695.253884,3600.648841
182.216826,-444.123565,12879.583391,3830.477490
182.217147,-2812.782580,10955.047942,1072.533697
182.217468,-814.226536,8364.327145,1685.410096
182.217789,2220.617826,9178.553681,4519.963438
182.218110,74.020594,10066.800811,4060.306139
182.218431,0.000000,9992.780217,1685.410096
182.218752,2886.803174,8438.347739,-153.219100
182.219072,4219.173869,7402.059420,0.000000
182.219393,5847.626942,7031.956449,1302.362347
182.219714,6217.729913,6661.853478,-153.219100
182.220035,6365.771101,7624.121203,-1685.410096
182.220356,8438.347739,9474.636058,-689.485948
182.220677,7550.100608,7920.203579,153.219100
182.220998,8512.368333,4145.153275,-2451.505594
182.221319,9474.636058,4811.338623,-3447.429741
182.221640,9030.512492,7846.182985,-2221.676944
182.221961,8068.244768,7698.141797,-1378.971896
182.222281,8142.265362,5921.647536,-2145.067394
182.222602,8364.327145,5033.400406,-3370.820191
182.222923,7328.038826,6587.832884,-1302.362347
182.223244,5329.482782,8438.347739,536.266849
182.223565,5033.400406,8808.450710,306.438199
182.223886,4737.318029,8290.306550,-689.485948
182.224207,4071.132681,7920.203579,383.047749
182.224528,2368.659014,7920.203579,1608.800546
182.224849,1924.535449,7624.121203,2145.067394
182.225169,1924.535449,7550.100608,1532.190996
182.225490,3404.947333,9178.553681,842.705048
182.225811,4145.153275,8364.327145,919.314598
182.226132,3478.967927,7772.162391,1915.238745
182.226453,2812.782580,8068.244768,2681.334243
182.226774,5181.441594,10066.800811,2145.067394
182.227095,4219.173869,9622.677246,-536.266849
182.227416,5477.523971,5921.647536,-2451.505594
182.227737,7328.038826,4515.256246,-2145.067394
182.228058,7328.038826,6735.874072,-1225.752797
182.228378,6957.935855,8290.306550,-995.924147
182.228699,6809.894666,8808.450710,-2451.505594
182.229020,7402.059420,8512.368333,-3447.429741
182.229341,9770.718434,8364.327145,-1072.533697
182.229662,7476.080014,8068.244768,536.266849
182.229983,6735.874072,7254.018232,-2221.676944
182.230304,6883.915261,8512.368333,-2911.162892
182.230625,6439.791695,8882.471304,-2451.505594
182.230946,6735.874072,7698.141797,-2068.457845
182.231266,7105.977043,6291.750507,-1378.971896
182.231587,5033.400406,6883.915261,-1762.019645
182.231908,4071.132681,8956.491898,0.000000
182.232229,2590.720797,9992.780217,1455.581446
182.232550,1776.494261,9178.553681,-536.266849
182.232871,4441.235652,9696.697840,306.438199
182.233192,4737.318029,11547.212695,1455.581446
182.233513,1406.391290,11991.336260,153.219100
182.233834,1332.370696,10955.047942,-306.438199
182.234155,2368.659014,9770.718434,-229.828649
182.234475,2442.679609,8364.327145,1149.143247
182.234796,2738.761985,8882.471304,2145.067394
182.235117,2590.720797,9030.512492,1838.629195
182.235438,2664.741391,8882.471304,1225.752797
182.235759,3775.050304,9474.636058,1072.533697
182.236080,4293.194464,8364.327145,-229.828649
182.236401,5847.626942,7031.956449,-1072.533697
182.236722,7328.038826,6513.812290,153.219100
182.237043,5773.606348,5847.626942,383.047749
182.237363,6365.771101,5181.441594,-306.438199
182.237684,7920.203579,6735.874072,-1225.752797
182.238005,6439.791695,7624.121203,-2451.505594
182.238326,7550.100608,8290.306550,-1991.848295
182.238647,10881.027347,7105.977043,-306.438199
182.238968,7994.224174,4071.132681,-2528.115143
182.239289,9326.594869,5033.400406,-2528.115143
182.239610,8734.430116,8142.265362,0.000000
182.239931,4441.235652,7994.224174,-842.705048
182.240252,5625.565159,7772.162391,-229.828649
182.240572,7105.977043,6883.915261,842.705048
182.240893,3034.844362,6291.750507,-229.828649
182.241214,3701.029710,7402.059420,1072.533697
182.241535,3775.050304,8438.347739,1838.629195
182.241856,1480.411884,7550.100608,1072.533697
182.242177,2072.576638,6143.709319,2681.334243
182.242498,3256.906145,6439.791695,2987.772442
182.242819,1998.556043,9400.615463,1532.190996
182.243140,2368.659014,10732.986159,1608.800546
182.243461,3775.050304,9696.697840,76.609550
182.243781,3923.091493,5625.565159,-459.657299
182.244102,6069.688724,4885.359217,1838.629195
182.244423,5625.565159,7402.059420,1915.238745
182.244744,4367.215058,9622.677246,-1302.362347
182.245065,6439.791695,10807.006753,-1762.019645
182.245386,7254.018232,8882.471304,-1302.362347
182.245707,7624.121203,5255.462188,-536.266849
182.246028,8882.471304,6809.894666,1685.410096
182.246349,7550.100608,8734.430116,0.000000
182.246669,4441.235652,8068.244768,-3524.039291
182.246990,7328.038826,6143.709319,-3140.991542
182.247311,7698.141797,4959.379811,-842.705048
182.247632,6883.915261,6069.688724,1608.800546
182.247953,8216.285956,9326.594869,2604.724693
182.248274,4737.318029,10288.862594,-1225.752797
182.248595,3330.926739,8586.388927,-3064.381992
182.248916,5699.585753,7328.038826,-689.485948
182.249237,4737.318029,6291.750507,459.657299
182.249558,2886.803174,6439.791695,306.438199
182.249878,3256.906145,8512.368333,229.828649
182.250199,3108.864956,10881.027347,-1991.848295
182.250520,3923.091493,11917.315666,-1378.971896
182.250841,3404.947333,11251.130318,-229.828649
182.251162,3849.070898,10436.903782,-459.657299
182.251483,3330.926739,8734.430116,1455.581446
182.251804,2812.782580,7476.080014,2757.943793
182.252125,3701.029710,8438.347739,766.095498
182.252446,3849.070898,9178.553681,229.828649
182.252766,3256.906145,9770.718434,-842.705048
182.253087,4737.318029,8808.450710,-612.876398
182.253408,6587.832884,6661.853478,-229.828649
182.253729,7105.977043,5551.544565,-766.095498
182.254050,7105.977043,6217.729913,-383.047749
182.254371,5551.544565,7624.121203,383.047749
182.254692,5551.544565,7550.100608,-842.705048
182.255013,7179.997637,7105.977043,-1225.752797
182.255334,9474.636058,7550.100608,-2221.676944
182.255655,8882.471304,7920.203579,-2528.115143
182.255975,6661.853478,8068.244768,-2528.115143
182.256296,6513.812290,6957.935855,-2068.457845
182.256617,8068.244768,6957.935855,-689.485948
182.256938,7179.997637,6365.771101,459.657299
182.257259,6439.791695,8068.244768,-612.876398
182.257580,4663.297435,9178.553681,-1225.752797
182.257901,3997.112087,10288.862594,-1302.362347
182.258222,4885.359217,8512.368333,153.219100
182.258543,5403.503377,6957.935855,1915.238745
182.258863,5107.421000,7105.977043,1838.629195
182.259184,3108.864956,7994.224174,1072.533697
182.259505,740.205942,9178.553681,0.000000
182.259826,1850.514855,10288.862594,229.828649
182.260147,3404.947333,9696.697840,2681.334243
182.260468,4663.297435,9178.553681,2987.772442
182.260789,3034.844362,7550.100608,1762.019645
182.261110,1924.535449,7254.018232,306.438199
182.261431,2886.803174,8142.265362,-459.657299
182.261752,3182.885551,8438.347739,536.266849
182.262072,5107.421000,8142.265362,459.657299
182.262393,6883.915261,7698.141797,153.219100
182.262714,5625.565159,7105.977043,-536.266849
182.263035,6513.812290,7920.203579,-536.266849
182.263356,6809.894666,9104.533087,0.000000
182.263677,5921.647536,7254.018232,-1455.581446
182.263998,7698.141797,5699.585753,-1762.019645
182.264319,7698.141797,4663.297435,-1149.143247
182.264640,6513.812290,5773.606348,-1072.533697
182.264961,6439.791695,7994.224174,-689.485948
182.265281,4885.359217,8882.471304,-1302.362347
182.265602,5773.606348,9252.574275,-2528.115143
182.265923,5551.544565,7179.997637,-1225.752797
182.266244,4515.256246,5625.565159,0.000000
182.266565,4293.194464,6735.874072,1302.362347
182.266886,3256.906145,8142.265362,1915.238745
182.267207,2738.761985,9474.636058,0.000000
182.267528,4811.338623,7994.224174,-612.876398
182.267849,5847.626942,7105.977043,459.657299
182.268169,5477.523971,6291.750507,1762.019645
182.268490,4367.215058,7994.224174,1225.752797
182.268811,4145.153275,8364.327145,-306.438199
182.269132,4441.235652,7179.997637,-1915.238745
182.269453,7254.018232,6513.812290,76.609550
182.269774,8438.347739,8142.265362,459.657299
182.270095,6809.894666,9326.594869,-229.828649
182.270416,5551.544565,10214.842000,-2068.457845
182.270737,5699.585753,9178.553681,-2221.676944
182.271058,4663.297435,6069.688724,-1225.752797
182.271378,7550.100608,6143.709319,689.485948
182.271699,7994.224174,8586.388927,1378.971896
182.272020,3923.091493,10066.800811,-1915.238745
182.272341,3923.091493,10510.924376,-2451.505594
182.272662,5847.626942,10066.800811,-689.485948
182.272983,4737.318029,7846.182985,459.657299
182.273304,6069.688724,7402.059420,1455.581446
182.273625,5329.482782,8216.285956,-459.657299
182.273946,2220.617826,9326.594869,-2911.162892
182.274266,3849.070898,9696.697840,-1608.800546
182.274587,3775.050304,9104.533087,919.314598
182.274908,3849.070898,9696.697840,842.705048
182.275229,4145.153275,10658.965565,2911.162892
182.275550,2738.761985,10436.903782,229.828649
182.275871,2368.659014,8882.471304,-612.876398
182.276192,5255.462188,8216.285956,-459.657299
182.276513,4663.297435,7476.080014,-229.828649
182.276834,2516.700203,7254.018232,842.705048
182.277155,3849.070898,9696.697840,1991.848295
182.277475,4293.194464,10362.883188,0.000000
182.277796,2368.659014,8142.265362,-1608.800546
182.278117,6143.709319,7105.977043,-842.705048
182.278438,5255.462188,7254.018232,76.609550
182.278759,2960.823768,6661.853478,306.438199
182.279080,5329.482782,6883.915261,0.000000
182.279401,4885.359217,6513.812290,-383.047749
182.279722,4219.173869,7105.977043,0.000000
182.280043,6217.729913,8808.450710,766.095498
182.280363,5625.565159,9178.553681,-1915.238745
182.280684,5847.626942,8068.244768,-2911.162892
182.281005,6217.729913,6365.771101,0.000000
182.281326,6143.709319,5403.503377,229.828649
182.281647,5995.668130,6513.812290,689.485948
182.281968,4367.215058,7846.182985,-229.828649
182.282289,3478.967927,8956.491898,-1915.238745
182.282610,5699.585753,8734.430116,-689.485948
182.282931,6439.791695,8364.327145,1762.019645
182.283252,6587.832884,8068.244768,2145.067394
182.283572,5033.400406,7328.038826,1532.190996
182.283893,2590.720797,7846.182985,459.657299
182.284214,3627.009116,7698.141797,0.000000
182.284535,4441.235652,6217.729913,612.876398
182.284856,5403.503377,6957.935855,-76.609550
182.285177,5847.626942,8290.306550,-229.828649
182.285498,5033.400406,9474.636058,-306.438199
182.285819,4441.235652,9474.636058,-153.219100
182.286140,5625.565159,8438.347739,1225.752797
182.286461,5181.441594,7994.224174,1455.581446
182.286781,5107.421000,7624.121203,383.047749
182.287102,5181.441594,9104.533087,-229.828649
182.287423,4885.359217,9622.677246,-1225.752797
182.287744,5847.626942,8364.327145,-2068.457845
182.288065,6957.935855,6957.935855,-1072.533697
182.288386,6587.832884,7920.203579,919.314598
182.288707,5181.441594,8734.430116,2068.457845
182.289028,3775.050304,7994.224174,1072.533697
182.289349,4515.256246,7328.038826,-306.438199
182.289669,5699.585753,7328.038826,-383.047749
182.289990,5773.606348,8068.244768,459.657299
182.290311,4737.318029,7624.121203,-1225.752797
182.290632,5551.544565,8290.306550,-919.314598
182.290953,4663.297435,8290.306550,-766.095498
182.291274,2072.576638,7031.956449,-459.657299
182.291595,3404.947333,9474.636058,0.000000
182.291916,4737.318029,11473.192101,0.000000
182.292237,3775.050304,9918.759623,-1225.752797
182.292558,6439.791695,8364.327145,-1302.362347
182.292878,5551.544565,8068.244768,-459.657299
182.293199,2442.679609,8808.450710,919.314598
182.293520,2442.679609,9178.553681,1991.848295
182.293841,3775.050304,7994.224174,995.924147
182.294162,3701.029710,6143.709319,229.828649
182.294483,5921.647536,6809.894666,1302.362347
182.294804,5403.503377,8364.327145,-306.438199
182.295125,4071.132681,9844.739029,-2681.334243
182.295446,3775.050304,9770.718434,-306.438199
182.295766,5773.606348,7328.038826,536.266849
182.296087,5847.626942,7476.080014,1302.362347
182.296408,4441.235652,7772.162391,842.705048
182.296729,2368.659014,9400.615463,-1991.848295
182.297050,3478.967927,10140.821405,-1915.238745
182.297371,4737.318029,9474.636058,-1072.533697
182.297692,5773.606348,6735.874072,-383.047749
182.298013,6587.832884,6439.791695,-1302.362347
182.298334,4515.256246,9030.512492,76.609550
182.298655,3034.844362,10214.842000,76.609550
182.298975,3849.070898,8438.347739,306.438199
182.299296,6513.812290,5847.626942,0.000000
182.299617,8364.327145,6735.874072,459.657299
182.299938,6365.771101,7105.977043,306.438199
182.300258,5033.400406,8068.244768,-1225.752797
182.300579,4885.359217,8512.368333,-1455.581446
182.300900,5625.565159,9400.615463,0.000000
182.301221,4811.338623,7402.059420,459.657299
182.301541,5921.647536,8290.306550,766.095498
182.301862,5773.606348,10732.986159,1302.362347
182.302183,3256.906145,9696.697840,0.000000
182.302504,4367.215058,7105.977043,-2068.457845
182.302824,5773.606348,7254.018232,-1455.581446
182.303145,4219.173869,8290.306550,1532.190996
182.303466,5033.400406,9474.636058,3294.210641
182.303787,4071.132681,8364.327145,1302.362347
182.304107,3256.906145,6661.853478,-1378.971896
182.304428,4811.338623,5921.647536,1149.143247
182.304749,4663.297435,6735.874072,1762.019645
182.305070,5551.544565,7179.997637,1225.752797
182.305390,6587.832884,6735.874072,-306.438199
182.305711,5181.441594,5699.585753,-1685.410096
182.306032,5403.503377,7698.141797,-153.219100
182.306353,5329.482782,8808.450710,76.609550
182.306673,5773.606348,8660.409521,-1532.190996
182.306994,8068.244768,7476.080014,-1915.238745
182.307315,6957.935855,7624.121203,-1072.533697
182.307636,4959.379811,7624.121203,-1608.800546
182.307956,5847.626942,8512.368333,-995.924147
182.308277,4737.318029,9844.739029,153.219100
182.308598,5033.400406,9104.533087,229.828649
182.308919,5477.523971,7624.121203,0.000000
182.309239,3923.091493,7105.977043,-689.485948
182.309560,2812.782580,7698.141797,-383.047749
182.309881,2886.803174,8734.430116,2068.457845
182.310202,2812.782580,7772.162391,1149.143247
182.310522,4145.153275,6661.853478,766.095498
182.310843,5033.400406,6809.894666,842.705048
182.311164,2960.823768,8734.430116,-766.095498
182.311485,2146.597232,10510.924376,-306.438199
182.311805,4145.153275,10584.944971,-459.657299
182.312126,5551.544565,9918.759623,-995.924147
182.312447,6365.771101,8364.327145,-1072.533697
182.312768,5921.647536,8438.347739,-689.485948
182.313088,4589.276840,9770.718434,-229.828649
182.313409,3923.091493,10362.883188,919.314598
182.313730,5995.668130,9104.533087,153.219100
182.314051,6143.709319,6735.874072,-229.828649
182.314371,7105.977043,6957.935855,-306.438199
182.314692,6883.915261,8216.285956,842.705048
182.315013,4219.173869,7476.080014,0.000000
182.315334,4293.194464,6661.853478,-919.314598
182.315654,6661.853478,6365.771101,153.219100
182.315975,6217.729913,6809.894666,459.657299
182.316296,5921.647536,8290.306550,306.438199
182.316617,5255.462188,9770.718434,-1685.410096
182.316937,3627.009116,9030.512492,-2451.505594
182.317258,5403.503377,8660.409521,-459.657299
182.317579,6513.812290,7698.141797,919.314598
182.317900,5921.647536,7624.121203,306.438199
182.318220,5625.565159,9178.553681,612.876398
182.318541,4293.194464,10288.862594,-689.485948
182.318862,3108.864956,8808.450710,-1608.800546
182.319183,4663.297435,5995.668130,459.657299
182.319503,7105.977043,6217.729913,2068.457845
182.319824,5995.668130,6069.688724,2374.896044
182.320145,3701.029710,6143.709319,1149.143247
182.320466,3701.029710,7476.080014,-383.047749
182.320786,4219.173869,9622.677246,-459.657299
182.321107,4515.256246,8808.450710,459.657299
182.321428,7031.956449,6513.812290,153.219100
182.321749,7772.162391,5921.647536,383.047749
182.322069,5699.585753,7550.100608,0.000000
182.322390,4367.215058,7846.182985,-1838.629195
182.322711,3775.050304,7328.038826,-2528.115143
182.323032,6735.874072,7920.203579,-689.485948
182.323352,7402.059420,8660.409521,1072.533697
182.323673,6143.709319,7624.121203,842.705048
182.323994,5773.606348,7920.203579,-2451.505594
182.324315,4589.276840,7105.977043,-1149.143247
182.324635,4811.338623,6883.915261,-229.828649
182.324956,7031.956449,5995.668130,612.876398
182.325277,6217.729913,5477.523971,-383.047749
182.325598,5107.421000,7105.977043,76.609550
182.325918,5033.400406,9474.636058,1532.190996
182.326239,3478.967927,9918.759623,76.609550
182.326560,4737.318029,9178.553681,-536.266849
182.326881,6217.729913,7550.100608,-536.266849
182.327201,4441.235652,8290.306550,76.609550
182.327522,2960.823768,8438.347739,-306.438199
182.327843,3108.864956,9178.553681,0.000000
182.328164,3627.009116,9696.697840,-612.876398
182.328484,3701.029710,9548.656652,-612.876398
182.328805,3775.050304,9252.574275,-153.219100
182.329126,3627.009116,9252.574275,-229.828649
182.329447,4145.153275,9696.697840,1225.752797
182.329767,3627.009116,9474.636058,1608.800546
182.330088,3182.885551,7772.162391,1838.629195
182.330409,4737.318029,7328.038826,383.047749
182.330730,5107.421000,8512.368333,0.000000
182.331050,4959.379811,8512.368333,-383.047749
182.331371,5699.585753,7994.224174,-842.705048
182.331692,6143.709319,7328.038826,-1608.800546
182.332013,6143.709319,7772.162391,-536.266849
182.332333,7254.018232,9696.697840,1378.971896
182.332654,5699.585753,9696.697840,689.485948
182.332975,6439.791695,8216.285956,-1149.143247
182.333296,6143.709319,8290.306550,-536.266849
182.333616,4737.318029,6883.915261,-766.095498
182.333937,5255.462188,6883.915261,-1149.143247
182.334258,6661.853478,7920.203579,-536.266849
182.334579,4811.338623,7698.141797,-919.314598
182.334899,4071.132681,7031.956449,76.609550
182.335220,4885.359217,7105.977043,383.047749
182.335541,3997.112087,8216.285956,-153.219100
182.335862,5329.482782,8734.430116,1608.800546
182.336182,6069.688724,7846.182985,1532.190996
182.336503,3997.112087,6069.688724,0.000000
182.336824,4959.379811,4959.379811,-153.219100
182.337145,5625.565159,6143.709319,-536.266849
182.337465,5329.482782,7402.059420,-1378.971896
182.337786,6291.750507,8290.306550,-1608.800546
182.338107,7624.121203,8660.409521,-1378.971896
182.338428,7476.080014,7772.162391,-842.705048
182.338748,6957.935855,8734.430116,995.924147
182.339069,5847.626942,9178.553681,1455.581446
182.339390,5033.400406,8364.327145,0.000000
182.339711,5107.421000,6735.874072,-1225.752797
182.340031,4737.318029,4441.235652,-1838.629195
182.340352,5477.523971,5551.544565,-842.705048
182.340673,4811.338623,8512.368333,842.705048
182.340994,3997.112087,10510.924376,0.000000
182.341314,3849.070898,9770.718434,-1072.533697
182.341635,3775.050304,8142.265362,-842.705048
182.341956,5181.441594,8068.244768,1455.581446
182.342277,5033.400406,9252.574275,3294.210641
182.342597,2590.720797,8512.368333,919.314598
182.342918,3997.112087,8068.244768,-1915.238745
182.343239,5329.482782,8068.244768,-1378.971896
182.343560,4737.318029,9474.636058,-306.438199
182.343880,5107.421000,9696.697840,612.876398
182.344201,4737.318029,9326.594869,-536.266849
182.344522,3997.112087,8438.347739,-1608.800546
182.344843,5255.462188,7846.182985,536.266849
182.345163,5995.668130,7624.121203,1915.238745
182.345484,5625.565159,9030.512492,1149.143247
182.345805,4737.318029,9992.780217,536.266849
182.346126,4071.132681,9696.697840,-306.438199
182.346446,3701.029710,6291.750507,-1149.143247
182.346767,5329.482782,5329.482782,612.876398
182.347088,5921.647536,6439.791695,1072.533697
182.347408,4589.276840,7550.100608,0.000000
182.347729,3997.112087,7920.203579,-1762.019645
182.348050,5995.668130,8364.327145,-1762.019645
182.348371,6069.688724,9474.636058,-766.095498
182.348691,6809.894666,9474.636058,459.657299
182.349012,4589.276840,8290.306550,383.047749
182.349333,4663.297435,6513.812290,-1072.533697
182.349654,6217.729913,8586.388927,-689.485948
182.349974,3849.070898,7772.162391,-1838.629195
182.350295,3923.091493,7179.997637,-2911.162892
182.350616,7179.997637,7624.121203,153.219100
182.350937,4367.215058,9030.512492,1685.410096
182.351257,3997.112087,8586.388927,1455.581446
182.351578,4515.256246,7179.997637,306.438199
182.351899,4441.235652,6291.750507,-1072.533697
182.352220,4441.235652,7624.121203,1455.581446
182.352540,4219.173869,7402.059420,766.095498
182.352861,4663.297435,5921.647536,-2987.772442
182.353182,5551.544565,7179.997637,-1685.410096
182.353503,5921.647536,9992.780217,919.314598
182.353823,6735.874072,10510.924376,919.314598
182.354144,5107.421000,7179.997637,-1225.752797
182.354465,4589.276840,6809.894666,-1685.410096
182.354786,5033.400406,7550.100608,153.219100
182.355106,4367.215058,7772.162391,1762.019645
182.355427,5255.462188,8734.430116,-229.828649
182.355748,6365.771101,8586.388927,-1915.238745
182.356069,5181.441594,9178.553681,-2451.505594
182.356389,5033.400406,8438.347739,-1685.410096
182.356710,5699.585753,7328.038826,-459.657299
182.357031,5847.626942,8290.306550,1685.410096
182.357352,5033.400406,8734.430116,1838.629195
182.357672,3627.009116,8438.347739,0.000000
182.357993,4737.318029,10288.862594,-612.876398
182.358314,4811.338623,11399.171507,0.000000
182.358635,4367.215058,9992.780217,-689.485948
182.358955,3775.050304,6587.832884,-1915.238745
182.359276,4293.194464,6217.729913,-306.438199
182.359597,4589.276840,8438.347739,2068.457845
182.359918,2368.659014,9696.697840,1762.019645
182.360238,2294.638420,9400.615463,-1225.752797
182.360559,4959.379811,10140.821405,-1072.533697
182.360880,4959.379811,10214.842000,766.095498
182.361201,4441.235652,8290.306550,1685.410096
182.361521,5477.523971,7254.018232,612.876398
182.361842,4811.338623,7624.121203,-383.047749
182.362163,3552.988522,7105.977043,-612.876398
182.362484,5403.503377,6587.832884,-1149.143247
182.362804,7476.080014,7402.059420,-1149.143247
182.363125,6957.935855,9770.718434,0.000000
182.363446,5625.565159,9474.636058,842.705048
182.363767,5403.503377,7328.038826,0.000000
182.364087,6365.771101,7179.997637,306.438199
182.364408,4959.379811,6069.688724,306.438199
182.364729,4885.359217,6217.729913,-1991.848295
182.365050,5181.441594,6809.894666,-2987.772442
182.365370,3849.070898,8142.265362,-2145.067394
182.365691,4589.276840,9400.615463,-536.266849
182.366012,5329.482782,9252.574275,842.705048
182.366333,3849.070898,7772.162391,229.828649
182.366653,3478.967927,7105.977043,536.266849
182.366974,3256.906145,7994.224174,766.095498
182.367295,2812.782580,8586.388927,-842.705048
182.367616,3552.988522,7994.224174,-842.705048
182.367936,5847.626942,7328.038826,-383.047749
182.368257,7550.100608,8290.306550,383.047749
182.368578,5477.523971,7920.203579,459.657299
182.368899,2664.741391,6365.771101,-1838.629195
182.369219,4737.318029,7105.977043,-459.657299
182.369540,5255.462188,8512.368333,2374.896044
182.369861,5477.523971,8956.491898,2374.896044
182.370182,6735.874072,8882.471304,-536.266849
182.370502,7179.997637,10288.862594,-2604.724693
182.370823,5329.482782,11177.109724,-1915.238745
182.371144,4811.338623,8734.430116,-612.876398
182.371465,4441.235652,6365.771101,-842.705048
182.371785,5995.668130,7328.038826,0.000000
182.372106,5551.544565,8808.450710,842.705048
182.372427,3108.864956,9326.594869,-919.314598
182.372748,4293.194464,9918.759623,-1532.190996
182.373068,4959.379811,9844.739029,383.047749
182.373389,3997.112087,8512.368333,995.924147
182.373710,4589.276840,7550.100608,1915.238745
182.374031,4515.256246,8512.368333,1225.752797
182.374351,3256.906145,8512.368333,0.000000
182.374672,4441.235652,8660.409521,-1532.190996
182.374993,4959.379811,7920.203579,-2298.286494
182.375314,5329.482782,8586.388927,-1685.410096
182.375634,6143.709319,9696.697840,1302.362347
182.375955,5847.626942,11325.150913,1302.362347
182.376276,2960.823768,10436.903782,0.000000
182.376597,3849.070898,8438.347739,153.219100
182.376917,4293.194464,7328.038826,766.095498
182.377238,3923.091493,7105.977043,766.095498
182.377559,3330.926739,6587.832884,459.657299
182.377880,4589.276840,6587.832884,-536.266849
182.378200,3997.112087,7031.956449,153.219100
182.378521,3997.112087,9474.636058,383.047749
182.378842,3923.091493,7328.038826,0.000000
182.379163,5403.503377,6143.709319,-766.095498
182.379483,7698.141797,6883.915261,1378.971896
182.379804,5847.626942,7328.038826,1915.238745
182.380125,4293.194464,6365.771101,0.000000
182.380446,6069.688724,6291.750507,-2451.505594
182.380766,6217.729913,7105.977043,-1838.629195
182.381087,7328.038826,7772.162391,-1149.143247
182.381408,7550.100608,6809.894666,-1532.190996
182.381729,6513.812290,6291.750507,-2681.334243
182.382049,6069.688724,8216.285956,306.438199
182.382370,5107.421000,9104.533087,2145.067394
182.382691,5847.626942,9030.512492,612.876398
182.383012,5921.647536,8438.347739,229.828649
182.383332,3404.947333,7179.997637,-306.438199
182.383653,2590.720797,6439.791695,-229.828649
182.383974,2812.782580,7031.956449,1072.533697
182.384295,2960.823768,8290.306550,306.438199
182.384615,3552.988522,10288.862594,-383.047749
182.384936,3108.864956,9326.594869,-1225.752797
182.385257,2368.659014,9030.512492,-842.705048
182.385578,3182.885551,9622.677246,1838.629195
182.385898,4441.235652,11103.089130,3217.601092
182.386219,4145.153275,9844.739029,995.924147
182.386540,4219.173869,7624.121203,-1149.143247
182.386861,5551.544565,8734.430116,-1302.362347
182.387181,4959.379811,9030.512492,-1378.971896
182.387502,5403.503377,7476.080014,-1838.629195
182.387823,6069.688724,7179.997637,-1762.019645
182.388144,6587.832884,7105.977043,-919.314598
182.388464,7994.224174,8290.306550,1608.800546
182.388785,7179.997637,7846.182985,1608.800546
182.389106,5625.565159,7698.141797,-995.924147
182.389427,6069.688724,7624.121203,-766.095498
182.389747,6143.709319,7624.121203,-612.876398
182.390068,6217.729913,6587.832884,-1149.143247
182.390389,7105.977043,7402.059420,-1149.143247
182.390710,4885.359217,7846.182985,-2604.724693
182.391030,3849.070898,8586.388927,-3217.601092
182.391351,3775.050304,7994.224174,-1532.190996
182.391672,3256.906145,7846.182985,-766.095498
182.391993,5107.421000,8660.409521,1149.143247
182.392313,5995.668130,10955.047942,1838.629195
182.392634,2368.659014,10362.883188,383.047749
182.392955,2516.700203,8512.368333,-1302.362347
182.393276,6809.894666,8586.388927,-612.876398
182.393596,5181.441594,7476.080014,-383.047749
182.393917,3552.988522,5255.462188,-383.047749
182.394238,6217.729913,5921.647536,0.000000
182.394559,5181.441594,8882.471304,0.000000
182.394879,4959.379811,9770.718434,229.828649
182.395200,6513.812290,8734.430116,229.828649
182.395521,6957.935855,7772.162391,-306.438199
182.395842,5995.668130,8512.368333,1455.581446
182.396162,4293.194464,8290.306550,1685.410096
182.396483,3404.947333,5847.626942,-1762.019645
182.396804,5329.482782,6661.853478,-1225.752797
182.397125,6439.791695,8808.450710,-689.485948
182.397445,5921.647536,9400.615463,-2221.676944
182.397766,5033.400406,8216.285956,-2145.067394
182.398087,5107.421000,8734.430116,0.000000
182.398408,5033.400406,8956.491898,2834.553343
182.398728,3478.967927,7328.038826,3064.381992
182.399049,4145.153275,6883.915261,-153.219100
182.399370,5255.462188,7328.038826,-1532.190996
182.399691,5255.462188,9104.533087,-536.266849
182.400011,5107.421000,9622.677246,-766.095498
182.400332,5255.462188,8512.368333,-383.047749
182.400653,4811.338623,7920.203579,536.266849
182.400974,5477.523971,7402.059420,689.485948
182.401294,4589.276840,6809.894666,1225.752797
182.401615,4367.215058,7624.121203,1149.143247
182.401936,5181.441594,8364.327145,689.485948
182.402256,5033.400406,9474.636058,0.000000
182.402577,4219.173869,8364.327145,76.609550
182.402898,3923.091493,6735.874072,-76.609550
182.403218,5181.441594,6291.750507,-536.266849
182.403539,4589.276840,7105.977043,-1225.752797
182.403859,3997.112087,6883.915261,-1532.190996
182.404180,4663.297435,7476.080014,-1378.971896
182.404501,6439.791695,8586.388927,536.266849
182.404821,6809.894666,11029.068536,2528.115143
182.405142,5921.647536,9696.697840,995.924147
182.405463,4737.318029,7328.038826,-1915.238745
182.405783,5255.462188,5921.647536,-1915.238745
182.406104,5033.400406,5699.585753,-229.828649
182.406424,5551.544565,5625.565159,153.219100
182.406745,7179.997637,7179.997637,0.000000
182.407066,6513.812290,8586.388927,-919.314598
182.407386,5477.523971,7846.182985,-689.485948
182.407707,6143.709319,8660.409521,-459.657299
182.408028,5551.544565,9030.512492,-306.438199
182.408348,4737.318029,8290.306550,612.876398
182.408669,6217.729913,7179.997637,1225.752797
182.408989,4219.173869,6661.853478,229.828649
182.409310,3256.906145,7328.038826,-1072.533697
182.409631,4145.153275,9400.615463,-766.095498
182.409951,4293.194464,9918.759623,-1532.190996
182.410272,4515.256246,9918.759623,-1072.533697
182.410593,5773.606348,8586.388927,536.266849
182.410913,5551.544565,7402.059420,919.314598
182.411234,5107.421000,7846.182985,2298.286494
182.411555,2664.741391,8808.450710,1915.238745
182.411875,4071.132681,9474.636058,-229.828649
182.412196,5699.585753,9326.594869,-1685.410096
182.412516,5921.647536,8586.388927,-1302.362347
182.412837,6217.729913,6883.915261,0.000000
182.413158,7179.997637,6735.874072,1532.190996
182.413478,5921.647536,9252.574275,383.047749
182.413799,4367.215058,8216.285956,-536.266849
182.414120,5107.421000,6661.853478,-536.266849
182.414440,6809.894666,7031.956449,459.657299
182.414761,5921.647536,9474.636058,1532.190996
182.415081,4737.318029,8660.409521,0.000000
182.415402,5625.565159,5773.606348,-2987.772442
182.415723,7550.100608,5255.462188,-2451.505594
182.416043,5625.565159,6957.935855,306.438199
182.416364,4663.297435,7179.997637,459.657299
182.416685,5477.523971,8512.368333,-689.485948
182.417005,5625.565159,9992.780217,-766.095498
182.417326,5773.606348,8956.491898,459.657299
182.417646,7254.018232,7550.100608,919.314598
182.417967,5403.503377,6735.874072,-536.266849
182.418288,3034.844362,8142.265362,0.000000
182.418608,3034.844362,7994.224174,459.657299
182.418929,3627.009116,7920.203579,229.828649
182.419250,4959.379811,7698.141797,1225.752797
182.419570,4885.359217,8808.450710,1378.971896
182.419891,3997.112087,9844.739029,459.657299
182.420211,1850.514855,9400.615463,-766.095498
182.420532,3256.906145,7846.182985,0.000000
182.420853,3923.091493,6809.894666,1149.143247
182.421173,4145.153275,6587.832884,1915.238745
182.421494,3478.967927,7994.224174,995.924147
182.421815,3923.091493,9178.553681,-1149.143247
182.422135,4959.379811,8734.430116,-1991.848295
182.422456,7328.038826,7772.162391,-1378.971896
182.422776,6143.709319,5847.626942,-383.047749
182.423097,6661.853478,6587.832884,0.000000
182.423418,7476.080014,10214.842000,1072.533697
182.423738,5329.482782,9696.697840,0.000000
182.424059,5995.668130,6365.771101,-1685.410096
182.424380,9326.594869,4737.318029,-1991.848295
182.424700,7772.162391,7105.977043,-919.314598
182.425021,4959.379811,8364.327145,-536.266849
182.425342,6217.729913,8142.265362,-1838.629195
182.425662,7105.977043,8290.306550,-1225.752797
182.425983,6069.688724,9178.553681,1149.143247
182.426303,3108.864956,8216.285956,1762.019645
182.426624,2590.720797,7920.203579,-153.219100
182.426945,2738.761985,9474.636058,0.000000
182.427265,2516.700203,8956.491898,995.924147
182.427586,3404.947333,7254.018232,0.000000
182.427907,3404.947333,6957.935855,-995.924147
182.428227,1554.432478,9030.512492,-536.266849
182.428548,1702.473667,10658.965565,383.047749
182.428868,3256.906145,8956.491898,1378.971896
182.429189,4737.318029,8660.409521,383.047749
182.429510,4737.318029,8068.244768,1302.362347
182.429830,4145.153275,8216.285956,76.609550
182.430151,5551.544565,8808.450710,-1149.143247
182.430472,5625.565159,8438.347739,-1378.971896
182.430792,6735.874072,7105.977043,-1838.629195
182.431113,7624.121203,7105.977043,-1455.581446
182.431433,7105.977043,7920.203579,306.438199
182.431754,6291.750507,8438.347739,1149.143247
182.432075,7550.100608,8808.450710,459.657299
182.432395,7476.080014,6883.915261,-1072.533697
182.432716,6069.688724,5625.565159,-2374.896044
182.433037,6143.709319,5995.668130,-1072.533697
182.433357,6587.832884,8290.306550,-995.924147
182.433678,5625.565159,8734.430116,0.000000
182.433998,4293.194464,7846.182985,-1378.971896
182.434319,6143.709319,7772.162391,-1762.019645
182.434640,5107.421000,7476.080014,0.000000
182.434960,3552.988522,7772.162391,1991.848295
182.435281,3997.112087,8808.450710,1225.752797
182.435602,5107.421000,9474.636058,0.000000
182.435922,3108.864956,8808.450710,-383.047749
182.436243,4959.379811,7624.121203,0.000000
182.436563,4959.379811,7031.956449,229.828649
182.436884,2960.823768,7254.018232,306.438199
182.437205,4959.379811,8660.409521,1378.971896
182.437525,4737.318029,8882.471304,1225.752797
182.437846,4811.338623,8216.285956,76.609550
182.438167,6735.874072,8438.347739,689.485948
182.438487,6217.729913,9030.512492,536.266849
182.438808,4737.318029,7994.224174,-612.876398
182.439129,3775.050304,7105.977043,612.876398
182.439449,3775.050304,5995.668130,-383.047749
182.439770,5773.606348,7105.977043,459.657299
182.440090,4589.276840,8068.244768,1149.143247
182.440411,4367.215058,8142.265362,-1378.971896
182.440732,4885.359217,9400.615463,-1838.629195
182.441052,4959.379811,9474.636058,-919.314598
182.441373,3478.967927,8438.347739,-229.828649
182.441694,4441.235652,7031.956449,1378.971896
182.442014,5033.400406,8290.306550,1378.971896
182.442335,3330.926739,9844.739029,0.000000
182.442655,3256.906145,8290.306550,-1532.190996
182.442976,5773.606348,7994.224174,-1455.581446
182.443297,5773.606348,7772.162391,383.047749
182.443617,5107.421000,7624.121203,2374.896044
182.443938,4515.256246,8586.388927,1072.533697
182.444259,4071.132681,7179.997637,-766.095498
182.444579,4737.318029,7624.121203,0.000000
182.444900,6069.688724,7105.977043,459.657299
182.445220,4885.359217,6957.935855,-612.876398
182.445541,4663.297435,8068.244768,-1302.362347
182.445862,5181.441594,8734.430116,-612.876398
182.446182,5551.544565,8364.327145,0.000000
182.446503,4885.359217,7994.224174,-229.828649
182.446824,3404.947333,8068.244768,-1608.800546
182.447144,3478.967927,8438.347739,-2451.505594
182.447465,4885.359217,9474.636058,-306.438199
182.447785,4219.173869,9178.553681,536.266849
182.448106,5329.482782,9326.594869,612.876398
182.448427,4885.359217,8956.491898,0.000000
182.448747,2516.700203,9104.533087,-919.314598
182.449068,3108.864956,8364.327145,-306.438199
182.449389,4367.215058,7476.080014,229.828649
182.449709,5107.421000,7846.182985,0.000000
182.450030,5773.606348,7920.203579,229.828649
182.450350,4737.318029,8364.327145,-383.047749
182.450671,5329.482782,9252.574275,76.609550
182.450992,5847.626942,9400.615463,1302.362347
182.451312,5699.585753,7698.141797,306.438199
182.451633,5403.503377,6291.750507,-459.657299
182.451954,5995.668130,7105.977043,-689.485948
182.452274,5625.565159,9178.553681,-459.657299
182.452595,5403.503377,8068.244768,-919.314598
182.452916,6957.935855,7328.038826,-1685.410096
182.453236,6587.832884,8068.244768,-1532.190996
182.453557,3108.864956,8808.450710,0.000000
182.453877,4663.297435,8882.471304,1608.800546
182.454198,4367.215058,7105.977043,229.828649
182.454519,5181.441594,6291.750507,0.000000
182.454839,6217.729913,7772.162391,0.000000
182.455160,4737.318029,8142.265362,-1685.410096
182.455481,4293.194464,7920.203579,-1072.533697
182.455801,6439.791695,9178.553681,459.657299
182.456122,5329.482782,9030.512492,766.095498
182.456442,5255.462188,7105.977043,459.657299
182.456763,5181.441594,6291.750507,-459.657299
182.457084,4885.359217,7476.080014,-919.314598
182.457404,5847.626942,8142.265362,229.828649
182.457725,5255.462188,7698.141797,0.000000
182.458046,4293.194464,6291.750507,-536.266849
182.458366,5255.462188,8512.368333,153.219100
182.458687,3330.926739,9844.739029,1225.752797
182.459007,2960.823768,7920.203579,-536.266849
182.459328,5477.523971,6439.791695,-842.705048
182.459649,4441.235652,7254.018232,-306.438199
182.459969,2812.782580,8512.368333,-536.266849
182.460290,2960.823768,8956.491898,0.000000
182.460611,4071.132681,9400.615463,306.438199
182.460931,5625.565159,10288.862594,459.657299
182.461252,4441.235652,10362.883188,306.438199
182.461572,2664.741391,9326.594869,-2145.067394
182.461893,2442.679609,9030.512492,-1762.019645
182.462214,1998.556043,8882.471304,1532.190996
182.462534,2590.720797,8216.285956,995.924147
182.462855,4737.318029,8882.471304,612.876398
182.463176,4367.215058,9844.739029,-842.705048
182.463496,3478.967927,9770.718434,-2145.067394
182.463817,3627.009116,9030.512492,-383.047749
182.464137,4737.318029,8882.471304,919.314598
182.464458,5033.400406,7624.121203,1685.410096
182.464779,5477.523971,7476.080014,1302.362347
182.465099,5699.585753,8956.491898,0.000000
182.465420,3849.070898,8734.430116,-612.876398
182.465741,5255.462188,7624.121203,-919.314598
182.466061,6217.729913,7179.997637,-842.705048
182.466382,5847.626942,7254.018232,0.000000
182.466703,6735.874072,7105.977043,229.828649
182.467023,6143.709319,6957.935855,-1225.752797
182.467344,5181.441594,7105.977043,-1149.143247
182.467664,5181.441594,8216.285956,-919.314598
182.467985,4811.338623,7105.977043,-1072.533697
182.468306,5551.544565,7772.162391,-612.876398
182.468626,7179.997637,8068.244768,229.828649
182.468947,5255.462188,7920.203579,-1762.019645
182.469268,6587.832884,7846.182985,-2451.505594
182.469588,4959.379811,8068.244768,-2298.286494
182.469909,4441.235652,7624.121203,-2068.457845
182.470229,6217.729913,7031.956449,0.000000
182.470550,7328.038826,7254.018232,1991.848295
182.470871,6365.771101,8734.430116,2068.457845
182.471191,4959.379811,8660.409521,766.095498
182.471512,4071.132681,7105.977043,-1378.971896
182.471833,4811.338623,6439.791695,-1762.019645
182.472153,7624.121203,6957.935855,612.876398
182.472474,6143.709319,6143.709319,995.924147
182.472794,4959.379811,5921.647536,-766.095498
182.473115,4885.359217,8142.265362,-459.657299
182.473436,4367.215058,10288.862594,-842.705048
182.473756,4737.318029,9474.636058,-459.657299
182.474077,6291.750507,8586.388927,-766.095498
182.474398,5477.523971,8216.285956,-766.095498
182.474718,3775.050304,8586.388927,-612.876398
182.475039,3108.864956,9030.512492,-383.047749
182.475359,4737.318029,9696.697840,-766.095498
182.475680,5033.400406,10362.883188,-1302.362347
182.476001,4071.132681,9844.739029,-1685.410096
182.476321,2664.741391,7772.162391,-2528.115143
182.476642,5033.400406,8660.409521,383.047749
182.476963,3923.091493,10436.903782,2757.943793
182.477283,2664.741391,9696.697840,1762.019645
182.477604,3923.091493,9030.512492,459.657299
182.477924,4071.132681,8808.450710,-153.219100
182.478245,2738.761985,9548.656652,689.485948
182.478566,4367.215058,9252.574275,2221.676944
182.478886,3256.906145,8290.306550,76.609550
182.479207,4071.132681,7550.100608,-612.876398
182.479528,5329.482782,7550.100608,766.095498
182.479848,5107.421000,8290.306550,229.828649
182.480169,4219.173869,7994.224174,-766.095498
182.480490,4367.215058,8882.471304,-383.047749
182.480810,5033.400406,7624.121203,-153.219100
182.481131,6291.750507,6661.853478,459.657299
182.481451,6587.832884,7254.018232,842.705048
182.481772,6217.729913,7846.182985,-842.705048
182.482093,5847.626942,7994.224174,-2374.896044
182.482413,5551.544565,6883.915261,-2757.943793
182.482734,5181.441594,5921.647536,-1838.629195
182.483055,7772.162391,7254.018232,1532.190996
182.483375,6661.853478,9326.594869,2911.162892
182.483696,4441.235652,9770.718434,612.876398
182.484016,3478.967927,7476.080014,-1149.143247
182.484337,5107.421000,5699.585753,-1762.019645
182.484658,5847.626942,5477.523971,229.828649
182.484978,4589.276840,5847.626942,766.095498
182.485299,4811.338623,6513.812290,-306.438199
182.485620,6439.791695,7476.080014,-153.219100
182.485940,5995.668130,8734.430116,0.000000
182.486261,5255.462188,8142.265362,0.000000
182.486581,6365.771101,6661.853478,919.314598
182.486902,5995.668130,5847.626942,995.924147
182.487223,4959.379811,5773.606348,995.924147
182.487543,5181.441594,7328.038826,1072.533697
182.487864,6439.791695,8956.491898,-2221.676944
182.488185,5033.400406,8808.450710,-3983.696590
182.488505,7772.162391,9178.553681,-2834.553343
182.488826,6883.915261,7550.100608,-689.485948
182.489146,5699.585753,6735.874072,459.657299
182.489467,5329.482782,7624.121203,2757.943793
182.489788,4885.359217,10584.944971,2298.286494
182.490108,3849.070898,10066.800811,229.828649
182.490429,4219.173869,9252.574275,-1532.190996
182.490750,4293.194464,7254.018232,-3140.991542
182.491070,5403.503377,7772.162391,-1991.848295
182.491391,3849.070898,7698.141797,383.047749
182.491711,3552.988522,7772.162391,-383.047749
182.492032,4441.235652,8734.430116,0.000000
182.492353,3330.926739,9548.656652,459.657299
182.492673,2442.679609,9770.718434,76.609550
182.492994,4219.173869,9844.739029,1378.971896
182.493315,5255.462188,10140.821405,1302.362347
182.493635,5699.585753,9622.677246,0.000000
182.493956,3997.112087,7254.018232,-2451.505594
182.494277,4663.297435,7920.203579,-3753.867940
182.494597,5033.400406,9770.718434,-1838.629195
182.494918,3627.009116,8512.368333,0.000000
182.495238,5477.523971,8216.285956,0.000000
182.495559,6735.874072,8364.327145,1532.190996
182.495880,4959.379811,11695.253884,3064.381992
182.496200,4515.256246,10955.047942,2757.943793
182.496521,3701.029710,7846.182985,0.000000
182.496842,3701.029710,5403.503377,-1915.238745
182.497162,5255.462188,5773.606348,-612.876398
182.497483,5107.421000,6291.750507,0.000000
182.497803,4071.132681,7328.038826,-1455.581446
182.498124,5255.462188,8216.285956,-1378.971896
182.498445,5477.523971,8808.450710,-612.876398
182.498765,5921.647536,7698.141797,229.828649
182.499086,5773.606348,7994.224174,1302.362347
182.499407,6587.832884,8956.491898,229.828649
182.499727,5551.544565,8438.347739,-689.485948
182.500048,5033.400406,6069.688724,-1838.629195
182.500368,6217.729913,5773.606348,-1378.971896
182.500689,7402.059420,7031.956449,76.609550
182.501010,6957.935855,7105.977043,229.828649
182.501330,5847.626942,6143.709319,-383.047749
182.501651,5995.668130,6957.935855,229.828649
182.501972,5329.482782,9326.594869,2451.505594
182.502293,5403.503377,8956.491898,2681.334243
182.502613,4589.276840,6291.750507,1149.143247
182.502934,8068.244768,6217.729913,153.219100
182.503255,5477.523971,6587.832884,-995.924147
182.503576,3256.906145,5773.606348,-1532.190996
182.503897,4737.318029,7402.059420,-2068.457845
182.504217,6587.832884,8882.471304,-689.485948
182.504538,6809.894666,8734.430116,1225.752797
182.504859,7402.059420,8216.285956,1608.800546
182.505180,5255.462188,6883.915261,-459.657299
182.505500,4367.215058,7846.182985,-689.485948
182.505821,4293.194464,8364.327145,1302.362347
182.506142,6143.709319,7698.141797,1302.362347
182.506463,6735.874072,7105.977043,-76.609550
182.506783,6069.688724,6365.771101,-1762.019645
182.507104,4737.318029,7698.141797,-2221.676944
182.507425,3478.967927,9104.533087,-919.314598
182.507746,3552.988522,9696.697840,1378.971896
182.508066,5329.482782,9474.636058,2145.067394
182.508387,4219.173869,9696.697840,1685.410096
182.508708,2516.700203,10288.862594,1225.752797
182.509029,2368.659014,9992.780217,1225.752797
182.509349,1924.535449,8660.409521,-612.876398
182.509670,3478.967927,7328.038826,-2374.896044
182.509991,4219.173869,7402.059420,-2221.676944
182.510312,4885.359217,8882.471304,-2068.457845
182.510632,3997.112087,9548.656652,0.000000
182.510953,4071.132681,10807.006753,1838.629195
182.511274,4219.173869,9474.636058,536.266849
182.511595,4589.276840,7772.162391,-612.876398
182.511915,4737.318029,7550.100608,383.047749
182.512236,5033.400406,8660.409521,383.047749
182.512557,4737.318029,9474.636058,-1302.362347
182.512878,5033.400406,7105.977043,-2298.286494
182.513198,6069.688724,6957.935855,-2604.724693
182.513519,7402.059420,7550.100608,-766.095498
182.513840,5699.585753,9178.553681,306.438199
182.514161,5107.421000,8512.368333,383.047749
182.514482,5625.565159,8364.327145,766.095498
182.514802,4885.359217,9326.594869,1149.143247
182.515123,3849.070898,8068.244768,383.047749
182.515444,5329.482782,5847.626942,-919.314598
182.515765,4959.379811,5773.606348,-1991.848295
182.516085,4515.256246,5625.565159,-919.314598
182.516406,4441.235652,7846.182985,306.438199
182.516727,3997.112087,9326.594869,-1838.629195
182.517048,4663.297435,9326.594869,-2528.115143
182.517368,7402.059420,8734.430116,229.828649
182.517689,7105.977043,7698.141797,459.657299
182.518010,5255.462188,6661.853478,766.095498
182.518331,4959.379811,8142.265362,153.219100
182.518651,5625.565159,9178.553681,-383.047749
182.518972,5699.585753,7846.182985,-153.219100
182.519293,6957.935855,6661.853478,153.219100
182.519614,7105.977043,6291.750507,-995.924147
182.519934,5551.544565,7179.997637,-1225.752797
182.520255,5329.482782,8364.327145,383.047749
182.520576,6883.915261,7698.141797,2068.457845
182.520897,7698.141797,7105.977043,2681.334243
182.521217,5255.462188,6069.688724,1991.848295
182.521538,3775.050304,5921.647536,-612.876398
182.521859,4515.256246,7476.080014,-612.876398
182.522180,4959.379811,9400.615463,-689.485948
182.522500,5033.400406,7550.100608,-383.047749
182.522821,6069.688724,6735.874072,-2298.286494
182.523142,5181.441594,7846.182985,-1991.848295
182.523463,3552.988522,9326.594869,-536.266849
182.523784,2812.782580,9104.533087,383.047749
182.524104,4959.379811,8586.388927,-459.657299
182.524425,5403.503377,9178.553681,153.219100
182.524746,4515.256246,9844.739029,842.705048
182.525067,3923.091493,9696.697840,459.657299
182.525387,4071.132681,8586.388927,-689.485948
182.525708,3330.926739,7402.059420,-2221.676944
182.526029,4441.235652,6291.750507,-689.485948
182.526350,4589.276840,7105.977043,612.876398
182.526670,4959.379811,9400.615463,2068.457845
182.526991,4737.318029,10955.047942,1991.848295
182.527312,4589.276840,10362.883188,919.314598
182.527633,3404.947333,8512.368333,-383.047749
182.527953,4071.132681,7031.956449,76.609550
182.528274,3997.112087,6735.874072,459.657299
182.528595,4367.215058,7402.059420,612.876398
182.528916,3627.009116,7698.141797,-766.095498
182.529236,4811.338623,8586.388927,-1915.238745
182.529557,4219.173869,9548.656652,-1991.848295
182.529878,4959.379811,9696.697840,-766.095498
182.530199,5477.523971,8586.388927,153.219100
182.530519,4959.379811,7476.080014,1762.019645
182.530840,4145.153275,8660.409521,2221.676944
182.531161,4663.297435,9622.677246,842.705048
182.531482,3330.926739,7846.182985,-1225.752797
182.531802,5773.606348,6439.791695,-2451.505594
182.532123,7328.038826,7772.162391,-2145.067394
182.532444,4293.194464,7402.059420,-1378.971896
182.532765,4071.132681,7105.977043,-383.047749
182.533085,7179.997637,9030.512492,842.705048
182.533406,6217.729913,10214.842000,1225.752797
182.533727,5773.606348,9474.636058,766.095498
182.534048,4737.318029,7031.956449,-919.314598
182.534369,4811.338623,6957.935855,-1915.238745
182.534689,4589.276840,7328.038826,1838.629195
182.535010,5329.482782,6513.812290,2298.286494
182.535331,6883.915261,6217.729913,0.000000
182.535652,5995.668130,6069.688724,-842.705048
182.535972,4145.153275,7105.977043,-2145.067394
182.536293,4959.379811,6883.915261,-995.924147
182.536614,6513.812290,8068.244768,1378.971896
182.536935,8438.347739,9844.739029,2068.457845
182.537255,7846.182985,10066.800811,1378.971896
182.537576,4367.215058,7624.121203,-919.314598
182.537897,3701.029710,7031.956449,-2145.067394
182.538218,4293.194464,6143.709319,-536.266849
182.538538,4959.379811,6143.709319,-153.219100
182.538859,5847.626942,7254.018232,-536.266849
182.539180,5625.565159,9844.739029,-1225.752797
182.539501,4515.256246,10436.903782,-1072.533697
182.539821,4589.276840,9696.697840,612.876398
182.540142,3997.112087,8808.450710,536.266849
182.540463,4811.338623,7920.203579,0.000000
182.540784,3627.009116,7254.018232,1378.971896
182.541104,3404.947333,7179.997637,1225.752797
182.541425,3478.967927,7476.080014,536.266849
182.541746,3997.112087,7402.059420,-612.876398
182.542067,3775.050304,7994.224174,-2451.505594
182.542387,5625.565159,8438.347739,-2757.943793
182.542708,5699.585753,8808.450710,-1149.143247
182.543029,7550.100608,9400.615463,1455.581446
182.543350,6957.935855,9474.636058,2451.505594
182.543670,5477.523971,9474.636058,1455.581446
182.543991,4737.318029,8438.347739,-612.876398
182.544312,5773.606348,6735.874072,-1149.143247
182.544633,5329.482782,6513.812290,0.000000
182.544954,4737.318029,5773.606348,1608.800546
182.545274,4071.132681,6439.791695,1532.190996
182.545595,4811.338623,8364.327145,-612.876398
182.545916,4663.297435,9252.574275,-1991.848295
182.546237,6069.688724,8142.265362,-1991.848295
182.546557,6143.709319,7772.162391,-919.314598
182.546878,4959.379811,7550.100608,689.485948
182.547199,4737.318029,7476.080014,1685.410096
182.547520,5181.441594,7920.203579,459.657299
182.547840,5477.523971,7402.059420,-2068.457845
182.548161,4441.235652,8364.327145,-3217.601092
182.548482,4441.235652,8882.471304,-3064.381992
182.548803,3997.112087,7698.141797,-2221.676944
182.549123,5477.523971,8290.306550,459.657299
182.549444,6587.832884,8438.347739,1072.533697
182.549765,5699.585753,9918.759623,919.314598
182.550086,3108.864956,9326.594869,0.000000
182.550406,2664.741391,9400.615463,-612.876398
182.550727,3849.070898,9696.697840,1991.848295
182.551048,4145.153275,8734.430116,2451.505594
182.551369,3775.050304,7772.162391,1915.238745
182.551689,4293.194464,7920.203579,536.266849
182.552010,1998.556043,9474.636058,-766.095498
182.552331,1702.473667,9622.677246,-1149.143247
182.552652,3552.988522,8956.491898,-229.828649
182.552972,4737.318029,8438.347739,306.438199
182.553293,4589.276840,8586.388927,1762.019645
182.553614,6291.750507,8512.368333,2068.457845
182.553935,4367.215058,8882.471304,459.657299
182.554256,4663.297435,7624.121203,-1225.752797
182.554576,5477.523971,6291.750507,-1762.019645
182.554897,6513.812290,6587.832884,-1838.629195
182.555218,6439.791695,7402.059420,-842.705048
182.555539,6365.771101,7105.977043,-612.876398
182.555859,7920.203579,7550.100608,-1762.019645
182.556180,7550.100608,7550.100608,-995.924147
182.556501,5921.647536,7328.038826,0.000000
182.556822,7031.956449,6735.874072,-536.266849
182.557142,8216.285956,8068.244768,-153.219100
182.557463,6587.832884,8142.265362,1149.143247
182.557784,5181.441594,7105.977043,383.047749
182.558105,5477.523971,5699.585753,-306.438199
182.558425,4515.256246,6957.935855,-1149.143247
182.558746,3849.070898,7994.224174,-229.828649
182.559067,4737.318029,7105.977043,-536.266849
182.559388,4367.215058,5329.482782,-383.047749
182.559708,3997.112087,6957.935855,689.485948
182.560029,4737.318029,9622.677246,1302.362347
182.560350,2664.741391,9918.759623,459.657299
182.560671,3849.070898,8216.285956,-229.828649
182.560991,7179.997637,8290.306550,459.657299
182.561312,3034.844362,7254.018232,536.266849
182.561633,2368.659014,5921.647536,-1762.019645
182.561954,5033.400406,6809.894666,-1532.190996
182.562274,7105.977043,9770.718434,-1302.362347
182.562595,7846.182985,10584.944971,-1378.971896
182.562916,7994.224174,8882.471304,-2221.676944
182.563237,7105.977043,8438.347739,-1685.410096
182.563557,6217.729913,10362.883188,2451.505594
182.563878,5033.400406,8956.491898,3140.991542
182.564199,6439.791695,7550.100608,-306.438199
182.564520,6143.709319,7031.956449,-1991.848295
182.564841,4441.235652,7105.977043,-1455.581446
182.565161,3701.029710,7402.059420,-689.485948
182.565482,4663.297435,8364.327145,0.000000
182.565803,5329.482782,9918.759623,-383.047749
182.566124,5329.482782,8660.409521,0.000000
182.566444,5107.421000,8512.368333,-153.219100
182.566765,4293.194464,10140.821405,842.705048
182.567086,3701.029710,9992.780217,2451.505594
182.567407,3701.029710,8586.388927,1838.629195
182.567727,3404.947333,7328.038826,-766.095498
182.568048,5403.503377,7179.997637,-1149.143247
182.568369,4737.318029,8512.368333,-612.876398
182.568690,3923.091493,7920.203579,-1378.971896
182.569010,4441.235652,8290.306550,-1302.362347
182.569331,5329.482782,8660.409521,-383.047749
182.569652,5181.441594,8956.491898,1762.019645
182.569973,5403.503377,9326.594869,2528.115143
182.570293,4959.379811,8068.244768,612.876398
182.570614,3627.009116,7105.977043,-1302.362347
182.570935,3108.864956,7476.080014,-1915.238745
182.571256,3108.864956,6587.832884,-1608.800546
182.571576,4885.359217,6587.832884,-1072.533697
182.571897,6365.771101,7550.100608,-306.438199
182.572218,5921.647536,8512.368333,-1532.190996
182.572539,4515.256246,8512.368333,-1685.410096
182.572859,5699.585753,9622.677246,-459.657299
182.573180,4589.276840,9178.553681,1455.581446
182.573501,5921.647536,8068.244768,2451.505594
182.573822,5181.441594,5255.462188,1685.410096
182.574142,3923.091493,3849.070898,-766.095498
182.574463,3701.029710,6809.894666,-1991.848295
182.574784,4071.132681,9770.718434,-2298.286494
182.575105,3775.050304,8660.409521,-1762.019645
182.575426,8882.471304,8216.285956,689.485948
182.575746,9326.594869,9992.780217,3140.991542
182.576067,4663.297435,9548.656652,2068.457845
182.576388,1998.556043,7698.141797,0.000000
182.576709,4515.256246,7846.182985,-612.876398
182.577029,4885.359217,7846.182985,229.828649
182.577350,5403.503377,7698.141797,995.924147
182.577671,4589.276840,7698.141797,-2145.067394
182.577992,4811.338623,8660.409521,-3600.648841
182.578312,4219.173869,10436.903782,-153.219100
182.578633,4737.318029,9474.636058,383.047749
182.578954,5699.585753,7550.100608,0.000000
182.579275,5699.585753,7402.059420,689.485948
182.579595,4885.359217,8512.368333,1838.629195
182.579916,3923.091493,8808.450710,2834.553343
182.580237,4885.359217,7698.141797,383.047749
182.580558,5773.606348,6143.709319,-2528.115143
182.580878,6069.688724,5773.606348,-3217.601092
182.581199,7105.977043,8364.327145,-1532.190996
182.581520,5921.647536,9400.615463,306.438199
182.581841,5773.606348,7920.203579,689.485948
182.582161,7920.203579,8512.368333,1532.190996
182.582482,6439.791695,7846.182985,1455.581446
182.582803,4219.173869,7624.121203,1072.533697
182.583124,5033.400406,7105.977043,-459.657299
182.583444,5107.421000,6587.832884,-1608.800546
182.583765,3256.906145,6365.771101,-995.924147
182.584086,4145.153275,5699.585753,-995.924147
182.584407,4737.318029,6291.750507,-1378.971896
182.584727,5625.565159,10584.944971,-1072.533697
182.585048,3330.926739,11769.274478,-842.705048
182.585369,2368.659014,9770.718434,-1838.629195
182.585690,4441.235652,8882.471304,229.828649
182.586011,4293.194464,9400.615463,3294.210641
182.586331,1554.432478,7772.162391,1991.848295
182.586652,3256.906145,6587.832884,-2221.676944
182.586973,4071.132681,7994.224174,-4290.134789
182.587294,3775.050304,10066.800811,-2451.505594
182.587614,4589.276840,9696.697840,-383.047749
182.587935,7179.997637,9178.553681,383.047749
182.588256,7254.018232,8956.491898,1762.019645
182.588577,5403.503377,7402.059420,3064.381992
182.588897,4885.359217,7328.038826,1532.190996
182.589218,4663.297435,7846.182985,-612.876398
182.589539,3552.988522,7254.018232,-1072.533697
182.589860,7031.956449,6513.812290,-766.095498
182.590180,7550.100608,5995.668130,-612.876398
182.590501,5699.585753,6735.874072,-153.219100
182.590822,4737.318029,8512.368333,-766.095498
182.591143,5403.503377,9104.533087,-2221.676944
182.591463,5477.523971,8956.491898,-1532.190996
182.591784,7624.121203,8364.327145,842.705048
182.592105,6069.688724,8068.244768,1302.362347
182.592426,5033.400406,8808.450710,76.609550
182.592746,3404.947333,9030.512492,0.000000
182.593067,2886.803174,8142.265362,-1608.800546
182.593388,5625.565159,8956.491898,-1991.848295
182.593709,4293.194464,7402.059420,-689.485948
182.594029,2886.803174,6957.935855,-1149.143247
182.594350,4811.338623,7402.059420,1072.533697
182.594671,4071.132681,9178.553681,3217.601092
182.594992,3849.070898,8808.450710,2451.505594
182.595313,5847.626942,8734.430116,842.705048
182.595633,4959.379811,8882.471304,-689.485948
182.595954,4071.132681,8438.347739,-919.314598
182.596275,4959.379811,6957.935855,-612.876398
182.596596,6291.750507,5625.565159,-689.485948
182.596916,5995.668130,5699.585753,-2145.067394
182.597237,6069.688724,7254.018232,-1532.190996
182.597558,4959.379811,8290.306550,-842.705048
182.597879,5995.668130,9252.574275,76.609550
182.598199,5033.400406,8808.450710,1225.752797
182.598520,6291.750507,8734.430116,1149.143247
182.598841,5255.462188,6957.935855,-306.438199
182.599162,5773.606348,6365.771101,-383.047749
182.599482,3849.070898,6439.791695,-1608.800546
182.599803,4589.276840,6365.771101,-1762.019645
182.600124,3997.112087,6957.935855,-2451.505594
182.600445,5551.544565,8956.491898,-2221.676944
182.600765,5255.462188,10732.986159,0.000000
182.601086,5921.647536,11029.068536,1149.143247
182.601407,4293.194464,9474.636058,766.095498
182.601728,4663.297435,9326.594869,229.828649
182.602048,2812.782580,10362.883188,76.609550
182.602369,1776.494261,9326.594869,0.000000
182.602690,2072.576638,8142.265362,-459.657299
182.603011,4885.359217,8290.306550,306.438199
182.603331,4959.379811,8660.409521,1838.629195
182.603652,3701.029710,8216.285956,995.924147
182.603973,1480.411884,6735.874072,-995.924147
182.604294,3997.112087,7994.224174,-229.828649
182.604615,4737.318029,8734.430116,2298.286494
182.604935,5551.544565,8512.368333,2374.896044
182.605256,7698.141797,8068.244768,-459.657299
182.605577,5699.585753,9030.512492,-2681.334243
182.605898,6439.791695,9030.512492,-2528.115143
182.606218,5847.626942,7179.997637,-1455.581446
182.606539,5477.523971,6143.709319,-1378.971896
182.606860,7846.182985,7179.997637,-1072.533697
182.607181,6735.874072,8438.347739,-1072.533697
182.607501,5107.421000,7624.121203,-2757.943793
182.607822,7402.059420,9178.553681,-1149.143247
182.608143,6735.874072,9622.677246,1302.362347
182.608464,5329.482782,9326.594869,536.266849
182.608784,3849.070898,7179.997637,0.000000
182.609105,3627.009116,5033.400406,-1149.143247
182.609426,3923.091493,6291.750507,536.266849
182.609747,4071.132681,7550.100608,1532.190996
182.610068,2590.720797,8512.368333,-1072.533697
182.610388,4663.297435,8808.450710,-2604.724693
182.610709,3923.091493,9030.512492,153.219100
182.611030,4959.379811,10807.006753,2604.724693
182.611351,3849.070898,8808.450710,2298.286494
182.611671,3849.070898,6365.771101,-766.095498
182.611992,4959.379811,6439.791695,-1685.410096
182.612313,5255.462188,8068.244768,0.000000
182.612634,5255.462188,8290.306550,536.266849
182.612954,6513.812290,7920.203579,383.047749
182.613275,5995.668130,9104.533087,-842.705048
182.613596,5699.585753,9992.780217,-689.485948
182.613917,4737.318029,8438.347739,-306.438199
182.614238,6661.853478,6513.812290,306.438199
182.614558,5847.626942,7031.956449,1762.019645
182.614879,5033.400406,7476.080014,1762.019645
182.615200,4367.215058,7402.059420,-229.828649
182.615521,4293.194464,7624.121203,-1762.019645
182.615841,4441.235652,8290.306550,-1685.410096
182.616162,5403.503377,7698.141797,-459.657299
182.616483,4071.132681,7550.100608,-995.924147
182.616804,4663.297435,8290.306550,-919.314598
182.617124,3997.112087,9474.636058,-383.047749
182.617445,3478.967927,9548.656652,0.000000
182.617766,3478.967927,9474.636058,-459.657299
182.618087,3849.070898,8808.450710,0.000000
182.618407,4219.173869,9548.656652,995.924147
182.618728,4811.338623,8734.430116,1072.533697
182.619049,4293.194464,7031.956449,536.266849
182.619370,4737.318029,5625.565159,229.828649
182.619691,5995.668130,7772.162391,1455.581446
182.620011,5847.626942,8956.491898,1915.238745
182.620332,5773.606348,7105.977043,766.095498
182.620653,8142.265362,5403.503377,0.000000
182.620974,8660.409521,5329.482782,229.828649
182.621294,7920.203579,6291.750507,766.095498
182.621615,8216.285956,5107.421000,-229.828649
182.621936,9770.718434,4663.297435,-1838.629195
182.622257,12435.459826,5995.668130,-842.705048
182.622577,10955.047942,5329.482782,153.219100
182.622898,10066.800811,4367.215058,-2221.676944
182.623219,10584.944971,3923.091493,-1915.238745
182.623540,10658.965565,4811.338623,-459.657299
182.623860,10732.986159,4441.235652,-766.095498
182.624181,10732.986159,4737.318029,-1225.752797
182.624502,8586.388927,4737.318029,-2221.676944
182.624823,7550.100608,6957.935855,-1685.410096
182.625144,6809.894666,5329.482782,383.047749
182.625464,8216.285956,5255.462188,0.000000
182.625785,8956.491898,6069.688724,459.657299
182.626106,6809.894666,7920.203579,-306.438199
182.626427,4959.379811,8586.388927,-612.876398
182.626747,5329.482782,8734.430116,383.047749
182.627068,6735.874072,8956.491898,2374.896044
182.627389,7031.956449,7624.121203,2604.724693
182.627710,6957.935855,5329.482782,842.705048
182.628030,7772.162391,5033.400406,-383.047749
182.628351,7550.100608,6365.771101,919.314598
182.628672,7550.100608,4441.235652,1685.410096
182.628993,9844.739029,2516.700203,1455.581446
182.629314,10955.047942,2886.803174,536.266849
182.629634,12139.377449,5033.400406,536.266849
182.629955,13545.768739,5773.606348,-153.219100
182.630276,13249.686362,5699.585753,-1685.410096
182.630597,13471.748144,4589.276840,-2221.676944
182.630917,14285.974681,3552.988522,-1072.533697
182.631238,14137.933492,3108.864956,-919.314598
182.631559,12879.583391,4219.173869,-1225.752797
182.631880,12657.521608,5329.482782,-2298.286494
182.632200,10362.883188,4737.318029,-2298.286494
182.632521,9770.718434,4589.276840,-1378.971896
182.632842,10955.047942,4737.318029,229.828649
182.633163,8660.409521,6217.729913,612.876398
182.633483,7402.059420,6365.771101,153.219100
182.633804,5847.626942,6217.729913,153.219100
182.634125,6587.832884,6439.791695,383.047749
182.634446,6217.729913,6513.812290,995.924147
182.634767,5699.585753,7254.018232,1455.581446
182.635087,5477.523971,7476.080014,1302.362347
182.635408,5033.400406,7179.997637,2451.505594
182.635729,4737.318029,6439.791695,2221.676944
182.636050,6661.853478,6069.688724,1378.971896
182.636370,7476.080014,5699.585753,612.876398
182.636691,7920.203579,4811.338623,153.219100
182.637012,10140.821405,5033.400406,766.095498
182.637333,11029.068536,4441.235652,153.219100
182.637653,11843.295072,4145.153275,-459.657299
182.637974,11917.315666,3552.988522,-689.485948
182.638295,12657.521608,4071.132681,-1149.143247
182.638616,13841.851115,4737.318029,-1302.362347
182.638937,13175.665768,4367.215058,-2221.676944
182.639257,13767.830521,4737.318029,-2757.943793
182.639578,12583.501014,4811.338623,-1762.019645
182.639899,10288.862594,3849.070898,-1302.362347
182.640220,10362.883188,4145.153275,-1685.410096
182.640540,9770.718434,4737.318029,-1762.019645
182.640861,8142.265362,4737.318029,-1225.752797
182.641182,7994.224174,5181.441594,383.047749
182.641503,7920.203579,5773.606348,383.047749
182.641823,6513.812290,7476.080014,0.000000
182.642144,6957.935855,7994.224174,-153.219100
182.642465,6143.709319,8438.347739,-689.485948
182.642786,5329.482782,8808.450710,-536.266849
182.643106,5403.503377,8290.306550,1838.629195
182.643427,5847.626942,7698.141797,2681.334243
182.643748,5699.585753,7550.100608,1685.410096
182.644069,6809.894666,7772.162391,1455.581446
182.644390,6809.894666,6883.915261,1149.143247
182.644710,7550.100608,4515.256246,995.924147
182.645031,9622.677246,2960.823768,1838.629195
182.645352,11325.150913,3997.112087,1915.238745
182.645673,11251.130318,5625.565159,306.438199
182.645993,12583.501014,5699.585753,-1225.752797
182.646314,13249.686362,3404.947333,-2451.505594
182.646635,13989.892304,1184.329507,-1225.752797
182.646956,15248.242405,2146.597232,229.828649
182.647276,15100.201217,4441.235652,-1149.143247
182.647597,13249.686362,5921.647536,-3217.601092
182.647918,12805.562797,6069.688724,-3677.258390
182.648239,13619.789333,5181.441594,-2451.505594
182.648560,12139.377449,2886.803174,-229.828649
182.648880,10288.862594,2664.741391,459.657299
182.649201,8956.491898,3627.009116,-995.924147
182.649522,7105.977043,4811.338623,-2604.724693
182.649843,6661.853478,5477.523971,-995.924147
182.650163,7105.977043,5107.421000,766.095498
182.650484,6661.853478,6439.791695,1685.410096
182.650805,4663.297435,7698.141797,1378.971896
182.651126,3775.050304,8438.347739,0.000000
182.651446,4663.297435,8734.430116,229.828649
182.651767,5329.482782,9622.677246,1838.629195
182.652088,5699.585753,9030.512492,2528.115143
182.652409,5329.482782,7920.203579,1915.238745
182.652729,4959.379811,6735.874072,842.705048
182.653050,5551.544565,5477.523971,1302.362347
182.653371,7402.059420,3701.029710,1915.238745
182.653692,9844.739029,2960.823768,1608.800546
182.654013,11769.274478,3849.070898,766.095498
182.654333,12065.356855,5551.544565,76.609550
182.654654,12583.501014,5329.482782,-612.876398
182.654975,13545.768739,3552.988522,-1072.533697
182.655296,14359.995275,1406.391290,-1225.752797
182.655616,15100.201217,1554.432478,-1762.019645
182.655937,15396.283594,2368.659014,-2911.162892
182.656258,14656.077652,4811.338623,-3907.087040
182.656579,14434.015869,7105.977043,-3907.087040
182.656899,13915.871710,7105.977043,-2604.724693
182.657220,12657.521608,6069.688724,-612.876398
182.657541,10807.006753,4737.318029,689.485948
182.657862,8068.244768,3256.906145,842.705048
182.658183,6587.832884,2516.700203,0.000000
182.658503,5625.565159,3108.864956,153.219100
182.658824,5921.647536,4589.276840,689.485948
182.659145,6883.915261,7254.018232,1608.800546
182.659466,6735.874072,9400.615463,1762.019645
182.659786,5625.565159,9178.553681,1685.410096
182.660107,4885.359217,7846.182985,1685.410096
182.660428,4959.379811,5699.585753,2221.676944
182.660749,4959.379811,4441.235652,1915.238745
182.661069,6217.729913,4219.173869,919.314598
182.661390,7994.224174,5033.400406,-229.828649
182.661711,9548.656652,6513.812290,-919.314598
182.662032,10732.986159,7179.997637,-842.705048
182.662352,11769.274478,6809.894666,-842.705048
182.662673,12213.398043,5329.482782,-842.705048
182.662994,13027.624579,3404.947333,459.657299
182.663315,12435.459826,2146.597232,306.438199
182.663636,11547.212695,2368.659014,-766.095498
182.663956,11473.192101,3478.967927,-2451.505594
182.664277,11769.274478,4811.338623,-3447.429741
182.664598,11917.315666,6439.791695,-3370.820191
182.664919,13323.706956,7402.059420,-3447.429741
182.665239,11843.295072,7476.080014,-2068.457845
182.665560,10362.883188,6513.812290,0.000000
182.665881,8808.450710,5181.441594,1838.629195
182.666202,7402.059420,5033.400406,2604.724693
182.666522,6661.853478,5329.482782,2298.286494
182.666843,6439.791695,6069.688724,536.266849
182.667164,6217.729913,7179.997637,-766.095498
182.667485,6809.894666,7105.977043,-383.047749
182.667806,6661.853478,5995.668130,153.219100
182.668126,6735.874072,5181.441594,1225.752797
182.668447,6957.935855,5255.462188,1991.848295
182.668768,6661.853478,6069.688724,2068.457845
182.669089,7179.997637,6513.812290,1532.190996
182.669409,8364.327145,6143.709319,1149.143247
182.669730,9474.636058,6069.688724,536.266849
182.670051,10584.944971,6291.750507,-842.705048
182.670372,10362.883188,6735.874072,-1685.410096
182.670692,10510.924376,6735.874072,-2145.067394
182.671013,10881.027347,5995.668130,-1608.800546
182.671334,11399.171507,4663.297435,-612.876398
182.671655,10881.027347,3552.988522,306.438199
182.671975,10214.842000,2664.741391,995.924147
182.672296,10510.924376,2294.638420,995.924147
182.672617,10807.006753,2072.576638,-153.219100
182.672938,11251.130318,1554.432478,-1378.971896
182.673259,11473.192101,2516.700203,-1991.848295
182.673579,11769.274478,3849.070898,-1762.019645
182.673900,11695.253884,5773.606348,-1915.238745
182.674221,12139.377449,7328.038826,-2298.286494
182.674542,11843.295072,7476.080014,-2145.067394
182.674862,11177.109724,7402.059420,-1378.971896
182.675183,9770.718434,7031.956449,0.000000
182.675504,8586.388927,6809.894666,1455.581446
182.675825,7846.182985,5477.523971,2451.505594
182.676145,6735.874072,4737.318029,2451.505594
182.676466,6291.750507,4219.173869,2757.943793
182.676787,6069.688724,4441.235652,2451.505594
182.677108,5995.668130,3849.070898,1762.019645
182.677429,6661.853478,3627.009116,919.314598
182.677749,7698.141797,4589.276840,689.485948
182.678070,8734.430116,5699.585753,76.609550
182.678391,9474.636058,7254.018232,-229.828649
182.678712,10362.883188,8216.285956,0.000000
182.679032,10955.047942,8216.285956,-842.705048
182.679353,11103.089130,7698.141797,-919.314598
182.679674,10658.965565,6735.874072,-689.485948
182.679995,10362.883188,5181.441594,-766.095498
182.680315,9918.759623,3701.029710,-1072.533697
182.680636,9844.739029,2812.782580,-1072.533697
182.680957,10066.800811,2442.679609,-689.485948
182.681278,10066.800811,3330.926739,0.000000
182.681598,10288.862594,4811.338623,153.219100
182.681919,10214.842000,7031.956449,612.876398
182.682240,9918.759623,7994.224174,612.876398
182.682561,8734.430116,8290.306550,842.705048
182.682882,7031.956449,7920.203579,766.095498
182.683202,5921.647536,7772.162391,766.095498
182.683523,4737.318029,7698.141797,229.828649
182.683844,4071.132681,7624.121203,-536.266849
182.684165,3923.091493,7550.100608,-459.657299
182.684485,3997.112087,7624.121203,229.828649
182.684806,3404.947333,8438.347739,995.924147
182.685127,3552.988522,9992.780217,2528.115143
182.685448,4071.132681,9918.759623,3217.601092
182.685768,4959.379811,10436.903782,3907.087040
182.686089,5477.523971,9548.656652,3907.087040
182.686410,5329.482782,8142.265362,3524.039291
182.686731,5107.421000,7402.059420,2911.162892
182.687052,5403.503377,7402.059420,3064.381992
182.687372,5847.626942,8364.327145,2834.553343
182.687693,7179.997637,9474.636058,2911.162892
182.688014,7994.224174,10214.842000,2681.334243
182.688335,7328.038826,9474.636058,3830.477490
182.688655,7698.141797,8512.368333,4519.963438
182.688976,7105.977043,7624.121203,4826.401637
182.689297,7105.977043,7254.018232,4826.401637
182.689618,7254.018232,7550.100608,4213.525239
182.689938,7105.977043,7920.203579,4290.134789
182.690259,7402.059420,8438.347739,5132.839837
182.690580,7624.121203,9326.594869,6665.030833
182.690901,7105.977043,9548.656652,7354.516781
182.691221,6439.791695,8808.450710,7507.735880
182.691542,5921.647536,7846.182985,7507.735880
182.691863,5181.441594,6735.874072,7431.126331
182.692184,4811.338623,5329.482782,7737.564530
182.692505,4737.318029,5329.482782,7814.174080
182.692825,5107.421000,5773.606348,7277.907231
182.693146,5107.421000,7328.038826,6741.640382
182.693467,4885.359217,8216.285956,6665.030833
182.693788,4589.276840,7846.182985,6818.249932
182.694108,4293.194464,7402.059420,7354.516781
182.694429,4145.153275,6735.874072,8044.002729
182.694750,3552.988522,6143.709319,7354.516781
182.695071,3256.906145,5773.606348,6511.811733
182.695391,3034.844362,5551.544565,6281.983084
182.695712,2664.741391,5847.626942,5515.887586
182.696033,2738.761985,5625.565159,5286.058936
182.696354,2738.761985,6365.771101,5592.497135
182.696674,3552.988522,6217.729913,6128.763984
182.696995,3701.029710,6809.894666,6205.373534
182.697316,3849.070898,7179.997637,6588.421283
182.697637,3701.029710,7254.018232,6665.030833
182.697958,4219.173869,7476.080014,6435.202183
182.698278,4145.153275,7105.977043,5056.230287
182.698599,3701.029710,6365.771101,4596.572988
182.698920,3256.906145,5403.503377,3830.477490
182.699241,4071.132681,5181.441594,4136.915689
182.699561,3997.112087,5625.565159,4213.525239
182.699882,3552.988522,6439.791695,3064.381992
182.700203,4293.194464,7476.080014,2145.067394
182.700524,5403.503377,8882.471304,3140.991542
182.700844,5625.565159,9548.656652,4673.182538
182.701165,5921.647536,10436.903782,4213.525239
182.701486,5921.647536,10510.924376,3064.381992
182.701807,6439.791695,9918.759623,3370.820191
182.702128,6661.853478,9474.636058,5898.935335
182.702448,5477.523971,9918.759623,6128.763984
182.702769,5255.462188,9844.739029,5745.716235
182.703090,4737.318029,9696.697840,5822.325785
182.703411,3701.029710,8290.306550,5592.497135
182.703731,3108.864956,5403.503377,4443.353888
182.704052,3849.070898,2442.679609,2911.162892
182.704373,3849.070898,2812.782580,1072.533697
182.704694,4589.276840,5255.462188,-536.266849
182.705014,6883.915261,9844.739029,-1685.410096
182.705335,9178.553681,14804.118840,-2757.943793
182.705656,10066.800811,17987.004391,-2068.457845
182.705977,10584.944971,18875.251521,306.438199
182.706297,9844.739029,17246.798449,3370.820191
182.706618,7772.162391,13693.809927,4979.620737
182.706939,5107.421000,9252.574275,6818.249932
182.707260,5255.462188,6883.915261,7584.345430
182.707581,1776.494261,5181.441594,7277.907231
182.707901,-296.082377,5329.482782,6588.421283
182.708222,666.185348,5329.482782,5898.935335
182.708543,2516.700203,4737.318029,4519.963438
182.708864,3330.926739,3923.091493,4060.306139
182.709184,5329.482782,6365.771101,4290.134789
182.709505,6291.750507,10362.883188,2834.553343
182.709826,6513.812290,14137.933492,2068.457845
182.710147,7402.059420,15174.221811,1532.190996
182.710467,9992.780217,16062.468941,1762.019645
182.710788,9696.697840,14434.015869,2757.943793
182.711109,6291.750507,9992.780217,3983.696590
182.711430,5033.400406,5403.503377,5515.887586
182.711750,5107.421000,2886.803174,7201.297681
182.712071,1776.494261,3256.906145,6128.763984
182.712392,1924.535449,4515.256246,4903.011187
182.712713,4145.153275,6809.894666,5209.449386
182.713034,4589.276840,6809.894666,6128.763984
182.713354,5107.421000,6439.791695,7660.954980
182.713675,6143.709319,6809.894666,9039.926876
182.713996,5551.544565,10140.821405,8810.098227
182.714317,2812.782580,12213.398043,6971.469032
182.714637,2516.700203,9918.759623,5286.058936
182.714958,4959.379811,7550.100608,3064.381992
182.715279,5551.544565,5551.544565,5669.106685
182.715600,4663.297435,7105.977043,9652.803275
182.715920,3478.967927,8882.471304,9806.022374
182.716241,1258.350101,9178.553681,6435.202183
182.716562,1998.556043,7550.100608,5132.839837
182.716883,3256.906145,4219.173869,6358.592633
182.717204,2590.720797,814.226536,7354.516781
182.717524,4737.318029,1998.556043,8120.612279
182.717845,6587.832884,7402.059420,7967.393179
182.718166,5699.585753,11399.171507,6128.763984
182.718487,4071.132681,10807.006753,4903.011187
182.718807,4737.318029,7920.203579,5056.230287
182.719128,3627.009116,5181.441594,6205.373534
182.719449,814.226536,2960.823768,7354.516781
182.719770,3627.009116,4145.153275,7737.564530
182.720090,6365.771101,8290.306550,7431.126331
182.720411,2960.823768,12361.439231,4596.572988
182.720732,3775.050304,13545.768739,2221.676944
182.721053,5551.544565,12361.439231,1608.800546
182.721373,3552.988522,8068.244768,4213.525239
182.721694,2590.720797,3330.926739,7584.345430
182.722015,5477.523971,740.205942,7584.345430
182.722336,5773.606348,3775.050304,6741.640382
182.722657,2886.803174,6957.935855,5286.058936
182.722977,3849.070898,8438.347739,4443.353888
182.723298,7179.997637,11177.109724,4290.134789
182.723619,6143.709319,12139.377449,6665.030833
182.723940,6291.750507,10362.883188,7584.345430
182.724260,8216.285956,7698.141797,5822.325785
182.724581,6291.750507,7402.059420,3294.210641
182.724902,3034.844362,5921.647536,1762.019645
182.725223,4959.379811,5329.482782,842.705048
182.725543,7846.182985,8216.285956,2451.505594
182.725864,6513.812290,11769.274478,5515.887586
182.726185,5921.647536,12361.439231,6435.202183
182.726506,7179.997637,11769.274478,3753.867940
182.726826,5477.523971,10658.965565,2757.943793
182.727147,4441.235652,10288.862594,4443.353888
182.727468,4959.379811,9400.615463,5592.497135
182.727789,4663.297435,9252.574275,4060.306139
182.728110,3108.864956,9918.759623,4366.744339
182.728430,3552.988522,10066.800811,4903.011187
182.728751,4885.359217,10140.821405,3830.477490
182.729072,4145.153275,9474.636058,4673.182538
182.729393,3552.988522,9400.615463,4903.011187
182.729713,4811.338623,7402.059420,5209.449386
182.730034,5995.668130,6661.853478,5515.887586
182.730355,5699.585753,7550.100608,5745.716235
182.730676,6735.874072,8882.471304,3830.477490
182.730996,7254.018232,9104.533087,2145.067394
182.731317,6661.853478,7846.182985,2528.115143
182.731638,7846.182985,7772.162391,4519.963438
182.731959,9326.594869,7994.224174,4903.011187
182.732279,6735.874072,8068.244768,4136.915689
182.732600,4293.194464,7624.121203,3600.648841
182.732921,5329.482782,7105.977043,3600.648841
182.733242,5847.626942,6143.709319,4519.963438
182.733563,4441.235652,4515.256246,5209.449386
182.733883,4589.276840,6217.729913,4060.306139
182.734204,2738.761985,8512.368333,3983.696590
182.734525,1554.432478,8512.368333,4366.744339
182.734846,2590.720797,6439.791695,4749.792088
182.735166,5181.441594,6513.812290,4979.620737
182.735487,4737.318029,9326.594869,5592.497135
182.735808,3627.009116,12583.501014,4826.401637
182.736129,2368.659014,12879.583391,3447.429741
182.736449,2738.761985,10584.944971,4903.011187
182.736770,4589.276840,7476.080014,7431.126331
182.737091,4737.318029,6291.750507,8350.440928
182.737412,3108.864956,7772.162391,7277.907231
182.737733,1406.391290,9326.594869,6128.763984
182.738053,2590.720797,7846.182985,5209.449386
182.738374,4663.297435,4737.318029,6511.811733
182.738695,5847.626942,4737.318029,8273.831378
182.739016,5847.626942,6587.832884,8427.050478
182.739336,4441.235652,7772.162391,5669.106685
182.739657,4737.318029,7031.956449,3294.210641
182.739978,7994.224174,7179.997637,4290.134789
182.740299,10066.800811,8068.244768,6818.249932
182.740619,8512.368333,9622.677246,7584.345430
182.740940,6661.853478,10732.986159,5745.716235
182.741261,5477.523971,9696.697840,2911.162892
182.741582,5403.503377,5995.668130,3370.820191
182.741902,6883.915261,4071.132681,5898.935335
182.742223,6439.791695,5107.421000,6665.030833
182.742544,2738.761985,6439.791695,4443.353888
182.742865,1628.453072,6957.935855,2451.505594
182.743186,3182.885551,7105.977043,2757.943793
182.743506,4293.194464,7698.141797,5132.839837
182.743827,3478.967927,8364.327145,5515.887586
182.744148,3701.029710,9622.677246,2987.772442
182.744469,2442.679609,8956.491898,2374.896044
182.744789,3552.988522,9548.656652,3753.867940
182.745110,4737.318029,9992.780217,4749.792088
182.745431,3034.844362,9844.739029,4290.134789
182.745752,3701.029710,11103.089130,3753.867940
182.746072,3849.070898,10732.986159,4519.963438
182.746393,2738.761985,7476.080014,4290.134789
182.746714,3034.844362,4071.132681,4519.963438
182.747035,3923.091493,4367.215058,3983.696590
182.747355,1998.556043,4145.153275,3677.258390
182.747676,3997.112087,5847.626942,1915.238745
182.747997,7772.162391,7328.038826,-689.485948
182.748318,7402.059420,7698.141797,-1532.190996
182.748639,7920.203579,7624.121203,919.314598
182.748959,9992.780217,9252.574275,1455.581446
182.749280,8142.265362,8216.285956,76.609550
182.749601,6735.874072,6735.874072,-1225.752797
182.749922,9770.718434,7550.100608,-2834.553343
182.750242,9030.512492,9326.594869,-1532.190996
182.750563,6217.729913,9548.656652,1149.143247
182.750884,7105.977043,9474.636058,76.609550
182.751205,6365.771101,7105.977043,-1532.190996
182.751525,2590.720797,4515.256246,0.000000
182.751846,4515.256246,5255.462188,919.314598
182.752167,4959.379811,7698.141797,0.000000
182.752488,3256.906145,9992.780217,0.000000
182.752809,3849.070898,10362.883188,-766.095498
182.753129,5699.585753,10066.800811,0.000000
182.753450,4959.379811,10584.944971,1915.238745
182.753771,3256.906145,9622.677246,2221.676944
182.754092,3182.885551,9844.739029,-1915.238745
182.754412,4071.132681,9178.553681,-2757.943793
182.754733,5033.400406,9252.574275,-995.924147
182.755054,6069.688724,9030.512492,76.609550
182.755375,6439.791695,11399.171507,306.438199
182.755695,5921.647536,11695.253884,689.485948
182.756016,4737.318029,8290.306550,-536.266849
182.756337,5921.647536,4663.297435,-2221.676944
182.756658,6661.853478,3775.050304,-689.485948
182.756978,6735.874072,5403.503377,-76.609550
182.757299,8142.265362,9252.574275,-1378.971896
182.757620,6661.853478,10658.965565,-2374.896044
182.757941,5995.668130,9696.697840,-3447.429741
182.758262,7402.059420,6365.771101,-2451.505594
182.758582,7105.977043,6291.750507,-3370.820191
182.758903,5551.544565,7846.182985,-2145.067394
182.759224,5329.482782,11177.109724,-1915.238745
182.759545,6291.750507,12213.398043,-2987.772442
182.759865,4959.379811,9992.780217,-1532.190996
182.760186,3552.988522,8512.368333,1608.800546
182.760507,4441.235652,9030.512492,3524.039291
182.760828,1924.535449,10362.883188,2911.162892
182.761148,-444.123565,8216.285956,-229.828649
182.761469,1924.535449,5847.626942,-766.095498
182.761790,4293.194464,5255.462188,2834.553343
182.762111,2146.597232,5625.565159,4749.792088
182.762431,2516.700203,8438.347739,2451.505594
182.762752,3775.050304,10732.986159,-2068.457845
182.763073,4219.173869,11029.068536,-1915.238745
182.763394,5921.647536,9696.697840,2451.505594
182.763715,9696.697840,9326.594869,4060.306139
182.764035,6587.832884,9400.615463,1608.800546
182.764356,3997.112087,9104.533087,-1225.752797
182.764677,5255.462188,7846.182985,-1991.848295
182.764998,7105.977043,6143.709319,842.705048
182.765318,5625.565159,5181.441594,3064.381992
182.765639,6291.750507,5477.523971,1302.362347
182.765960,3997.112087,5625.565159,-1378.971896
182.766281,4515.256246,6291.750507,-383.047749
182.766601,6661.853478,7105.977043,766.095498
182.766922,7328.038826,6587.832884,459.657299
182.767243,5995.668130,6587.832884,-459.657299
182.767564,5699.585753,7105.977043,-306.438199
182.767884,5329.482782,8512.368333,459.657299
182.768205,5551.544565,7698.141797,1455.581446
182.768526,5255.462188,6069.688724,0.000000
182.768847,4737.318029,5181.441594,-1685.410096
182.769168,3034.844362,6365.771101,-995.924147
182.769488,2738.761985,7328.038826,153.219100
182.769809,3775.050304,7772.162391,-766.095498
182.770130,3627.009116,6735.874072,-1149.143247
182.770451,3182.885551,6069.688724,-842.705048
182.770771,2664.741391,5107.421000,0.000000
182.771092,4441.235652,5551.544565,536.266849
182.771413,4367.215058,5773.606348,-383.047749
182.771734,4663.297435,7920.203579,-3447.429741
182.772054,4811.338623,9474.636058,-4366.744339
182.772375,5403.503377,10436.903782,-1838.629195
182.772696,7105.977043,9252.574275,612.876398
182.773017,7105.977043,8734.430116,229.828649
182.773338,3478.967927,7105.977043,-3753.867940
182.773658,2960.823768,5625.565159,-5822.325785
182.773979,5329.482782,6291.750507,-4673.182538
182.774300,6661.853478,8216.285956,-2451.505594
182.774621,6513.812290,9252.574275,-2681.334243
182.774941,6809.894666,10955.047942,-4749.792088
182.775262,5921.647536,11991.336260,-4290.134789
182.775583,6365.771101,11695.253884,0.000000
182.775904,6809.894666,9622.677246,689.485948
182.776224,7031.956449,7920.203579,-2221.676944
182.776545,4811.338623,8438.347739,-3447.429741
182.776866,4515.256246,9326.594869,-2374.896044
182.777187,5181.441594,9992.780217,-612.876398
182.777507,6883.915261,10881.027347,0.000000
182.777828,5181.441594,11029.068536,-1072.533697
182.778149,4589.276840,9770.718434,-2221.676944
182.778470,4293.194464,10584.944971,-2068.457845
182.778791,5181.441594,11029.068536,-383.047749
182.779111,5773.606348,10732.986159,919.314598
182.779432,7031.956449,9918.759623,229.828649
182.779753,4219.173869,9696.697840,-1072.533697
182.780074,4145.153275,10807.006753,-842.705048
182.780394,4811.338623,11547.212695,-306.438199
182.780715,5181.441594,9030.512492,-842.705048
182.781036,5181.441594,6217.729913,-459.657299
182.781357,5329.482782,5625.565159,306.438199
182.781677,4589.276840,6587.832884,0.000000
182.781998,4811.338623,8586.388927,0.000000
182.782319,5181.441594,9696.697840,-995.924147
182.782640,5255.462188,7994.224174,-2298.286494
182.782960,5921.647536,6291.750507,-2068.457845
182.783281,5847.626942,5773.606348,-1532.190996
182.783602,6661.853478,7254.018232,612.876398
182.783923,5329.482782,7550.100608,1532.190996
182.784244,5181.441594,8808.450710,-919.314598
182.784564,3701.029710,7476.080014,-2068.457845
182.784885,3182.885551,6291.750507,0.000000
182.785206,5403.503377,5329.482782,3064.381992
182.785527,5921.647536,6069.688724,3064.381992
182.785847,2220.617826,6069.688724,383.047749
182.786168,2146.597232,5107.421000,-1991.848295
182.786489,4145.153275,3997.112087,-1072.533697
182.786810,3552.988522,4441.235652,2451.505594
182.787130,2368.659014,4589.276840,2374.896044
182.787451,4737.318029,7254.018232,-1455.581446
182.787772,3923.091493,9030.512492,-3217.601092
182.788093,4441.235652,8586.388927,76.609550
182.788413,6217.729913,7550.100608,2298.286494
182.788734,6069.688724,7698.141797,1455.581446
182.789055,2960.823768,8216.285956,-306.438199
182.789376,3478.967927,8586.388927,-842.705048
182.789697,4811.338623,7698.141797,-1455.581446
182.790017,5773.606348,6439.791695,842.705048
182.790338,5625.565159,7772.162391,1685.410096
182.790659,4515.256246,7179.997637,-306.438199
182.790980,1184.329507,6513.812290,-1915.238745
182.791300,3849.070898,7698.141797,459.657299
182.791621,6365.771101,9252.574275,1072.533697
182.791942,6143.709319,9178.553681,306.438199
182.792263,6143.709319,9918.759623,-459.657299
182.792583,5033.400406,10807.006753,-995.924147
182.792904,4811.338623,11177.109724,-229.828649
182.793225,4589.276840,8660.409521,842.705048
182.793546,4737.318029,7105.977043,-76.609550
182.793867,5403.503377,7328.038826,-229.828649
182.794187,4811.338623,10732.986159,76.609550
182.794508,4959.379811,10288.862594,-1378.971896
182.794829,5403.503377,9474.636058,-1225.752797
182.795150,6735.874072,9326.594869,0.000000
182.795470,5107.421000,8512.368333,229.828649
182.795791,3478.967927,7105.977043,-995.924147
182.796112,5773.606348,7105.977043,-1991.848295
182.796433,6513.812290,7476.080014,-1608.800546
182.796753,6513.812290,9252.574275,-2298.286494
182.797074,6291.750507,10584.944971,-2068.457845
182.797395,6439.791695,10955.047942,-1455.581446
182.797716,6143.709319,9252.574275,459.657299
182.798036,6143.709319,7698.141797,919.314598
182.798357,3701.029710,7328.038826,-1072.533697
182.798678,4071.132681,8512.368333,-1532.190996
182.798999,3997.112087,8068.244768,-995.924147
182.799320,4219.173869,6069.688724,-1378.971896
182.799640,5033.400406,6291.750507,-1991.848295
182.799961,6365.771101,9326.594869,-1532.190996
182.800282,4071.132681,9548.656652,-689.485948
182.800603,3997.112087,8660.409521,-536.266849
182.800923,6291.750507,8216.285956,-612.876398
182.801244,6513.812290,8660.409521,0.000000
182.801565,3997.112087,8142.265362,0.000000
182.801886,4885.359217,8364.327145,612.876398
182.802206,5329.482782,9252.574275,-842.705048
182.802527,5773.606348,7920.203579,-1225.752797
182.802848,5403.503377,7105.977043,-1915.238745
182.803169,5255.462188,6291.750507,-995.924147
182.803490,4145.153275,7254.018232,1302.362347
182.803810,5847.626942,8216.285956,1838.629195
182.804131,4885.359217,8512.368333,-1149.143247
182.804452,4737.318029,8438.347739,-995.924147
182.804773,4589.276840,8216.285956,1685.410096
182.805093,5107.421000,7846.182985,1838.629195
182.805414,4441.235652,8586.388927,995.924147
182.805735,3923.091493,8216.285956,0.000000
182.806055,2812.782580,6143.709319,-1762.019645
182.806376,3849.070898,5551.544565,-842.705048
182.806697,3627.009116,6883.915261,1149.143247
182.807018,3775.050304,7846.182985,229.828649
182.807338,4959.379811,9844.739029,-1072.533697
182.807659,4367.215058,9474.636058,-689.485948
182.807980,4293.194464,8290.306550,0.000000
182.808301,6291.750507,7402.059420,1149.143247
182.808621,6587.832884,7328.038826,612.876398
182.808942,3627.009116,6587.832884,-153.219100
182.809263,4145.153275,7920.203579,-1072.533697
182.809584,4441.235652,9104.533087,-919.314598
182.809904,4737.318029,8364.327145,766.095498
182.810225,6291.750507,7031.956449,1532.190996
182.810546,6957.935855,8808.450710,536.266849
182.810867,3478.967927,9918.759623,0.000000
182.811187,3404.947333,8512.368333,689.485948
182.811508,5921.647536,6735.874072,1225.752797
182.811829,6735.874072,5995.668130,2374.896044
182.812150,3330.926739,7328.038826,1455.581446
182.812470,4811.338623,9178.553681,-1302.362347
182.812791,5181.441594,9548.656652,-2068.457845
182.813112,5255.462188,8216.285956,766.095498
182.813433,7105.977043,7402.059420,2374.896044
182.813753,7994.224174,9030.512492,1455.581446
182.814074,5033.400406,10658.965565,1455.581446
182.814395,3775.050304,10140.821405,1532.190996
182.814716,5477.523971,8068.244768,919.314598
182.815036,6587.832884,7105.977043,1302.362347
182.815357,4959.379811,6883.915261,2145.067394
182.815678,5699.585753,7031.956449,919.314598
182.815999,4811.338623,8512.368333,-842.705048
182.816319,3849.070898,9474.636058,-766.095498
182.816640,4663.297435,9622.677246,612.876398
182.816961,6513.812290,9252.574275,2451.505594
182.817282,5033.400406,9622.677246,3753.867940
182.817602,4071.132681,9548.656652,2374.896044
182.817923,2664.741391,8438.347739,306.438199
182.818244,2886.803174,6291.750507,0.000000
182.818564,3478.967927,6143.709319,919.314598
182.818885,4885.359217,6883.915261,1608.800546
182.819206,4367.215058,8512.368333,689.485948
182.819527,4219.173869,8956.491898,-383.047749
182.819847,3552.988522,8068.244768,459.657299
182.820168,3701.029710,6957.935855,1915.238745
182.820489,5107.421000,6513.812290,2221.676944
182.820810,5551.544565,6587.832884,76.609550
182.821130,5255.462188,7105.977043,-2298.286494
182.821451,4737.318029,7254.018232,-2298.286494
182.821772,4071.132681,6661.853478,-1532.190996
182.822093,5625.565159,7698.141797,689.485948
182.822413,7328.038826,8882.471304,1532.190996
182.822734,5107.421000,7624.121203,-536.266849
182.823055,4515.256246,6735.874072,-2145.067394
182.823376,3997.112087,6587.832884,-1072.533697
182.823696,4885.359217,6291.750507,-229.828649
182.824017,6069.688724,6587.832884,766.095498
182.824338,6735.874072,8142.265362,-689.485948
182.824659,3923.091493,7920.203579,-2451.505594
182.824979,5255.462188,7698.141797,-1378.971896
182.825300,4811.338623,7105.977043,306.438199
182.825621,4071.132681,7550.100608,1072.533697
182.825942,5329.482782,7920.203579,-153.219100
182.826262,7254.018232,9770.718434,-2068.457845
182.826583,3923.091493,9030.512492,-1915.238745
182.826904,5255.462188,8660.409521,0.000000
182.827225,6957.935855,10140.821405,612.876398
182.827545,4885.359217,10140.821405,-536.266849
182.827866,3552.988522,9622.677246,-919.314598
182.828187,6217.729913,8586.388927,-842.705048
182.828508,5033.400406,7254.018232,-306.438199
182.828828,3997.112087,7105.977043,1072.533697
182.829149,4959.379811,8882.471304,-612.876398
182.829470,4737.318029,11103.089130,-2221.676944
182.829790,5181.441594,11917.315666,-1455.581446
182.830111,5847.626942,9918.759623,0.000000
182.830432,6809.894666,8512.368333,1149.143247
182.830753,5773.606348,8512.368333,2834.553343
182.831073,3849.070898,8882.471304,1685.410096
182.831394,4737.318029,8512.368333,-1838.629195
182.831715,5699.585753,9696.697840,-2451.505594
182.832036,4885.359217,8438.347739,-766.095498
182.832356,6513.812290,6661.853478,842.705048
182.832677,7402.059420,7476.080014,1149.143247
182.832998,5033.400406,9326.594869,-612.876398
182.833319,3997.112087,8734.430116,-1608.800546
182.833639,5625.565159,6735.874072,-536.266849
182.833960,6069.688724,5625.565159,842.705048
182.834281,6661.853478,7328.038826,2911.162892
182.834602,5551.544565,9178.553681,1302.362347
182.834922,4441.235652,8956.491898,-1915.238745
182.835243,4145.153275,8142.265362,-1072.533697
182.835564,5403.503377,7031.956449,1608.800546
182.835885,3997.112087,3330.926739,1302.362347
182.836205,3775.050304,3923.091493,-536.266849
182.836526,4441.235652,7698.141797,-1838.629195
182.836847,3330.926739,9104.533087,-1225.752797
182.837168,4367.215058,8290.306550,-1149.143247
182.837488,7550.100608,9178.553681,766.095498
182.837809,5551.544565,8512.368333,2298.286494
182.838130,4367.215058,7920.203579,1915.238745
182.838451,3552.988522,7328.038826,-229.828649
182.838771,3404.947333,6143.709319,-842.705048
182.839092,4737.318029,5847.626942,1378.971896
182.839413,7105.977043,7698.141797,2145.067394
182.839734,3849.070898,8216.285956,689.485948
182.840054,3627.009116,8734.430116,229.828649
182.840375,4811.338623,8660.409521,306.438199
182.840696,4219.173869,6439.791695,766.095498
182.841017,3552.988522,6217.729913,2911.162892
182.841337,5625.565159,7994.224174,2145.067394
182.841658,3627.009116,8956.491898,-995.924147
182.841979,3701.029710,9992.780217,-536.266849
182.842299,5995.668130,10658.965565,306.438199
182.842620,6291.750507,9104.533087,306.438199
182.842941,4589.276840,7994.224174,766.095498
182.843262,4367.215058,8068.244768,229.828649
182.843582,4293.194464,8364.327145,-229.828649
182.843903,5255.462188,8290.306550,1149.143247
182.844224,6513.812290,7994.224174,2834.553343
182.844545,6217.729913,7846.182985,842.705048
182.844865,4663.297435,8364.327145,0.000000
182.845186,4885.359217,7550.100608,459.657299
182.845507,5625.565159,7624.121203,612.876398
182.845828,4959.379811,6883.915261,536.266849
182.846148,4959.379811,5995.668130,-919.314598
182.846469,5181.441594,5625.565159,-2528.115143
182.846790,5329.482782,7550.100608,-1915.238745
182.847111,4589.276840,9104.533087,-76.609550
182.847431,5847.626942,9326.594869,-2298.286494
182.847752,5255.462188,7772.162391,-2757.943793
182.848073,5107.421000,6809.894666,-1455.581446
182.848394,5329.482782,6513.812290,-536.266849
182.848714,5773.606348,7698.141797,-536.266849
182.849035,4293.194464,8586.388927,-1532.190996
182.849356,5403.503377,9474.636058,-2528.115143
182.849677,5403.503377,8216.285956,-2451.505594
182.849997,5625.565159,7846.182985,-689.485948
182.850318,6217.729913,7031.956449,-229.828649
182.850639,4959.379811,7105.977043,-2451.505594
182.850960,3775.050304,8142.265362,-3217.601092
182.851280,3923.091493,7328.038826,-1149.143247
182.851601,5329.482782,7920.203579,383.047749
182.851922,7328.038826,9548.656652,1302.362347
182.852243,4737.318029,10732.986159,-689.485948
182.852563,3997.112087,9770.718434,-3753.867940
182.852884,5699.585753,9622.677246,-3600.648841
182.853205,5921.647536,8882.471304,0.000000
182.853525,4959.379811,7402.059420,1532.190996
182.853846,6069.688724,7772.162391,383.047749
182.854167,4589.276840,9696.697840,-1838.629195
182.854488,3034.844362,10881.027347,-1378.971896
182.854808,5625.565159,11547.212695,-689.485948
182.855129,7105.977043,9770.718434,153.219100
182.855450,5403.503377,7550.100608,1532.190996
182.855771,5921.647536,7328.038826,2221.676944
182.856091,4959.379811,8216.285956,-919.314598
182.856412,2072.576638,6365.771101,-2681.334243
182.856733,4663.297435,7179.997637,-1378.971896
182.857054,7994.224174,8216.285956,-306.438199
182.857374,6883.915261,9992.780217,76.609550
182.857695,5699.585753,11029.068536,536.266849
182.858016,5773.606348,10140.821405,-842.705048
182.858337,4515.256246,8660.409521,-612.876398
182.858657,4959.379811,7179.997637,1149.143247
182.858978,4441.235652,4811.338623,0.000000
182.859299,4219.173869,5033.400406,-1762.019645
182.859620,4145.153275,6809.894666,-536.266849
182.859940,4293.194464,7254.018232,-766.095498
182.860261,4441.235652,8068.244768,-766.095498
182.860582,4959.379811,8364.327145,0.000000
182.860903,3849.070898,6883.915261,229.828649
182.861223,4293.194464,6291.750507,1302.362347
182.861544,3627.009116,5329.482782,1762.019645
182.861865,3478.967927,5847.626942,0.000000
182.862186,4737.318029,7994.224174,-1072.533697
182.862506,5847.626942,8956.491898,-2374.896044
182.862827,4811.338623,7698.141797,-3064.381992
182.863148,5995.668130,7254.018232,-306.438199
182.863469,5477.523971,7179.997637,1762.019645
182.863789,3404.947333,5773.606348,1838.629195
182.864110,3997.112087,7105.977043,459.657299
182.864431,5255.462188,8882.471304,153.219100
182.864752,5847.626942,9326.594869,-1378.971896
182.865072,6809.894666,8512.368333,-2528.115143
182.865393,5329.482782,7772.162391,-2221.676944
182.865714,4293.194464,5995.668130,229.828649
182.866034,5477.523971,6143.709319,1378.971896
182.866355,5995.668130,7105.977043,459.657299
182.866676,3034.844362,7698.141797,-612.876398
182.866997,5033.400406,9992.780217,-229.828649
182.867317,7105.977043,12731.542202,383.047749
182.867638,4589.276840,11621.233289,842.705048
182.867959,5255.462188,9400.615463,1225.752797
182.868280,6365.771101,7550.100608,-459.657299
182.868600,3256.906145,5921.647536,-1149.143247
182.868921,2220.617826,4737.318029,0.000000
182.869242,5625.565159,7994.224174,-1302.362347
182.869563,4959.379811,10288.862594,-2451.505594
182.869883,4367.215058,11473.192101,-536.266849
182.870204,7698.141797,12213.398043,1149.143247
182.870525,6661.853478,11029.068536,1532.190996
182.870846,2368.659014,6809.894666,919.314598
182.871166,4071.132681,5847.626942,-2528.115143
182.871487,4737.318029,6809.894666,-4519.963438
182.871808,3923.091493,8290.306550,-1762.019645
182.872129,7031.956449,9178.553681,153.219100
182.872449,8956.491898,11251.130318,-689.485948
182.872770,4737.318029,11251.130318,0.000000
182.873091,3701.029710,9474.636058,689.485948
182.873412,4663.297435,6069.688724,0.000000
182.873732,4885.359217,4959.379811,689.485948
182.874053,4885.359217,6365.771101,1149.143247
182.874374,5699.585753,7254.018232,-1149.143247
182.874695,3849.070898,8142.265362,-2604.724693
182.875015,5181.441594,9030.512492,-919.314598
182.875336,6661.853478,8660.409521,-383.047749
182.875657,5477.523971,7105.977043,0.000000
182.875978,4219.173869,6735.874072,0.000000
182.876298,5403.503377,7624.121203,612.876398
182.876619,5329.482782,8290.306550,383.047749
182.876940,4071.132681,7698.141797,536.266849
182.877260,6143.709319,9474.636058,-1685.410096
182.877581,6439.791695,9400.615463,-1762.019645
182.877902,4367.215058,7179.997637,-1915.238745
182.878223,4515.256246,4737.318029,-1225.752797
182.878543,6069.688724,5699.585753,306.438199
182.878864,5477.523971,6291.750507,1608.800546
182.879185,4219.173869,7328.038826,153.219100
182.879506,4737.318029,9326.594869,-1685.410096
182.879826,5329.482782,10140.821405,-153.219100
182.880147,6809.894666,9400.615463,1225.752797
182.880468,5699.585753,8068.244768,0.000000
182.880789,3330.926739,6883.915261,-612.876398
182.881109,3997.112087,6069.688724,-766.095498
182.881430,4811.338623,5995.668130,-842.705048
182.881751,4367.215058,7179.997637,76.609550
182.882072,3256.906145,8956.491898,689.485948
182.882392,4219.173869,11325.150913,-919.314598
182.882713,3478.967927,10362.883188,-689.485948
182.883034,4589.276840,8660.409521,1378.971896
182.883355,4737.318029,6291.750507,306.438199
182.883675,4145.153275,5995.668130,-1608.800546
182.883996,2368.659014,7105.977043,-2068.457845
182.884317,4737.318029,8512.368333,-1608.800546
182.884638,5551.544565,10436.903782,-612.876398
182.884958,7105.977043,10658.965565,766.095498
182.885279,6217.729913,10584.944971,766.095498
182.885600,5625.565159,9622.677246,766.095498
182.885921,3775.050304,7476.080014,919.314598
182.886241,4367.215058,5847.626942,0.000000
182.886562,5181.441594,5921.647536,-612.876398
182.886883,6439.791695,7402.059420,153.219100
182.887204,4737.318029,8142.265362,-689.485948
182.887524,5033.400406,8142.265362,-1608.800546
182.887845,5477.523971,7772.162391,-1149.143247
182.888166,5181.441594,7179.997637,842.705048
182.888487,5625.565159,7105.977043,995.924147
182.888807,5255.462188,6883.915261,229.828649
182.889128,5773.606348,8808.450710,-1302.362347
182.889449,6069.688724,11251.130318,-1532.190996
182.889769,5033.400406,11473.192101,-1838.629195
182.890090,4219.173869,8068.244768,-1915.238745
182.890411,6143.709319,8068.244768,-1685.410096
182.890732,6513.812290,9622.677246,1149.143247
182.891052,3404.947333,8290.306550,2145.067394
182.891373,3034.844362,7476.080014,153.219100
182.891694,5255.462188,10140.821405,383.047749
182.892015,4663.297435,10510.924376,2221.676944
182.892335,4885.359217,8216.285956,2911.162892
182.892656,6365.771101,6217.729913,612.876398
182.892977,4441.235652,6809.894666,229.828649
182.893298,3256.906145,6735.874072,1455.581446
182.893618,4293.194464,5773.606348,0.000000
182.893939,5477.523971,7772.162391,0.000000
182.894260,7476.080014,11769.274478,2911.162892
182.894581,6217.729913,11769.274478,1225.752797
182.894901,5403.503377,9400.615463,-1378.971896
182.895222,4071.132681,6957.935855,842.705048
182.895543,5699.585753,7624.121203,2987.772442
182.895864,5107.421000,7328.038826,995.924147
182.896184,4589.276840,6809.894666,-1838.629195
182.896505,3775.050304,5847.626942,-2145.067394
182.896826,6291.750507,7031.956449,766.095498
182.897147,5773.606348,7698.141797,2451.505594
182.897467,4071.132681,7624.121203,1608.800546
182.897788,5921.647536,9178.553681,0.000000
182.898109,6365.771101,9844.739029,536.266849
182.898430,3701.029710,7402.059420,1225.752797
182.898750,4737.318029,5033.400406,1378.971896
182.899071,4589.276840,5477.523971,536.266849
182.899392,2886.803174,6513.812290,383.047749
182.899713,3034.844362,7772.162391,-1072.533697
182.900033,5033.400406,7846.182985,-2145.067394
182.900354,4589.276840,7179.997637,-76.609550
182.900675,5033.400406,6957.935855,3064.381992
182.900995,4663.297435,6883.915261,2145.067394
182.901316,3552.988522,7550.100608,153.219100
182.901637,2812.782580,8438.347739,-612.876398
182.901958,4515.256246,7624.121203,-1685.410096
182.902278,4293.194464,5551.544565,-1608.800546
182.902599,4663.297435,5107.421000,-1072.533697
182.902920,4293.194464,6809.894666,-1991.848295
182.903241,4737.318029,7846.182985,-2757.943793
182.903561,4663.297435,8438.347739,-2298.286494
182.903882,5773.606348,8512.368333,-1072.533697
182.904203,6513.812290,9548.656652,-612.876398
182.904524,6661.853478,11251.130318,-612.876398
182.904844,5699.585753,11991.336260,-1762.019645
182.905165,5181.441594,9252.574275,-2221.676944
182.905486,6217.729913,7846.182985,306.438199
182.905807,5625.565159,6143.709319,1685.410096
182.906127,4515.256246,5181.441594,-306.438199
182.906448,4145.153275,6809.894666,-2528.115143
182.906769,4885.359217,9622.677246,-2145.067394
182.907090,5995.668130,11251.130318,-459.657299
182.907410,7550.100608,10584.944971,536.266849
182.907731,7402.059420,10436.903782,-383.047749
182.908052,5921.647536,10807.006753,306.438199
182.908372,5107.421000,9992.780217,1225.752797
182.908693,5921.647536,9326.594869,-383.047749
182.909014,6143.709319,9548.656652,-1915.238745
182.909335,6291.750507,10881.027347,-229.828649
182.909655,4959.379811,11177.109724,1225.752797
182.909976,6217.729913,10658.965565,2068.457845
182.910297,5625.565159,10807.006753,919.314598
182.910618,4737.318029,8290.306550,-229.828649
182.910938,2590.720797,6143.709319,306.438199
182.911259,4441.235652,6439.791695,2451.505594
182.911580,4959.379811,7105.977043,2987.772442
182.911901,5551.544565,8660.409521,76.609550
182.912221,4441.235652,9548.656652,-3677.258390
182.912542,3997.112087,8290.306550,-2374.896044
182.912863,5699.585753,7846.182985,1915.238745
182.913183,7624.121203,7550.100608,4136.915689
182.913504,4737.318029,7031.956449,689.485948
182.913825,3923.091493,7328.038826,-1838.629195
182.914146,3997.112087,9030.512492,-1838.629195
182.914466,4589.276840,7254.018232,1072.533697
182.914787,4737.318029,4811.338623,1225.752797
182.915108,5625.565159,3701.029710,612.876398
182.915429,2590.720797,5329.482782,-306.438199
182.915749,962.267725,5995.668130,1685.410096
182.916070,3034.844362,5477.523971,1455.581446
182.916391,4811.338623,5181.441594,-842.705048
182.916711,5107.421000,6735.874072,-1685.410096
182.917032,3552.988522,7402.059420,-1072.533697
182.917353,4663.297435,7476.080014,0.000000
182.917674,5847.626942,7550.100608,1532.190996
182.917994,5625.565159,7254.018232,689.485948
182.918315,3034.844362,5995.668130,-1455.581446
182.918636,3256.906145,6365.771101,-1378.971896
182.918957,3404.947333,7031.956449,0.000000
182.919277,4737.318029,6957.935855,-459.657299
182.919598,5699.585753,6883.915261,-919.314598
182.919919,5329.482782,7476.080014,-1532.190996
182.920240,5181.441594,7476.080014,-1225.752797
182.920560,5477.523971,9104.533087,-306.438199
182.920881,5181.441594,9696.697840,-1149.143247
182.921202,6365.771101,8586.388927,0.000000
182.921522,7402.059420,8586.388927,1991.848295
182.921843,7624.121203,9770.718434,2528.115143
182.922164,5551.544565,9622.677246,766.095498
182.922485,6439.791695,9252.574275,-1532.190996
182.922805,5403.503377,8734.430116,-1608.800546
182.923126,6069.688724,9400.615463,919.314598
182.923447,6513.812290,9918.759623,1455.581446
182.923768,5921.647536,8142.265362,-306.438199
182.924088,3330.926739,6217.729913,-1225.752797
182.924409,5403.503377,9622.677246,229.828649
182.924730,5773.606348,12657.521608,536.266849
182.925050,4071.132681,10362.883188,-919.314598
182.925371,6439.791695,10658.965565,-612.876398
182.925692,8512.368333,11103.089130,1072.533697
182.926013,3997.112087,10584.944971,1608.800546
182.926333,3923.091493,8882.471304,229.828649
182.926654,6069.688724,9104.533087,-2604.724693
182.926975,3775.050304,7698.141797,-2451.505594
182.927296,4293.194464,6883.915261,459.657299
182.927616,5921.647536,6809.894666,1149.143247
182.927937,5329.482782,9992.780217,229.828649
182.928258,3034.844362,9548.656652,536.266849
182.928579,3997.112087,7624.121203,-1991.848295
182.928899,5773.606348,6661.853478,-1608.800546
182.929220,4737.318029,7994.224174,2451.505594
182.929541,4515.256246,7994.224174,1608.800546
182.929861,4367.215058,6661.853478,-2451.505594
182.930182,3182.885551,6143.709319,-3447.429741
182.930503,4293.194464,6735.874072,-383.047749
182.930824,5921.647536,6513.812290,689.485948
182.931144,3923.091493,5255.462188,-1072.533697
182.931465,2294.638420,3552.988522,-2528.115143
182.931786,6217.729913,6587.832884,-2604.724693
182.932107,5699.585753,8660.409521,-229.828649
182.932427,4589.276840,7624.121203,76.609550
182.932748,6513.812290,6217.729913,-2451.505594
182.933069,7402.059420,8216.285956,-2451.505594
182.933390,4811.338623,9104.533087,153.219100
182.933710,5551.544565,6957.935855,1225.752797
182.934031,6661.853478,6587.832884,-459.657299
182.934352,5033.400406,6957.935855,-383.047749
182.934672,4441.235652,7920.203579,383.047749
182.934993,5995.668130,7772.162391,1225.752797
182.935314,3923.091493,7698.141797,1532.190996
182.935635,4885.359217,9178.553681,2451.505594
182.935955,4589.276840,9474.636058,153.219100
182.936276,2368.659014,5773.606348,-1608.800546
182.936597,3034.844362,4811.338623,-995.924147
182.936918,6513.812290,8808.450710,0.000000
182.937238,4885.359217,10584.944971,-995.924147
182.937559,4293.194464,10881.027347,-1455.581446
182.937880,7179.997637,12805.562797,-459.657299
182.938200,6217.729913,12953.603985,1991.848295
182.938521,4071.132681,10658.965565,3447.429741
182.938842,3849.070898,7624.121203,459.657299
182.939163,3478.967927,7105.977043,-2451.505594
182.939483,2664.741391,7105.977043,-995.924147
182.939804,4071.132681,6513.812290,-383.047749
182.940125,5921.647536,7179.997637,-1149.143247
182.940446,6883.915261,10288.862594,612.876398
182.940766,4737.318029,9548.656652,919.314598
182.941087,4885.359217,7920.203579,-1532.190996
182.941408,5403.503377,7624.121203,-995.924147
182.941729,6587.832884,8808.450710,1685.410096
182.942049,6809.894666,7920.203579,1915.238745
182.942370,6439.791695,8142.265362,-1991.848295
182.942691,3627.009116,7328.038826,-4749.792088
182.943011,4663.297435,7624.121203,-3600.648841
182.943332,5921.647536,7254.018232,-383.047749
182.943653,4219.173869,5329.482782,-229.828649
182.943974,2812.782580,3775.050304,-1225.752797
182.944294,6513.812290,7698.141797,-2374.896044
182.944615,3404.947333,9030.512492,-1455.581446
182.944936,3997.112087,7550.100608,-459.657299
182.945257,7402.059420,8512.368333,-1149.143247
182.945577,6513.812290,10436.903782,-3140.991542
182.945898,3108.864956,7105.977043,-2604.724693
182.946219,7031.956449,6513.812290,-766.095498
182.946539,8068.244768,7994.224174,0.000000
182.946860,3775.050304,8734.430116,1072.533697
182.947181,3478.967927,7105.977043,-1149.143247
182.947502,6069.688724,7031.956449,-2451.505594
182.947822,4071.132681,8956.491898,1225.752797
182.948143,5847.626942,10807.006753,4060.306139
182.948464,5403.503377,9326.594869,-229.828649
182.948785,3182.885551,5625.565159,-3447.429741
182.949105,4071.132681,6217.729913,-1225.752797
182.949426,5773.606348,7994.224174,995.924147
182.949747,3849.070898,8216.285956,536.266849
182.950068,4663.297435,9252.574275,153.219100
182.950388,7105.977043,11843.295072,-766.095498
182.950709,6439.791695,12657.521608,0.000000
182.951030,3849.070898,11251.130318,1532.190996
182.951350,5847.626942,8660.409521,1225.752797
182.951671,5181.441594,7402.059420,76.609550
182.951992,2812.782580,6513.812290,0.000000
182.952313,3330.926739,6291.750507,-1149.143247
182.952633,5921.647536,7698.141797,-1149.143247
182.952954,6883.915261,9992.780217,1532.190996
182.953275,5403.503377,10066.800811,995.924147
182.953596,4737.318029,9326.594869,-919.314598
182.953916,4663.297435,8364.327145,1685.410096
182.954237,5625.565159,8068.244768,4903.011187
182.954558,4811.338623,6661.853478,3830.477490
182.954878,3701.029710,6735.874072,-689.485948
182.955199,3552.988522,6735.874072,-3753.867940
182.955520,4737.318029,7698.141797,-2987.772442
182.955841,4145.153275,6143.709319,-306.438199
182.956161,5033.400406,4663.297435,842.705048
182.956482,4885.359217,4811.338623,-1225.752797
182.956803,5107.421000,7920.203579,-1685.410096
182.957124,3701.029710,9326.594869,-1378.971896
182.957444,5921.647536,9030.512492,-919.314598
182.957765,7476.080014,9696.697840,-383.047749
182.958086,5847.626942,9400.615463,229.828649
182.958407,4589.276840,7105.977043,-229.828649
182.958727,5995.668130,5921.647536,-1072.533697
182.959048,3701.029710,5255.462188,-919.314598
182.959369,3404.947333,4959.379811,0.000000
