#time,accel_x,accel_y,accel_z
576.883462,5255.462188,7994.224174,-229.828649
576.883783,4959.379811,8290.306550,-306.438199
576.884104,4885.359217,7920.203579,76.609550
576.884425,5033.400406,8216.285956,0.000000
576.884745,4885.359217,8290.306550,0.000000
576.885066,4811.338623,8142.265362,0.000000
576.885387,4811.338623,8142.265362,0.000000
576.885708,5033.400406,8216.285956,76.609550
576.886029,4959.379811,8068.244768,153.219100
576.886349,4959.379811,8142.265362,0.000000
576.886670,4959.379811,8216.285956,-306.438199
576.886991,4737.318029,7920.203579,76.609550
576.887312,5181.441594,8142.265362,-153.219100
576.887632,4737.318029,8290.306550,229.828649
576.887953,4737.318029,8290.306550,0.000000
576.888274,4959.379811,8142.265362,-306.438199
576.888595,4959.379811,8068.244768,-229.828649
576.888915,5107.421000,8216.285956,0.000000
576.889236,4959.379811,8142.265362,-306.438199
576.889557,4959.379811,7772.162391,0.000000
576.889878,5033.400406,7994.224174,0.000000
576.890199,4959.379811,7920.203579,0.000000
576.890519,5181.441594,7994.224174,0.000000
576.890840,4885.359217,8438.347739,0.000000
576.891161,5033.400406,7920.203579,0.000000
576.891482,5107.421000,8142.265362,-153.219100
576.891802,5033.400406,8068.244768,-153.219100
576.892123,5033.400406,8068.244768,-536.266849
576.892444,4885.359217,8142.265362,-306.438199
576.892765,4885.359217,8068.244768,0.000000
576.893086,5107.421000,7772.162391,-229.828649
576.893406,4959.379811,7698.141797,0.000000
576.893727,4441.235652,7476.080014,-153.219100
576.894048,3997.112087,7550.100608,-919.314598
576.894369,3997.112087,7994.224174,-153.219100
576.894689,4441.235652,9252.574275,-306.438199
576.895010,4441.235652,9992.780217,-1149.143247
576.895331,4737.318029,9918.759623,-1225.752797
576.895652,4145.153275,9400.615463,-1302.362347
576.895973,3701.029710,8808.450710,-229.828649
576.896293,2812.782580,8808.450710,612.876398
576.896614,2738.761985,9178.553681,612.876398
576.896935,2590.720797,9400.615463,153.219100
576.897256,2812.782580,8882.471304,-689.485948
576.897576,2886.803174,8438.347739,-766.095498
576.897897,3108.864956,9030.512492,-153.219100
576.898218,3256.906145,9770.718434,229.828649
576.898539,2368.659014,9474.636058,612.876398
576.898860,2368.659014,8808.450710,306.438199
576.899180,2368.659014,9030.512492,0.000000
576.899501,2220.617826,9918.759623,-229.828649
576.899822,1850.514855,11547.212695,-1225.752797
576.900143,1184.329507,12213.398043,-1685.410096
576.900463,1332.370696,11547.212695,-1991.848295
576.900784,740.205942,11103.089130,-1685.410096
576.901105,444.123565,11399.171507,-1072.533697
576.901426,-962.267725,12213.398043,-383.047749
576.901747,-1258.350101,13619.789333,536.266849
576.902067,-1998.556043,12805.562797,919.314598
576.902388,-1776.494261,11547.212695,1455.581446
576.902709,-888.247130,11473.192101,1915.238745
576.903030,-1258.350101,12287.418637,1302.362347
576.903350,-2516.700203,11991.336260,459.657299
576.903671,-2664.741391,10955.047942,-536.266849
576.903992,-1258.350101,9844.739029,-689.485948
576.904313,-666.185348,10066.800811,766.095498
576.904634,-296.082377,10362.883188,1378.971896
576.904954,0.000000,11177.109724,536.266849
576.905275,148.041188,11917.315666,-1149.143247
576.905596,666.185348,11843.295072,-1455.581446
576.905917,1850.514855,10362.883188,-612.876398
576.906237,2368.659014,10066.800811,0.000000
576.906558,2664.741391,10288.862594,229.828649
576.906879,1850.514855,10214.842000,-1762.019645
576.907200,1850.514855,9178.553681,-2604.724693
576.907521,2146.597232,9252.574275,-1532.190996
576.907841,2294.638420,9918.759623,0.000000
576.908162,1850.514855,9992.780217,229.828649
576.908483,1406.391290,9992.780217,-536.266849
576.908804,814.226536,10955.047942,-919.314598
576.909124,592.164754,11103.089130,76.609550
576.909445,666.185348,10436.903782,612.876398
576.909766,74.020594,9844.739029,0.000000
576.910087,0.000000,10140.821405,536.266849
576.910408,-444.123565,10658.965565,1225.752797
576.910728,-962.267725,10881.027347,842.705048
576.911049,-740.205942,11177.109724,842.705048
576.911370,444.123565,11103.089130,842.705048
576.911691,814.226536,11399.171507,536.266849
576.912011,1332.370696,10955.047942,0.000000
576.912332,1628.453072,10658.965565,-919.314598
576.912653,1702.473667,9918.759623,-1225.752797
576.912974,1406.391290,9030.512492,0.000000
576.913295,1628.453072,8808.450710,612.876398
576.913615,2146.597232,8660.409521,536.266849
576.913936,2442.679609,9104.533087,536.266849
576.914257,2442.679609,9696.697840,306.438199
576.914578,2442.679609,10140.821405,-612.876398
576.914898,3182.885551,10288.862594,-1455.581446
576.915219,3701.029710,10140.821405,-1302.362347
576.915540,3478.967927,9844.739029,-1532.190996
576.915861,3552.988522,10066.800811,-1225.752797
576.916181,2442.679609,10584.944971,-1072.533697
576.916502,1776.494261,10955.047942,-383.047749
576.916823,962.267725,11547.212695,-229.828649
576.917144,814.226536,11325.150913,-612.876398
576.917465,148.041188,11325.150913,-1685.410096
576.917785,-740.205942,10807.006753,-1838.629195
576.918106,-1850.514855,10066.800811,-1072.533697
576.918427,-2442.679609,9178.553681,536.266849
576.918748,-1554.432478,9918.759623,2145.067394
576.919068,-1258.350101,11917.315666,2834.553343
576.919389,-1110.308913,13545.768739,1915.238745
576.919710,-666.185348,13619.789333,1149.143247
576.920031,296.082377,13841.851115,612.876398
576.920352,666.185348,11843.295072,76.609550
576.920672,1036.288319,10362.883188,-229.828649
576.920993,666.185348,10140.821405,-1302.362347
576.921314,0.000000,9918.759623,-2145.067394
576.921635,-1406.391290,9844.739029,-1915.238745
576.921955,-1776.494261,9622.677246,-1915.238745
576.922276,-1110.308913,10584.944971,-1302.362347
576.922597,740.205942,12139.377449,306.438199
576.922918,1850.514855,13249.686362,536.266849
576.923239,888.247130,13249.686362,76.609550
576.923559,74.020594,13397.727550,-229.828649
576.923880,814.226536,13027.624579,-919.314598
576.924201,1110.308913,10732.986159,-919.314598
576.924522,1332.370696,7846.182985,-766.095498
576.924842,2368.659014,7254.018232,-612.876398
576.925163,1924.535449,8586.388927,459.657299
576.925484,740.205942,11325.150913,842.705048
576.925805,-296.082377,12065.356855,536.266849
576.926126,222.061783,10732.986159,919.314598
576.926446,1110.308913,9326.594869,1302.362347
576.926767,814.226536,7920.203579,612.876398
576.927088,888.247130,8290.306550,0.000000
576.927409,1036.288319,11621.233289,-842.705048
576.927729,444.123565,13989.892304,-1838.629195
576.928050,592.164754,13175.665768,-2221.676944
576.928371,2220.617826,12509.480420,-1532.190996
576.928692,1702.473667,12065.356855,459.657299
576.929013,148.041188,12139.377449,1225.752797
576.929333,74.020594,10807.006753,1302.362347
576.929654,-148.041188,9178.553681,995.924147
576.929975,-888.247130,8364.327145,995.924147
576.930296,-370.102971,8438.347739,1455.581446
576.930616,-1554.432478,8438.347739,1302.362347
576.930937,-1480.411884,8512.368333,0.000000
576.931258,962.267725,9400.615463,76.609550
576.931579,1776.494261,11251.130318,0.000000
576.931900,2220.617826,12805.562797,-1149.143247
576.932220,2960.823768,13175.665768,-919.314598
576.932541,2072.576638,11103.089130,-1762.019645
576.932862,1332.370696,8586.388927,-2221.676944
576.933183,2294.638420,7031.956449,-919.314598
576.933503,2812.782580,8956.491898,842.705048
576.933824,1628.453072,12509.480420,612.876398
576.934145,222.061783,13915.871710,-1378.971896
576.934466,1110.308913,12953.603985,-3447.429741
576.934787,814.226536,10807.006753,-2145.067394
576.935107,-1628.453072,8882.471304,-612.876398
576.935428,-2442.679609,8512.368333,0.000000
576.935749,-1480.411884,10584.944971,459.657299
576.936070,-962.267725,13397.727550,1685.410096
576.936390,-2368.659014,14285.974681,1455.581446
576.936711,-2590.720797,13471.748144,-536.266849
576.937032,-740.205942,14656.077652,-306.438199
576.937353,-1924.535449,14137.933492,842.705048
576.937674,-1332.370696,12065.356855,766.095498
576.937994,-444.123565,10362.883188,-306.438199
576.938315,0.000000,9770.718434,0.000000
576.938636,-740.205942,10510.924376,1915.238745
576.938957,-592.164754,10214.842000,1685.410096
576.939277,444.123565,8734.430116,383.047749
576.939598,1924.535449,8882.471304,76.609550
576.939919,3775.050304,10362.883188,536.266849
576.940240,5033.400406,11695.253884,-1225.752797
576.940560,5255.462188,11843.295072,-1455.581446
576.940881,4885.359217,11325.150913,-2145.067394
576.941202,4071.132681,8512.368333,-2834.553343
576.941523,2072.576638,5847.626942,-1915.238745
576.941844,2146.597232,6439.791695,-536.266849
576.942164,3923.091493,10510.924376,1225.752797
576.942485,2146.597232,13693.809927,0.000000
576.942806,1554.432478,13249.686362,-2987.772442
576.943127,1776.494261,10066.800811,-2834.553343
576.943448,-1036.288319,8586.388927,0.000000
576.943768,-2072.576638,8956.491898,2451.505594
576.944089,-1480.411884,10510.924376,1685.410096
576.944410,-962.267725,12805.562797,-995.924147
576.944731,0.000000,13841.851115,-1455.581446
576.945052,-296.082377,13767.830521,-383.047749
576.945373,-2072.576638,12287.418637,459.657299
576.945693,-2664.741391,11251.130318,2451.505594
576.946014,-1332.370696,11473.192101,3294.210641
576.946335,-1036.288319,10584.944971,2451.505594
576.946656,-962.267725,9474.636058,612.876398
576.946977,-740.205942,9104.533087,536.266849
576.947298,-444.123565,9400.615463,1225.752797
576.947619,0.000000,8882.471304,1991.848295
576.947939,2368.659014,7994.224174,0.000000
576.948260,3997.112087,8290.306550,-689.485948
576.948581,4441.235652,10881.027347,-1149.143247
576.948902,3627.009116,12805.562797,-1685.410096
576.949223,3404.947333,12065.356855,-2374.896044
576.949544,4959.379811,10436.903782,-2451.505594
576.949865,5033.400406,8216.285956,-2221.676944
576.950185,2516.700203,6365.771101,-1302.362347
576.950506,2220.617826,8734.430116,-842.705048
576.950827,222.061783,12213.398043,-1762.019645
576.951148,-666.185348,13249.686362,-2681.334243
576.951469,592.164754,10807.006753,-2298.286494
576.951790,1036.288319,8142.265362,612.876398
576.952110,-444.123565,9918.759623,2911.162892
576.952431,-1850.514855,12435.459826,3524.039291
576.952752,-3849.070898,12435.459826,919.314598
576.953073,-3849.070898,11251.130318,-919.314598
576.953394,-666.185348,11917.315666,612.876398
576.953715,-1036.288319,13101.645173,1149.143247
576.954036,-1332.370696,13027.624579,612.876398
576.954356,-222.061783,13397.727550,76.609550
576.954677,-2590.720797,12435.459826,229.828649
576.954998,-1850.514855,11547.212695,229.828649
576.955319,1110.308913,11103.089130,1455.581446
576.955640,666.185348,11695.253884,1302.362347
576.955961,814.226536,10362.883188,1378.971896
576.956281,2368.659014,9400.615463,1302.362347
576.956602,2072.576638,7476.080014,-1302.362347
576.956923,2368.659014,7476.080014,-1838.629195
576.957244,5625.565159,10066.800811,-229.828649
576.957565,5107.421000,11473.192101,-1455.581446
576.957886,2590.720797,9474.636058,-2911.162892
576.958207,4071.132681,8512.368333,-3983.696590
576.958527,4367.215058,10066.800811,-3064.381992
576.958848,2368.659014,12213.398043,-842.705048
576.959169,1332.370696,12731.542202,612.876398
576.959490,888.247130,11769.274478,-2298.286494
576.959811,666.185348,11917.315666,-3600.648841
576.960132,-962.267725,12287.418637,-919.314598
576.960452,-3182.885551,10807.006753,1072.533697
576.960773,-2442.679609,10140.821405,2068.457845
576.961094,-1480.411884,12065.356855,3294.210641
576.961415,-3330.926739,12361.439231,1838.629195
576.961736,-2812.782580,11843.295072,919.314598
576.962057,-1480.411884,12139.377449,1838.629195
576.962378,-3701.029710,12361.439231,2374.896044
576.962698,-4145.153275,10288.862594,1532.190996
576.963019,-814.226536,9696.697840,2068.457845
576.963340,148.041188,11547.212695,2451.505594
576.963661,-370.102971,12065.356855,2145.067394
576.963982,666.185348,10732.986159,-766.095498
576.964303,2516.700203,9178.553681,-2757.943793
576.964623,2960.823768,9326.594869,-995.924147
576.964944,4663.297435,10362.883188,2068.457845
576.965265,5995.668130,8808.450710,689.485948
576.965586,5995.668130,8068.244768,-1991.848295
576.965907,6809.894666,8808.450710,-2681.334243
576.966228,5033.400406,8586.388927,-2987.772442
576.966549,3627.009116,7476.080014,-2911.162892
576.966869,5033.400406,7772.162391,-2374.896044
576.967190,4367.215058,7772.162391,-766.095498
576.967511,3108.864956,8660.409521,-306.438199
576.967832,2516.700203,10214.842000,-612.876398
576.968153,2368.659014,12065.356855,-1838.629195
576.968474,-444.123565,11547.212695,-1608.800546
576.968795,-1184.329507,9696.697840,766.095498
576.969115,-592.164754,9178.553681,2604.724693
576.969436,0.000000,9844.739029,3217.601092
576.969757,-2220.617826,10066.800811,1532.190996
576.970078,-1480.411884,11695.253884,-842.705048
576.970399,-2220.617826,12509.480420,-1225.752797
576.970720,-3182.885551,12879.583391,612.876398
576.971040,-592.164754,13175.665768,1915.238745
576.971361,-518.144159,12065.356855,689.485948
576.971682,-2294.638420,9844.739029,-383.047749
576.972003,-1184.329507,9844.739029,-383.047749
576.972324,-1036.288319,10807.006753,-842.705048
576.972645,-1184.329507,11473.192101,-612.876398
576.972966,888.247130,11251.130318,306.438199
576.973286,3404.947333,10584.944971,689.485948
576.973607,2072.576638,8734.430116,-229.828649
576.973928,2738.761985,9326.594869,-1838.629195
576.974249,3034.844362,9696.697840,-3064.381992
576.974570,4219.173869,9400.615463,-2834.553343
576.974891,5699.585753,7994.224174,-536.266849
576.975211,5255.462188,8290.306550,-1762.019645
576.975532,4589.276840,10955.047942,-2757.943793
576.975853,4737.318029,15988.448347,-3447.429741
576.976174,1998.556043,14878.139434,-4596.572988
576.976495,1776.494261,9844.739029,-4366.744339
576.976816,3478.967927,7328.038826,-689.485948
576.977137,222.061783,7105.977043,1378.971896
576.977457,-1924.535449,10510.924376,2298.286494
576.977778,-1332.370696,12361.439231,1455.581446
576.978099,-888.247130,13175.665768,-536.266849
576.978420,888.247130,9474.636058,459.657299
576.978741,2812.782580,7920.203579,2604.724693
576.979062,2960.823768,8956.491898,4136.915689
576.979382,1628.453072,9622.677246,3753.867940
576.979703,1998.556043,7994.224174,689.485948
576.980024,4589.276840,6217.729913,-2911.162892
576.980345,7105.977043,6513.812290,-2068.457845
576.980666,5477.523971,7994.224174,0.000000
576.980987,5107.421000,9622.677246,-153.219100
576.981308,6587.832884,12879.583391,-1225.752797
576.981628,5773.606348,12657.521608,-2757.943793
576.981949,5403.503377,9548.656652,-4060.306139
576.982270,8142.265362,7846.182985,-3064.381992
576.982591,4515.256246,9474.636058,-459.657299
576.982912,3034.844362,9474.636058,612.876398
576.983233,2442.679609,7328.038826,1225.752797
576.983554,3478.967927,5921.647536,2451.505594
576.983874,7105.977043,7772.162391,4519.963438
576.984195,5255.462188,9030.512492,2757.943793
576.984516,2072.576638,5773.606348,-2681.334243
576.984837,3034.844362,3552.988522,-2145.067394
576.985158,3404.947333,3404.947333,2987.772442
576.985479,6143.709319,3923.091493,5362.668486
576.985799,7846.182985,4515.256246,2221.676944
576.986120,6587.832884,7402.059420,-4519.963438
576.986441,4811.338623,11325.150913,-5286.058936
576.986762,5329.482782,11473.192101,-3140.991542
576.987083,7179.997637,9770.718434,-689.485948
576.987404,7105.977043,8956.491898,1532.190996
576.987725,6069.688724,9030.512492,995.924147
576.988045,4737.318029,11029.068536,-2145.067394
576.988366,1998.556043,8512.368333,-3983.696590
576.988687,1258.350101,6809.894666,-2451.505594
576.989008,4441.235652,6143.709319,2528.115143
576.989329,3182.885551,6365.771101,7431.126331
576.989650,3923.091493,8290.306550,6128.763984
576.989970,3775.050304,7698.141797,2145.067394
576.990291,2442.679609,6957.935855,-766.095498
576.990612,3849.070898,6143.709319,-766.095498
576.990933,3923.091493,3849.070898,689.485948
576.991254,5995.668130,4737.318029,229.828649
576.991575,10881.027347,9474.636058,919.314598
576.991896,7698.141797,11399.171507,-995.924147
576.992216,4663.297435,9400.615463,-4136.915689
576.992537,8068.244768,10362.883188,-4213.525239
576.992858,7772.162391,9030.512492,-1378.971896
576.993179,8808.450710,8290.306550,919.314598
576.993500,11325.150913,5699.585753,1608.800546
576.993821,6957.935855,5477.523971,-2451.505594
576.994141,4441.235652,5773.606348,-3140.991542
576.994462,5551.544565,5995.668130,-1072.533697
576.994783,6365.771101,4811.338623,0.000000
576.995104,7624.121203,5329.482782,1378.971896
576.995425,6735.874072,9030.512492,1455.581446
576.995746,2072.576638,10288.862594,-1608.800546
576.996067,2442.679609,11325.150913,-1378.971896
576.996387,3701.029710,12657.521608,1838.629195
576.996708,2960.823768,10658.965565,1455.581446
576.997029,3552.988522,9030.512492,612.876398
576.997350,2072.576638,9696.697840,-612.876398
576.997671,-962.267725,11325.150913,-1838.629195
576.997992,888.247130,11917.315666,612.876398
576.998312,4219.173869,10066.800811,-459.657299
576.998633,3478.967927,7624.121203,-1685.410096
576.998954,3627.009116,7994.224174,1378.971896
576.999275,1998.556043,8068.244768,1225.752797
576.999596,1184.329507,7920.203579,2681.334243
576.999917,4367.215058,7105.977043,2987.772442
577.000238,5551.544565,5551.544565,1072.533697
577.000558,6291.750507,3478.967927,-1991.848295
577.000879,7624.121203,6735.874072,-1991.848295
577.001200,7179.997637,10214.842000,-2068.457845
577.001521,6661.853478,9474.636058,-3600.648841
577.001842,9844.739029,7772.162391,-4136.915689
577.002163,9696.697840,6439.791695,-3140.991542
577.002484,7550.100608,6217.729913,-1608.800546
577.002804,7698.141797,7476.080014,153.219100
577.003125,6661.853478,9474.636058,-612.876398
577.003446,7402.059420,10140.821405,-612.876398
577.003767,5477.523971,5773.606348,306.438199
577.004088,5255.462188,1406.391290,-919.314598
577.004409,6587.832884,2146.597232,383.047749
577.004729,6365.771101,8438.347739,1991.848295
577.005050,3478.967927,9918.759623,-229.828649
577.005371,6069.688724,7624.121203,-2528.115143
577.005692,7846.182985,5477.523971,76.609550
577.006013,4885.359217,5995.668130,4060.306139
577.006334,4811.338623,8068.244768,4519.963438
577.006655,3182.885551,10658.965565,919.314598
577.006975,2368.659014,10658.965565,-3753.867940
577.007296,4737.318029,7920.203579,-3753.867940
577.007617,5921.647536,7031.956449,-1685.410096
577.007938,3034.844362,7846.182985,0.000000
577.008259,2442.679609,11917.315666,2681.334243
577.008580,370.102971,12213.398043,459.657299
577.008900,3478.967927,10584.944971,-1455.581446
577.009221,5847.626942,8142.265362,1532.190996
577.009542,5551.544565,9696.697840,2221.676944
577.009863,4071.132681,11991.336260,2604.724693
577.010184,2960.823768,11177.109724,153.219100
577.010505,592.164754,6809.894666,-2068.457845
577.010826,4885.359217,4145.153275,383.047749
577.011146,7105.977043,5181.441594,2145.067394
577.011467,3478.967927,6661.853478,-536.266849
577.011788,1776.494261,6883.915261,-3447.429741
577.012109,5551.544565,9030.512492,-2911.162892
577.012430,7179.997637,8734.430116,536.266849
577.012751,8882.471304,8142.265362,3983.696590
577.013071,9252.574275,11473.192101,1838.629195
577.013392,5181.441594,11029.068536,-2757.943793
577.013713,4367.215058,8956.491898,-3830.477490
577.014034,5773.606348,6587.832884,-1685.410096
577.014355,5847.626942,4959.379811,0.000000
577.014676,5847.626942,6587.832884,1149.143247
577.014997,4071.132681,8660.409521,383.047749
577.015317,666.185348,7550.100608,-1532.190996
577.015638,1850.514855,7105.977043,612.876398
577.015959,4737.318029,7031.956449,3140.991542
577.016280,4293.194464,6661.853478,3370.820191
577.016601,4959.379811,7624.121203,3140.991542
577.016922,4589.276840,8290.306550,612.876398
577.017242,2590.720797,6069.688724,-2221.676944
577.017563,6143.709319,4663.297435,-1225.752797
577.017884,7994.224174,7846.182985,-306.438199
577.018205,7105.977043,8956.491898,-2221.676944
577.018526,7476.080014,9104.533087,-3524.039291
577.018847,7402.059420,8142.265362,-3677.258390
577.019168,6143.709319,7624.121203,-919.314598
577.019488,6661.853478,7698.141797,1532.190996
577.019809,6661.853478,7550.100608,1302.362347
577.020130,6143.709319,7328.038826,0.000000
577.020451,5773.606348,7402.059420,766.095498
577.020772,5847.626942,6217.729913,-459.657299
577.021093,4959.379811,5107.421000,-766.095498
577.021414,7105.977043,7698.141797,1378.971896
577.021734,5699.585753,7328.038826,0.000000
577.022055,4811.338623,6439.791695,-612.876398
577.022376,6809.894666,6661.853478,612.876398
577.022697,5255.462188,9770.718434,1608.800546
577.023018,4145.153275,10140.821405,689.485948
577.023339,6957.935855,8808.450710,-2068.457845
577.023659,6809.894666,9548.656652,-3447.429741
577.023980,5847.626942,8142.265362,-2757.943793
577.024301,5107.421000,7698.141797,-459.657299
577.024622,2960.823768,7994.224174,459.657299
577.024943,3849.070898,9252.574275,0.000000
577.025264,5033.400406,11029.068536,536.266849
577.025585,4811.338623,10881.027347,-1532.190996
577.025905,4145.153275,10436.903782,-2068.457845
577.026226,3256.906145,9918.759623,2298.286494
577.026547,3552.988522,8808.450710,4596.572988
577.026868,2738.761985,6365.771101,4136.915689
577.027189,3108.864956,4589.276840,1455.581446
577.027510,4737.318029,5403.503377,-919.314598
577.027830,4441.235652,6661.853478,-766.095498
577.028151,3478.967927,7402.059420,-1762.019645
577.028472,6217.729913,8512.368333,-1072.533697
577.028793,6217.729913,9400.615463,-766.095498
577.029114,5181.441594,9918.759623,-1378.971896
577.029435,6809.894666,9548.656652,-1378.971896
577.029756,5033.400406,10288.862594,-2451.505594
577.030076,3923.091493,11621.233289,-2987.772442
577.030397,3849.070898,10436.903782,-1915.238745
577.030718,3997.112087,8290.306550,-766.095498
577.031039,4885.359217,7698.141797,1685.410096
577.031360,4885.359217,8438.347739,3217.601092
577.031681,814.226536,7476.080014,0.000000
577.032001,74.020594,5403.503377,-1072.533697
577.032322,1776.494261,5107.421000,2068.457845
577.032643,4737.318029,5477.523971,3830.477490
577.032964,6661.853478,6513.812290,4060.306139
577.033285,6661.853478,8364.327145,842.705048
577.033606,2960.823768,9918.759623,-3753.867940
577.033927,4441.235652,10066.800811,-3140.991542
577.034247,6661.853478,7994.224174,0.000000
577.034568,6957.935855,7254.018232,842.705048
577.034889,7624.121203,8734.430116,459.657299
577.035210,6587.832884,10955.047942,-1532.190996
577.035531,3108.864956,9474.636058,-3370.820191
577.035852,5329.482782,6513.812290,-1991.848295
577.036172,7624.121203,5921.647536,1685.410096
577.036493,7105.977043,6365.771101,3677.258390
577.036814,4515.256246,6217.729913,2834.553343
577.037135,5033.400406,7105.977043,1532.190996
577.037456,5773.606348,7402.059420,-919.314598
577.037777,5773.606348,7476.080014,-995.924147
577.038098,5847.626942,6661.853478,-1225.752797
577.038418,5995.668130,7920.203579,-1685.410096
577.038739,6439.791695,10288.862594,1225.752797
577.039060,5699.585753,8438.347739,1225.752797
577.039381,4737.318029,5551.544565,-995.924147
577.039702,4145.153275,6513.812290,-1532.190996
577.040023,3849.070898,10732.986159,229.828649
577.040344,3923.091493,11843.295072,-229.828649
577.040664,4737.318029,7105.977043,-1378.971896
577.040985,8068.244768,4959.379811,612.876398
577.041306,7105.977043,5403.503377,2145.067394
577.041627,2664.741391,6587.832884,0.000000
577.041948,3256.906145,6809.894666,-2374.896044
577.042269,7105.977043,7031.956449,-1378.971896
577.042589,9326.594869,8660.409521,1378.971896
577.042910,7920.203579,8142.265362,2528.115143
577.043231,4737.318029,7624.121203,-1838.629195
577.043552,3256.906145,10214.842000,-4290.134789
577.043873,4663.297435,11917.315666,-1608.800546
577.044194,4293.194464,8290.306550,-766.095498
577.044515,4663.297435,4959.379811,-1302.362347
577.044835,4811.338623,7772.162391,76.609550
577.045156,1628.453072,11769.274478,1378.971896
577.045477,-518.144159,11399.171507,842.705048
577.045798,3108.864956,8660.409521,229.828649
577.046120,6513.812290,7772.162391,306.438199
577.046440,4219.173869,7402.059420,919.314598
577.046761,3034.844362,8808.450710,383.047749
577.047082,5625.565159,10436.903782,229.828649
577.047402,4515.256246,10362.883188,0.000000
577.047723,5551.544565,7254.018232,306.438199
577.048044,8512.368333,5329.482782,-383.047749
577.048364,4589.276840,5847.626942,-459.657299
577.048685,4737.318029,10066.800811,536.266849
577.049005,5551.544565,9622.677246,-766.095498
577.049326,4515.256246,7254.018232,-3447.429741
577.049647,7402.059420,6587.832884,-842.705048
577.049967,7105.977043,7994.224174,1991.848295
577.050288,4515.256246,9474.636058,1225.752797
577.050609,3923.091493,8364.327145,-1149.143247
577.050929,4737.318029,7920.203579,-1838.629195
577.051250,5477.523971,9104.533087,-536.266849
577.051571,5329.482782,9104.533087,2451.505594
577.051891,4145.153275,8068.244768,1149.143247
577.052212,2886.803174,8512.368333,-1532.190996
577.052532,1702.473667,7846.182985,-1532.190996
577.052853,3034.844362,8438.347739,-536.266849
577.053174,5181.441594,7105.977043,153.219100
577.053494,4589.276840,6957.935855,766.095498
577.053815,5107.421000,8660.409521,1455.581446
577.054136,3552.988522,7179.997637,612.876398
577.054456,1924.535449,5847.626942,0.000000
577.054777,4441.235652,6809.894666,766.095498
577.055097,5847.626942,9252.574275,153.219100
577.055418,5255.462188,10140.821405,-536.266849
577.055739,4293.194464,10510.924376,-1608.800546
577.056059,4293.194464,7994.224174,-2528.115143
577.056380,4589.276840,6883.915261,-153.219100
577.056701,5181.441594,6217.729913,1072.533697
577.057021,4811.338623,6735.874072,1149.143247
577.057342,5551.544565,8512.368333,229.828649
577.057663,5107.421000,8882.471304,-612.876398
577.057983,5995.668130,7994.224174,-919.314598
577.058304,7105.977043,5107.421000,76.609550
577.058624,6143.709319,4515.256246,1072.533697
577.058945,5773.606348,6735.874072,612.876398
577.059266,6587.832884,7328.038826,-1302.362347
577.059586,5773.606348,9178.553681,-1991.848295
577.059907,6735.874072,9992.780217,-2145.067394
577.060228,6587.832884,9918.759623,-842.705048
577.060548,3923.091493,9770.718434,766.095498
577.060869,4515.256246,9474.636058,536.266849
577.061189,4441.235652,8290.306550,1608.800546
577.061510,4293.194464,8734.430116,1378.971896
577.061831,3627.009116,7328.038826,-612.876398
577.062151,2368.659014,6809.894666,-1838.629195
577.062472,4145.153275,7772.162391,-536.266849
577.062793,3923.091493,8290.306550,2374.896044
577.063113,4663.297435,7920.203579,2987.772442
577.063434,6587.832884,8290.306550,1302.362347
577.063755,4145.153275,8956.491898,0.000000
577.064075,2738.761985,11251.130318,-153.219100
577.064396,4737.318029,11547.212695,-306.438199
577.064716,3923.091493,7772.162391,-612.876398
577.065037,6291.750507,5921.647536,0.000000
577.065358,5181.441594,5477.523971,536.266849
577.065678,4293.194464,7920.203579,-2221.676944
577.065999,2812.782580,9326.594869,-2451.505594
577.066320,3256.906145,8438.347739,-1608.800546
577.066640,6809.894666,7031.956449,0.000000
577.066961,8290.306550,7328.038826,1455.581446
577.067281,5477.523971,7476.080014,0.000000
577.067602,5181.441594,10214.842000,-2911.162892
577.067923,3256.906145,9622.677246,-3524.039291
577.068243,3849.070898,8512.368333,-766.095498
577.068564,8216.285956,7772.162391,2451.505594
577.068885,7105.977043,8068.244768,2145.067394
577.069205,3256.906145,9844.739029,-1378.971896
577.069526,1110.308913,8216.285956,-2834.553343
577.069847,2442.679609,6809.894666,-2834.553343
577.070167,5699.585753,5921.647536,612.876398
577.070488,4737.318029,6957.935855,3753.867940
577.070808,4885.359217,7254.018232,2068.457845
577.071129,2590.720797,9104.533087,153.219100
577.071450,2072.576638,8512.368333,459.657299
577.071770,3478.967927,7994.224174,-459.657299
577.072091,7105.977043,6439.791695,-1149.143247
577.072412,7846.182985,7254.018232,-1532.190996
577.072732,7105.977043,10140.821405,-995.924147
577.073053,5477.523971,10362.883188,-919.314598
577.073373,5995.668130,9400.615463,-1072.533697
577.073694,4959.379811,9104.533087,0.000000
577.074015,5699.585753,8882.471304,-1225.752797
577.074335,5403.503377,7846.182985,-1455.581446
577.074656,4737.318029,5847.626942,-2068.457845
577.074977,5033.400406,6513.812290,-383.047749
577.075297,5107.421000,6661.853478,2604.724693
577.075618,2960.823768,7254.018232,919.314598
577.075939,3330.926739,8956.491898,-229.828649
577.076259,4811.338623,9992.780217,689.485948
577.076580,5477.523971,10658.965565,2298.286494
577.076900,5773.606348,9178.553681,2374.896044
577.077221,6069.688724,6291.750507,689.485948
577.077542,5033.400406,6513.812290,-919.314598
577.077862,4885.359217,7254.018232,-2451.505594
577.078183,6069.688724,8142.265362,-2528.115143
577.078504,6291.750507,9030.512492,-2145.067394
577.078824,5773.606348,9474.636058,-459.657299
577.079145,5181.441594,9696.697840,1378.971896
577.079465,5699.585753,7994.224174,76.609550
577.079786,5329.482782,5329.482782,-459.657299
577.080107,4663.297435,5403.503377,-689.485948
577.080427,5403.503377,7105.977043,-1378.971896
577.080748,2812.782580,8512.368333,-842.705048
577.081069,4589.276840,9400.615463,-612.876398
577.081389,7105.977043,9770.718434,612.876398
577.081710,6143.709319,10362.883188,1915.238745
577.082031,2886.803174,7994.224174,383.047749
577.082351,1776.494261,5329.482782,-1762.019645
577.082672,4145.153275,5033.400406,-995.924147
577.082992,5329.482782,7920.203579,1072.533697
577.083313,6587.832884,9474.636058,0.000000
577.083634,5773.606348,8956.491898,-3370.820191
577.083954,3997.112087,8586.388927,-3064.381992
577.084275,3923.091493,8586.388927,306.438199
577.084596,6217.729913,8364.327145,2987.772442
577.084916,5995.668130,7105.977043,1072.533697
577.085237,5625.565159,7402.059420,-2451.505594
577.085557,4737.318029,8660.409521,-2757.943793
577.085878,3404.947333,8142.265362,-766.095498
577.086199,4145.153275,8734.430116,2145.067394
577.086519,6735.874072,8586.388927,3447.429741
577.086840,5255.462188,8068.244768,306.438199
577.087161,3034.844362,6439.791695,-1915.238745
577.087481,2590.720797,7920.203579,-2451.505594
577.087802,4293.194464,7994.224174,-383.047749
577.088123,4737.318029,7550.100608,919.314598
577.088443,7031.956449,7624.121203,-612.876398
577.088764,7846.182985,9326.594869,-1608.800546
577.089084,6439.791695,11843.295072,-842.705048
577.089405,4663.297435,12657.521608,-995.924147
577.089726,5181.441594,9178.553681,766.095498
577.090046,5403.503377,6143.709319,1915.238745
577.090367,7105.977043,6069.688724,1762.019645
577.090688,5107.421000,5699.585753,-229.828649
577.091008,4589.276840,7105.977043,-2757.943793
577.091329,4367.215058,7179.997637,-2451.505594
577.091650,2960.823768,5847.626942,536.266849
577.091970,6217.729913,5995.668130,3524.039291
577.092291,5847.626942,7105.977043,3524.039291
577.092611,5255.462188,9770.718434,1532.190996
577.092932,4811.338623,11251.130318,-536.266849
577.093253,3997.112087,10214.842000,-2451.505594
577.093573,4515.256246,6957.935855,-2681.334243
577.093894,7105.977043,6661.853478,-689.485948
577.094215,6809.894666,8290.306550,0.000000
577.094535,4663.297435,10436.903782,-229.828649
577.094856,2368.659014,9400.615463,-1762.019645
577.095176,2072.576638,6365.771101,-2221.676944
577.095497,3108.864956,4367.215058,-766.095498
577.095818,3108.864956,5181.441594,2374.896044
577.096138,4811.338623,7994.224174,2451.505594
577.096459,4811.338623,8660.409521,2068.457845
577.096780,5329.482782,8808.450710,0.000000
577.097100,5625.565159,8216.285956,-1378.971896
577.097421,7031.956449,7550.100608,-995.924147
577.097742,7624.121203,7920.203579,0.000000
577.098062,8586.388927,7402.059420,229.828649
577.098383,7476.080014,5329.482782,-1762.019645
577.098703,6957.935855,5477.523971,-2221.676944
577.099024,4811.338623,7994.224174,-1762.019645
577.099345,3627.009116,9474.636058,-1608.800546
577.099665,2590.720797,8734.430116,-1991.848295
577.099986,6883.915261,7994.224174,-1378.971896
577.100307,5847.626942,8586.388927,842.705048
577.100627,4589.276840,10584.944971,1149.143247
577.100948,2590.720797,11695.253884,0.000000
577.101268,1406.391290,10214.842000,-1685.410096
577.101589,3997.112087,7920.203579,229.828649
577.101910,6365.771101,7105.977043,3983.696590
577.102230,3701.029710,6439.791695,1762.019645
577.102551,2146.597232,8586.388927,-536.266849
577.102872,2072.576638,10510.924376,-919.314598
577.103192,2294.638420,8956.491898,-1225.752797
577.103513,4219.173869,7031.956449,0.000000
577.103834,3627.009116,5921.647536,-1149.143247
577.104154,5921.647536,11399.171507,-1838.629195
577.104475,4811.338623,14137.933492,-919.314598
577.104795,4441.235652,12657.521608,-1685.410096
577.105116,7550.100608,10288.862594,-459.657299
577.105437,7402.059420,6735.874072,1685.410096
577.105757,5625.565159,6735.874072,4290.134789
577.106078,5181.441594,7254.018232,3447.429741
577.106399,4737.318029,6439.791695,229.828649
577.106719,5477.523971,5625.565159,-1532.190996
577.107040,6365.771101,2442.679609,-1915.238745
577.107360,7179.997637,2368.659014,0.000000
577.107681,8142.265362,5033.400406,1455.581446
577.108002,7031.956449,7179.997637,-76.609550
577.108322,6439.791695,9104.533087,-3600.648841
577.108643,8068.244768,10436.903782,-5362.668486
577.108964,6883.915261,11621.233289,-3677.258390
577.109284,6069.688724,9696.697840,-689.485948
577.109605,7920.203579,7179.997637,1762.019645
577.109926,4959.379811,6587.832884,842.705048
577.110246,3552.988522,7031.956449,-306.438199
577.110567,592.164754,6365.771101,-1608.800546
577.110887,296.082377,6291.750507,-2451.505594
577.111208,3256.906145,7179.997637,383.047749
577.111529,4737.318029,5773.606348,3677.258390
577.111849,5847.626942,6439.791695,2911.162892
577.112170,6513.812290,7994.224174,1225.752797
577.112491,1554.432478,8956.491898,-612.876398
577.112811,2664.741391,9696.697840,-1302.362347
577.113132,6809.894666,7994.224174,383.047749
577.113452,6513.812290,7846.182985,1762.019645
577.113773,7031.956449,8734.430116,0.000000
577.114094,5921.647536,9696.697840,-919.314598
577.114414,4219.173869,10214.842000,-3677.258390
577.114735,3256.906145,7179.997637,-4060.306139
577.115056,2738.761985,5921.647536,-536.266849
577.115376,6587.832884,6809.894666,2221.676944
577.115697,7031.956449,8512.368333,3447.429741
577.116018,4737.318029,9844.739029,1915.238745
577.116338,5477.523971,11695.253884,1072.533697
577.116659,5255.462188,10362.883188,383.047749
577.116979,4367.215058,7402.059420,-153.219100
577.117300,5625.565159,6143.709319,1149.143247
577.117621,6069.688724,4959.379811,1762.019645
577.117941,5329.482782,6661.853478,-383.047749
577.118262,3775.050304,7994.224174,-2298.286494
577.118583,2960.823768,8734.430116,-3064.381992
577.118903,5625.565159,9252.574275,-1302.362347
577.119224,5403.503377,9844.739029,306.438199
577.119544,4885.359217,9770.718434,1302.362347
577.119865,6365.771101,9992.780217,919.314598
577.120186,5699.585753,11251.130318,-153.219100
577.120506,3478.967927,11843.295072,-919.314598
577.120827,3849.070898,8586.388927,76.609550
577.121148,5773.606348,6291.750507,1302.362347
577.121468,4959.379811,5699.585753,2757.943793
577.121789,3182.885551,6365.771101,2911.162892
577.122110,4885.359217,7920.203579,612.876398
577.122430,3701.029710,7328.038826,-1302.362347
577.122751,2368.659014,4885.359217,153.219100
577.123071,5995.668130,6291.750507,2451.505594
577.123392,6587.832884,7920.203579,1762.019645
577.123713,3552.988522,9252.574275,-1378.971896
577.124033,7031.956449,9622.677246,-2604.724693
577.124354,6587.832884,9770.718434,-3140.991542
577.124675,6439.791695,8956.491898,-1685.410096
577.124995,5995.668130,6957.935855,306.438199
577.125316,4293.194464,5847.626942,-459.657299
577.125636,5255.462188,7254.018232,-1149.143247
577.125957,4959.379811,8586.388927,-459.657299
577.126278,4885.359217,7031.956449,-1685.410096
577.126598,5551.544565,5551.544565,-1608.800546
577.126919,4367.215058,6143.709319,2221.676944
577.127240,3034.844362,7105.977043,2298.286494
577.127560,5181.441594,8956.491898,1302.362347
577.127881,4663.297435,9918.759623,-1149.143247
577.128202,5033.400406,10066.800811,-2451.505594
577.128522,4367.215058,8734.430116,-1762.019645
577.128843,4293.194464,8512.368333,229.828649
577.129163,4737.318029,9474.636058,2681.334243
577.129484,4589.276840,9326.594869,4136.915689
577.129805,3849.070898,9178.553681,229.828649
577.130125,4293.194464,8142.265362,-2451.505594
577.130446,2738.761985,5773.606348,-2451.505594
577.130767,6513.812290,6291.750507,459.657299
577.131087,6883.915261,5921.647536,2604.724693
577.131408,6513.812290,8808.450710,2451.505594
577.131729,8364.327145,11325.150913,612.876398
577.132049,7105.977043,11325.150913,-1915.238745
577.132370,5847.626942,11399.171507,-2834.553343
577.132690,5403.503377,7624.121203,-1685.410096
577.133011,4885.359217,4959.379811,-766.095498
577.133332,8068.244768,6069.688724,689.485948
577.133652,5255.462188,6069.688724,0.000000
577.133973,2220.617826,7254.018232,-1991.848295
577.134294,1776.494261,9030.512492,-2681.334243
577.134614,2442.679609,9918.759623,-842.705048
577.134935,4441.235652,9104.533087,1685.410096
577.135255,8290.306550,9030.512492,3140.991542
577.135576,7920.203579,8734.430116,1072.533697
577.135897,4293.194464,10436.903782,-2145.067394
577.136217,1480.411884,9326.594869,-2374.896044
577.136538,2516.700203,6365.771101,-766.095498
577.136859,4811.338623,5625.565159,689.485948
577.137179,6513.812290,8068.244768,2298.286494
577.137500,5995.668130,10140.821405,383.047749
577.137821,4145.153275,8734.430116,-2834.553343
577.138141,3701.029710,8068.244768,-2298.286494
577.138462,4219.173869,5773.606348,1225.752797
577.138782,6069.688724,5329.482782,3983.696590
577.139103,6069.688724,7402.059420,4136.915689
577.139424,5329.482782,10362.883188,1225.752797
577.139744,5033.400406,11769.274478,-842.705048
577.140065,5477.523971,9178.553681,-3140.991542
577.140386,6735.874072,5255.462188,-3064.381992
577.140706,7031.956449,3775.050304,-306.438199
577.141027,6365.771101,7328.038826,1072.533697
577.141347,4663.297435,8586.388927,2221.676944
577.141668,3849.070898,9474.636058,689.485948
577.141989,4145.153275,7328.038826,-1072.533697
577.142309,4959.379811,5477.523971,-1378.971896
577.142630,5033.400406,6217.729913,-536.266849
577.142951,4663.297435,7846.182985,-1149.143247
577.143271,3997.112087,7920.203579,-2145.067394
577.143592,5773.606348,10881.027347,-1685.410096
577.143913,5255.462188,12731.542202,-1532.190996
577.144233,3182.885551,11325.150913,-536.266849
577.144554,4071.132681,9474.636058,-306.438199
577.144874,5403.503377,8068.244768,1532.190996
577.145195,4589.276840,7105.977043,2604.724693
577.145516,2368.659014,6661.853478,2451.505594
577.145836,1480.411884,5921.647536,0.000000
577.146157,3478.967927,9252.574275,-1072.533697
577.146477,3552.988522,10807.006753,1302.362347
577.146798,4589.276840,8586.388927,842.705048
577.147118,8882.471304,6587.832884,612.876398
577.147439,7031.956449,8808.450710,0.000000
577.147759,3478.967927,10288.862594,-612.876398
577.148080,3627.009116,9030.512492,-612.876398
577.148400,6217.729913,6587.832884,0.000000
577.148721,7328.038826,7031.956449,306.438199
577.149041,6735.874072,8216.285956,383.047749
577.149362,4885.359217,8142.265362,-2834.553343
577.149682,5773.606348,7772.162391,-4136.915689
577.150003,4367.215058,7031.956449,-1608.800546
577.150323,5699.585753,4219.173869,842.705048
577.150644,7328.038826,4219.173869,2681.334243
577.150964,4737.318029,7994.224174,383.047749
577.151285,3849.070898,13027.624579,-536.266849
577.151605,6069.688724,13619.789333,-689.485948
577.151926,6365.771101,9474.636058,-2987.772442
577.152246,4959.379811,5699.585753,-612.876398
577.152567,4145.153275,4589.276840,1915.238745
577.152887,3256.906145,7550.100608,76.609550
577.153208,1480.411884,8290.306550,-842.705048
577.153528,1258.350101,8660.409521,-2145.067394
577.153849,4441.235652,8586.388927,-2451.505594
577.154169,4663.297435,8068.244768,1149.143247
577.154490,3849.070898,9252.574275,3294.210641
577.154810,4589.276840,9918.759623,2374.896044
577.155131,4219.173869,10214.842000,-383.047749
577.155451,4959.379811,10658.965565,-1991.848295
577.155772,3478.967927,9474.636058,-2221.676944
577.156092,4219.173869,7698.141797,0.000000
577.156413,6143.709319,8734.430116,2681.334243
577.156733,6291.750507,8808.450710,1915.238745
577.157054,3701.029710,7402.059420,-1149.143247
577.157375,2516.700203,6291.750507,-2604.724693
577.157695,3775.050304,6957.935855,-2221.676944
577.158016,4145.153275,7328.038826,1838.629195
577.158336,6143.709319,7772.162391,2681.334243
577.158657,9474.636058,8142.265362,459.657299
577.158977,5995.668130,8734.430116,-1762.019645
577.159298,4589.276840,9474.636058,-1149.143247
577.159618,4959.379811,9252.574275,0.000000
577.159939,6809.894666,7624.121203,-689.485948
577.160259,7402.059420,6735.874072,0.000000
577.160580,7105.977043,6587.832884,-383.047749
577.160900,4959.379811,6513.812290,-2528.115143
577.161221,3849.070898,8512.368333,-1915.238745
577.161541,2590.720797,7994.224174,-306.438199
577.161862,4737.318029,6365.771101,-995.924147
577.162182,5403.503377,5255.462188,612.876398
577.162503,3923.091493,6883.915261,383.047749
577.162823,4145.153275,9844.739029,1455.581446
577.163144,4959.379811,11029.068536,1378.971896
577.163464,4737.318029,10214.842000,-1149.143247
577.163785,4885.359217,7698.141797,-1225.752797
577.164105,5625.565159,7105.977043,76.609550
577.164426,6217.729913,9104.533087,1378.971896
577.164746,2738.761985,8956.491898,1685.410096
577.165067,2812.782580,7550.100608,-229.828649
577.165387,4515.256246,5699.585753,-1608.800546
577.165708,3627.009116,3923.091493,-1608.800546
577.166028,4737.318029,7179.997637,383.047749
577.166349,5773.606348,10584.944971,-153.219100
577.166669,3182.885551,10658.965565,-2834.553343
577.166990,4515.256246,10807.006753,-3064.381992
577.167310,5995.668130,7772.162391,-1685.410096
577.167631,5477.523971,7105.977043,-459.657299
577.167951,6661.853478,10362.883188,2451.505594
577.168272,6217.729913,12065.356855,1302.362347
577.168592,3034.844362,9622.677246,-842.705048
577.168913,4071.132681,4737.318029,-153.219100
577.169233,6069.688724,6069.688724,919.314598
577.169554,6217.729913,7772.162391,1225.752797
577.169874,2442.679609,7105.977043,306.438199
577.170195,6143.709319,5107.421000,-2374.896044
577.170515,5181.441594,5625.565159,-2681.334243
577.170836,4071.132681,7179.997637,-536.266849
577.171157,4515.256246,8808.450710,842.705048
577.171477,4885.359217,11695.253884,-1225.752797
577.171798,5773.606348,11843.295072,-2221.676944
577.172118,7179.997637,10807.006753,-1608.800546
577.172439,6513.812290,8512.368333,-1915.238745
577.172759,5033.400406,9844.739029,-459.657299
577.173080,1998.556043,9696.697840,2068.457845
577.173400,3330.926739,7624.121203,229.828649
577.173721,5995.668130,5773.606348,229.828649
577.174041,4071.132681,5033.400406,919.314598
577.174362,2590.720797,5551.544565,229.828649
577.174682,4589.276840,7772.162391,689.485948
577.175003,3330.926739,7402.059420,383.047749
577.175323,4737.318029,6809.894666,76.609550
577.175644,9178.553681,6957.935855,153.219100
577.175964,6661.853478,10066.800811,-1532.190996
577.176285,3034.844362,11843.295072,-2604.724693
577.176605,5033.400406,10955.047942,-2298.286494
577.176926,9252.574275,7846.182985,-2145.067394
577.177246,7179.997637,5847.626942,-1378.971896
577.177567,7031.956449,6883.915261,536.266849
577.177887,4737.318029,8364.327145,153.219100
577.178208,3182.885551,8586.388927,0.000000
577.178528,4145.153275,6809.894666,1455.581446
577.178849,6143.709319,3108.864956,1378.971896
577.179169,6809.894666,3923.091493,995.924147
577.179490,4885.359217,7698.141797,1685.410096
577.179810,3330.926739,9770.718434,0.000000
577.180131,5847.626942,10140.821405,-1149.143247
577.180451,6735.874072,9252.574275,-919.314598
577.180772,5995.668130,7846.182985,-459.657299
577.181092,5921.647536,7105.977043,-153.219100
577.181413,3256.906145,8734.430116,153.219100
577.181733,3478.967927,11991.336260,-536.266849
577.182054,2664.741391,10362.883188,76.609550
577.182374,4885.359217,7994.224174,-536.266849
577.182695,4885.359217,7476.080014,229.828649
577.183015,888.247130,7920.203579,536.266849
577.183336,1628.453072,7031.956449,689.485948
577.183656,3775.050304,6069.688724,689.485948
577.183977,5403.503377,6883.915261,229.828649
577.184298,5773.606348,8808.450710,612.876398
577.184618,5921.647536,9770.718434,919.314598
577.184939,4589.276840,11251.130318,-459.657299
577.185259,4811.338623,10510.924376,766.095498
577.185580,4737.318029,8216.285956,1608.800546
577.185900,6513.812290,6143.709319,-919.314598
577.186221,4811.338623,3182.885551,-1608.800546
577.186541,5551.544565,6439.791695,-1991.848295
577.186862,5329.482782,9696.697840,-1378.971896
577.187182,4589.276840,10510.924376,-766.095498
577.187503,4885.359217,8734.430116,229.828649
577.187823,6143.709319,6957.935855,1762.019645
577.188144,7550.100608,6809.894666,3600.648841
577.188464,5699.585753,7328.038826,2834.553343
577.188785,3997.112087,6217.729913,-2145.067394
577.189105,6143.709319,4663.297435,-4060.306139
577.189426,7105.977043,4293.194464,-1762.019645
577.189746,8068.244768,7105.977043,306.438199
577.190067,7920.203579,9474.636058,459.657299
577.190387,6513.812290,10732.986159,-383.047749
577.190708,5551.544565,9400.615463,-2451.505594
577.191028,4219.173869,7328.038826,-1608.800546
577.191349,4441.235652,6513.812290,1455.581446
577.191669,4737.318029,7994.224174,1915.238745
577.191990,3108.864956,10584.944971,76.609550
577.192310,3849.070898,10584.944971,-2298.286494
577.192631,5255.462188,8882.471304,-2451.505594
577.192951,4589.276840,6587.832884,153.219100
577.193272,2442.679609,7624.121203,2451.505594
577.193592,1850.514855,10066.800811,2528.115143
577.193913,1406.391290,9918.759623,1149.143247
577.194233,4885.359217,8660.409521,1072.533697
577.194554,6809.894666,7031.956449,612.876398
577.194874,4367.215058,6217.729913,-536.266849
577.195195,4885.359217,8364.327145,-1378.971896
577.195515,4219.173869,9992.780217,-459.657299
577.195836,5773.606348,10066.800811,-306.438199
577.196156,8660.409521,8142.265362,0.000000
577.196477,6809.894666,7254.018232,-919.314598
577.196797,4589.276840,9326.594869,-1608.800546
577.197118,4293.194464,9918.759623,459.657299
577.197439,4293.194464,9252.574275,383.047749
577.197759,5477.523971,6883.915261,0.000000
577.198080,5625.565159,5921.647536,1455.581446
577.198400,5181.441594,5995.668130,0.000000
577.198721,2368.659014,6661.853478,-766.095498
577.199041,1554.432478,5551.544565,-995.924147
577.199362,6439.791695,7105.977043,-1149.143247
577.199682,5921.647536,7179.997637,76.609550
577.200003,6809.894666,8364.327145,76.609550
577.200323,6957.935855,10955.047942,-919.314598
577.200644,3849.070898,11103.089130,-2528.115143
577.200964,3701.029710,7550.100608,-2604.724693
577.201285,8512.368333,4737.318029,689.485948
577.201605,5921.647536,4811.338623,1608.800546
577.201926,5329.482782,8216.285956,689.485948
577.202246,4367.215058,8734.430116,-689.485948
577.202567,4589.276840,7476.080014,-3600.648841
577.202887,5625.565159,7031.956449,-1225.752797
577.203208,6217.729913,6365.771101,1915.238745
577.203528,6217.729913,7846.182985,1302.362347
577.203849,6143.709319,9326.594869,1225.752797
577.204169,4885.359217,10436.903782,306.438199
577.204490,7254.018232,10658.965565,-459.657299
577.204810,4811.338623,7328.038826,-612.876398
577.205131,3330.926739,6587.832884,76.609550
577.205451,5107.421000,8512.368333,1455.581446
577.205772,5107.421000,9696.697840,1915.238745
577.206092,3182.885551,8290.306550,0.000000
577.206413,6069.688724,4811.338623,-2604.724693
577.206733,5329.482782,5181.441594,-1378.971896
577.207054,4145.153275,9104.533087,1302.362347
577.207374,2664.741391,9918.759623,2221.676944
577.207695,5847.626942,9770.718434,-536.266849
577.208015,8512.368333,8956.491898,-2068.457845
577.208336,7254.018232,10436.903782,-995.924147
577.208656,3627.009116,9770.718434,-459.657299
577.208977,5403.503377,10362.883188,-1532.190996
577.209297,3256.906145,8882.471304,536.266849
577.209618,3330.926739,6735.874072,1532.190996
577.209938,6439.791695,6365.771101,2528.115143
577.210259,4293.194464,6365.771101,383.047749
577.210579,2368.659014,6957.935855,-842.705048
577.210900,4145.153275,7254.018232,-919.314598
577.211221,5329.482782,6735.874072,-1378.971896
577.211541,6291.750507,8364.327145,842.705048
577.211862,7254.018232,9474.636058,1915.238745
577.212182,5773.606348,10955.047942,-766.095498
577.212503,4737.318029,9104.533087,-1378.971896
577.212823,4071.132681,7254.018232,0.000000
577.213144,5329.482782,6291.750507,842.705048
577.213464,4367.215058,5551.544565,919.314598
577.213785,4589.276840,8438.347739,383.047749
577.214105,4071.132681,9178.553681,-1225.752797
577.214426,2812.782580,5847.626942,-1225.752797
577.214746,5551.544565,4811.338623,76.609550
577.215067,6587.832884,8216.285956,842.705048
577.215387,3775.050304,10658.965565,76.609550
577.215708,5699.585753,10881.027347,-689.485948
577.216028,6661.853478,8364.327145,-1225.752797
577.216349,5847.626942,7476.080014,0.000000
577.216669,4811.338623,6809.894666,2145.067394
577.216990,3256.906145,5625.565159,1072.533697
577.217310,4441.235652,7254.018232,153.219100
577.217631,5329.482782,8808.450710,1149.143247
577.217951,2960.823768,5625.565159,-2298.286494
577.218272,6883.915261,3108.864956,-2528.115143
577.218592,9178.553681,5847.626942,229.828649
577.218913,5773.606348,9474.636058,995.924147
577.219233,6069.688724,10362.883188,-1149.143247
577.219554,8290.306550,8290.306550,-2068.457845
577.219874,8364.327145,9178.553681,-1302.362347
577.220195,7328.038826,9548.656652,1685.410096
577.220515,4663.297435,8438.347739,229.828649
577.220836,3108.864956,7698.141797,-2451.505594
577.221156,4811.338623,8882.471304,0.000000
577.221477,3182.885551,6957.935855,1915.238745
577.221797,3478.967927,5403.503377,-306.438199
577.222118,3108.864956,5403.503377,383.047749
577.222438,2072.576638,7476.080014,689.485948
577.222759,3849.070898,9770.718434,2068.457845
577.223079,5033.400406,10140.821405,1302.362347
577.223400,6217.729913,9992.780217,-1532.190996
577.223720,6513.812290,10288.862594,-1532.190996
577.224041,5107.421000,10140.821405,-919.314598
577.224362,4737.318029,11177.109724,-689.485948
577.224682,3552.988522,9326.594869,612.876398
577.225003,5181.441594,8586.388927,306.438199
577.225323,6143.709319,8734.430116,229.828649
577.225644,2960.823768,7994.224174,-612.876398
577.225964,2590.720797,6883.915261,-1302.362347
577.226285,5329.482782,5551.544565,-383.047749
577.226605,6809.894666,7328.038826,1915.238745
577.226926,5773.606348,8882.471304,2068.457845
577.227246,4589.276840,8512.368333,459.657299
577.227567,5181.441594,9696.697840,-1072.533697
577.227887,5107.421000,10807.006753,-536.266849
577.228208,4737.318029,8586.388927,229.828649
577.228528,5181.441594,5403.503377,-459.657299
577.228849,4737.318029,5181.441594,-383.047749
577.229169,4071.132681,10214.842000,612.876398
577.229490,2886.803174,10658.965565,-536.266849
577.229810,3256.906145,7846.182985,-2604.724693
577.230131,7920.203579,6809.894666,-1455.581446
577.230451,5847.626942,6365.771101,1149.143247
577.230772,3701.029710,4811.338623,995.924147
577.231092,5477.523971,6291.750507,919.314598
577.231413,5181.441594,9400.615463,536.266849
577.231733,6069.688724,10510.924376,306.438199
577.232054,4737.318029,9400.615463,-689.485948
577.232374,4737.318029,6365.771101,-2451.505594
577.232695,4885.359217,7031.956449,-459.657299
577.233015,4515.256246,7328.038826,2681.334243
577.233336,4293.194464,5477.523971,0.000000
577.233656,5921.647536,4293.194464,-1225.752797
577.233977,5033.400406,6809.894666,-612.876398
577.234297,5773.606348,10214.842000,689.485948
577.234618,4663.297435,10140.821405,1225.752797
577.234938,6513.812290,10510.924376,-1072.533697
577.235259,7254.018232,9178.553681,-1915.238745
577.235579,6513.812290,5699.585753,-1532.190996
577.235900,6439.791695,6587.832884,0.000000
577.236220,3701.029710,7624.121203,1072.533697
577.236541,1998.556043,8364.327145,459.657299
577.236861,6069.688724,8882.471304,1302.362347
577.237182,5995.668130,6587.832884,1532.190996
577.237503,6513.812290,6513.812290,229.828649
577.237823,7105.977043,6217.729913,153.219100
577.238144,5847.626942,7328.038826,-995.924147
577.238464,5551.544565,8068.244768,-1378.971896
577.238785,6661.853478,8438.347739,-383.047749
577.239105,9178.553681,9918.759623,-842.705048
577.239426,8290.306550,11547.212695,-689.485948
577.239746,5625.565159,11325.150913,-459.657299
577.240067,3552.988522,7624.121203,-1685.410096
577.240387,2368.659014,4811.338623,-2068.457845
577.240708,3478.967927,6513.812290,766.095498
577.241028,3182.885551,10214.842000,2145.067394
577.241349,370.102971,10288.862594,-306.438199
577.241669,1998.556043,9030.512492,-612.876398
577.241990,4145.153275,8290.306550,612.876398
577.242310,1998.556043,9104.533087,1608.800546
577.242631,2220.617826,9326.594869,1762.019645
577.242951,1998.556043,9770.718434,0.000000
577.243272,3775.050304,10584.944971,-1072.533697
577.243592,3775.050304,10955.047942,919.314598
577.243913,2738.761985,8808.450710,-76.609550
577.244233,3256.906145,9918.759623,-2068.457845
577.244554,3182.885551,11399.171507,-153.219100
577.244874,2220.617826,10140.821405,-459.657299
577.245195,4145.153275,6735.874072,-536.266849
577.245515,4367.215058,3552.988522,0.000000
577.245836,5107.421000,5033.400406,1072.533697
577.246156,4219.173869,8808.450710,1991.848295
577.246477,4663.297435,10066.800811,0.000000
577.246797,7179.997637,9622.677246,-1762.019645
577.247118,9992.780217,8586.388927,-1225.752797
577.247438,7846.182985,6883.915261,-536.266849
577.247759,6217.729913,6735.874072,-383.047749
577.248079,4811.338623,6365.771101,-689.485948
577.248400,5551.544565,7698.141797,-1072.533697
577.248720,6217.729913,7031.956449,0.000000
577.249041,7698.141797,7698.141797,-536.266849
577.249361,4885.359217,6809.894666,-1149.143247
577.249682,4367.215058,6365.771101,0.000000
577.250002,5181.441594,5847.626942,536.266849
577.250323,4071.132681,5181.441594,-153.219100
577.250643,6143.709319,5847.626942,689.485948
577.250964,8438.347739,9326.594869,1302.362347
577.251284,6069.688724,10658.965565,-306.438199
577.251605,4367.215058,9770.718434,-689.485948
577.251925,5921.647536,8956.491898,229.828649
577.252246,7105.977043,10510.924376,766.095498
577.252566,3997.112087,7772.162391,1685.410096
577.252887,3034.844362,4367.215058,-153.219100
577.253207,5995.668130,4737.318029,-2145.067394
577.253528,3034.844362,7328.038826,-1302.362347
577.253848,3182.885551,8512.368333,689.485948
577.254169,6217.729913,9992.780217,229.828649
577.254489,6587.832884,10881.027347,-229.828649
577.254810,5255.462188,9400.615463,1685.410096
577.255130,5773.606348,7328.038826,1685.410096
577.255451,4145.153275,5995.668130,-2528.115143
577.255771,3701.029710,9400.615463,-2221.676944
577.256092,4737.318029,10362.883188,-919.314598
577.256412,6439.791695,9770.718434,-1225.752797
577.256733,5921.647536,7698.141797,1608.800546
577.257053,4145.153275,7254.018232,0.000000
577.257374,2516.700203,7105.977043,-995.924147
577.257694,4441.235652,9400.615463,-383.047749
577.258015,3330.926739,7920.203579,-1608.800546
577.258335,5255.462188,6143.709319,229.828649
577.258656,8290.306550,5477.523971,2374.896044
577.258976,4885.359217,9104.533087,919.314598
577.259297,1702.473667,9252.574275,-1685.410096
577.259617,5995.668130,10066.800811,-3140.991542
577.259938,7402.059420,10881.027347,-1991.848295
577.260258,6513.812290,8734.430116,153.219100
577.260579,5477.523971,6069.688724,1762.019645
577.260899,3775.050304,5847.626942,-383.047749
577.261220,3330.926739,6809.894666,-689.485948
577.261540,4737.318029,5995.668130,842.705048
577.261861,6217.729913,3034.844362,-1225.752797
577.262181,8956.491898,4145.153275,-1378.971896
577.262502,9696.697840,7772.162391,1685.410096
577.262822,7402.059420,9770.718434,-229.828649
577.263143,9400.615463,7920.203579,-1455.581446
577.263463,11325.150913,5181.441594,-1455.581446
577.263784,11991.336260,3330.926739,-612.876398
577.264104,8882.471304,2294.638420,153.219100
577.264425,6735.874072,3849.070898,-1225.752797
577.264745,8956.491898,9992.780217,-2834.553343
577.265066,8364.327145,11399.171507,-1991.848295
577.265386,7476.080014,8882.471304,-1915.238745
577.265707,9474.636058,5995.668130,-919.314598
577.266027,6291.750507,6809.894666,1225.752797
577.266348,2368.659014,8068.244768,2528.115143
577.266669,4071.132681,6439.791695,2298.286494
577.266989,5773.606348,5181.441594,0.000000
577.267310,6587.832884,5477.523971,0.000000
577.267630,6957.935855,7179.997637,919.314598
577.267951,6439.791695,6883.915261,0.000000
577.268271,7179.997637,8142.265362,383.047749
577.268592,10214.842000,7402.059420,2451.505594
577.268912,12435.459826,5625.565159,306.438199
577.269233,13619.789333,3701.029710,0.000000
577.269553,10584.944971,1554.432478,689.485948
577.269874,10362.883188,2220.617826,-536.266849
577.270194,13471.748144,3256.906145,-383.047749
577.270515,13989.892304,3627.009116,-2298.286494
577.270835,15322.262999,3775.050304,-2528.115143
577.271156,15322.262999,5477.523971,-919.314598
577.271476,12435.459826,5773.606348,-229.828649
577.271797,9696.697840,3478.967927,-229.828649
577.272117,9770.718434,1924.535449,-306.438199
577.272438,10955.047942,1480.411884,-76.609550
577.272758,9104.533087,3997.112087,536.266849
577.273079,7476.080014,6217.729913,-766.095498
577.273399,7105.977043,8142.265362,-2451.505594
577.273720,5773.606348,7476.080014,-842.705048
577.274040,6143.709319,8290.306550,689.485948
577.274361,6957.935855,8364.327145,2221.676944
577.274681,4219.173869,6957.935855,919.314598
577.275002,3108.864956,4885.359217,-842.705048
577.275322,5773.606348,5477.523971,-306.438199
577.275643,6143.709319,6513.812290,689.485948
577.275963,5995.668130,7328.038826,459.657299
577.276284,8512.368333,7179.997637,1455.581446
577.276604,10658.965565,8290.306550,2298.286494
577.276925,9992.780217,7698.141797,3064.381992
577.277245,8290.306550,4441.235652,2298.286494
577.277566,10214.842000,2220.617826,-459.657299
577.277886,12435.459826,1702.473667,-1378.971896
577.278207,11325.150913,2072.576638,-306.438199
577.278527,14211.954086,2812.782580,-1762.019645
577.278848,14656.077652,4219.173869,-2298.286494
577.279168,13101.645173,7179.997637,-1915.238745
577.279489,11695.253884,7031.956449,459.657299
577.279809,12805.562797,5403.503377,766.095498
577.280130,14137.933492,4441.235652,0.000000
577.280450,11621.233289,4145.153275,-1072.533697
577.280771,7105.977043,4071.132681,-3600.648841
577.281091,7624.121203,6809.894666,-4826.401637
577.281412,6513.812290,8808.450710,-919.314598
577.281732,6513.812290,9548.656652,2298.286494
577.282053,8586.388927,9696.697840,2757.943793
577.282373,4737.318029,8586.388927,995.924147
577.282694,1258.350101,6217.729913,306.438199
577.283014,2812.782580,4589.276840,3524.039291
577.283335,3182.885551,4071.132681,3600.648841
577.283655,5699.585753,5107.421000,2987.772442
577.283976,6587.832884,7105.977043,1455.581446
577.284296,8882.471304,8586.388927,-2221.676944
577.284617,8438.347739,7994.224174,-1608.800546
577.284937,10288.862594,4737.318029,919.314598
577.285258,11843.295072,2146.597232,1991.848295
577.285578,13989.892304,2442.679609,1302.362347
577.285899,12583.501014,3923.091493,383.047749
577.286219,13545.768739,5329.482782,-1225.752797
577.286540,12287.418637,3552.988522,-2604.724693
577.286860,13767.830521,2442.679609,-2374.896044
577.287181,14285.974681,1554.432478,-1378.971896
577.287501,14878.139434,2442.679609,-1149.143247
577.287822,12583.501014,3404.947333,-1455.581446
577.288142,11029.068536,2368.659014,-2451.505594
577.288463,10140.821405,2368.659014,-2911.162892
577.288783,10288.862594,3997.112087,-1149.143247
577.289104,9622.677246,6365.771101,-459.657299
577.289424,9770.718434,8586.388927,-995.924147
577.289745,7920.203579,8068.244768,-1838.629195
577.290065,6439.791695,7031.956449,-383.047749
577.290386,5847.626942,5995.668130,1378.971896
577.290706,5477.523971,6587.832884,995.924147
577.291027,4737.318029,6661.853478,-1378.971896
577.291347,5181.441594,6957.935855,-1762.019645
577.291668,6217.729913,8586.388927,153.219100
577.291988,7105.977043,9104.533087,3370.820191
577.292309,7846.182985,9104.533087,4519.963438
577.292629,8068.244768,7328.038826,2911.162892
577.292950,7031.956449,5477.523971,536.266849
577.293270,8290.306550,4293.194464,1378.971896
577.293591,9622.677246,4811.338623,2145.067394
577.293911,9992.780217,4589.276840,995.924147
577.294232,12879.583391,3701.029710,-995.924147
577.294552,14063.912898,3552.988522,-2145.067394
577.294873,13471.748144,4219.173869,-2374.896044
577.295193,13693.809927,4959.379811,-689.485948
577.295514,13471.748144,5329.482782,-766.095498
577.295834,13471.748144,4737.318029,-459.657299
577.296155,14878.139434,4589.276840,-536.266849
577.296475,13915.871710,4515.256246,-1838.629195
577.296796,10881.027347,4293.194464,-3447.429741
577.297116,9030.512492,4367.215058,-3600.648841
577.297437,8290.306550,4737.318029,-2987.772442
577.297757,8068.244768,3997.112087,0.000000
577.298078,8660.409521,4589.276840,919.314598
577.298398,7624.121203,7550.100608,689.485948
577.298719,3701.029710,8808.450710,229.828649
577.299039,2886.803174,8290.306550,1072.533697
577.299360,4811.338623,7328.038826,2068.457845
577.299680,4737.318029,5551.544565,1915.238745
577.300001,5625.565159,6365.771101,1915.238745
577.300321,5551.544565,6735.874072,995.924147
577.300642,5181.441594,7179.997637,76.609550
577.300962,7105.977043,5995.668130,1838.629195
577.301283,8586.388927,5255.462188,1072.533697
577.301603,9770.718434,5625.565159,76.609550
577.301924,9844.739029,6217.729913,1455.581446
577.302244,10288.862594,4663.297435,1072.533697
577.302565,12731.542202,2368.659014,383.047749
577.302885,13619.789333,1702.473667,-612.876398
577.303206,12953.603985,2664.741391,-1838.629195
577.303526,13989.892304,4293.194464,-2145.067394
577.303847,14878.139434,4145.153275,-1685.410096
577.304167,14804.118840,2886.803174,-766.095498
577.304488,15396.283594,2664.741391,-689.485948
577.304808,14285.974681,4367.215058,-1149.143247
577.305129,11103.089130,5329.482782,-2068.457845
577.305449,10436.903782,4811.338623,-1838.629195
577.305770,11547.212695,3404.947333,-689.485948
577.306090,10955.047942,2294.638420,0.000000
577.306411,9252.574275,3330.926739,0.000000
577.306731,7105.977043,6365.771101,-1225.752797
577.307052,5551.544565,7994.224174,-1838.629195
577.307372,6809.894666,8512.368333,612.876398
577.307693,7624.121203,6957.935855,2834.553343
577.308013,6365.771101,6957.935855,2987.772442
577.308334,4441.235652,7624.121203,2221.676944
577.308654,4145.153275,8808.450710,459.657299
577.308975,4589.276840,7476.080014,0.000000
577.309295,6587.832884,5699.585753,1685.410096
577.309616,7994.224174,5477.523971,2451.505594
577.309936,6809.894666,5181.441594,1072.533697
577.310257,6661.853478,5477.523971,0.000000
577.310577,8438.347739,5625.565159,-842.705048
577.310898,10955.047942,5329.482782,-536.266849
577.311218,12583.501014,5033.400406,0.000000
577.311539,12953.603985,5255.462188,-229.828649
577.311859,12731.542202,5181.441594,-1685.410096
577.312180,11843.295072,5033.400406,-2374.896044
577.312500,11547.212695,3478.967927,-2298.286494
577.312821,12731.542202,3034.844362,-2604.724693
577.313141,13693.809927,4367.215058,-1608.800546
577.313462,12657.521608,6069.688724,-1608.800546
577.313782,11251.130318,6957.935855,-842.705048
577.314103,9918.759623,5921.647536,-842.705048
577.314423,8586.388927,4219.173869,-306.438199
577.314744,8438.347739,3404.947333,-306.438199
577.315064,8216.285956,4145.153275,-459.657299
577.315385,7920.203579,6661.853478,0.000000
577.315706,8290.306550,9104.533087,229.828649
577.316026,7105.977043,9696.697840,76.609550
577.316347,5921.647536,8438.347739,766.095498
577.316667,6069.688724,6735.874072,1532.190996
577.316988,5551.544565,5033.400406,3217.601092
577.317308,5477.523971,4367.215058,2911.162892
577.317629,6513.812290,4071.132681,1072.533697
577.317949,6957.935855,4663.297435,153.219100
577.318270,8586.388927,4959.379811,229.828649
577.318590,10436.903782,6365.771101,995.924147
577.318911,11029.068536,6439.791695,76.609550
577.319231,11547.212695,5255.462188,-1072.533697
577.319552,11991.336260,4293.194464,-612.876398
577.319872,11695.253884,2590.720797,-842.705048
577.320193,11843.295072,2442.679609,-536.266849
577.320513,12435.459826,3775.050304,-1225.752797
577.320834,12361.439231,5847.626942,-2757.943793
577.321154,11991.336260,6735.874072,-2987.772442
577.321475,11621.233289,6439.791695,-2221.676944
577.321795,11029.068536,5995.668130,-1149.143247
577.322116,9696.697840,4885.359217,689.485948
577.322436,8216.285956,4515.256246,919.314598
577.322757,7402.059420,4145.153275,689.485948
577.323077,6587.832884,4663.297435,0.000000
577.323398,6883.915261,5625.565159,306.438199
577.323718,6735.874072,6069.688724,689.485948
577.324039,7328.038826,6809.894666,766.095498
577.324359,7254.018232,7846.182985,459.657299
577.324680,7254.018232,7476.080014,0.000000
577.325000,7105.977043,6735.874072,1302.362347
577.325321,7476.080014,5995.668130,2145.067394
577.325641,7402.059420,5255.462188,1991.848295
577.325962,7994.224174,5551.544565,919.314598
577.326282,8808.450710,5921.647536,-306.438199
577.326603,9474.636058,5699.585753,-995.924147
577.326923,9992.780217,5033.400406,-919.314598
577.327244,10436.903782,3775.050304,-842.705048
577.327564,10510.924376,3775.050304,-153.219100
577.327885,10288.862594,4959.379811,-306.438199
577.328205,10362.883188,6217.729913,-995.924147
577.328526,10584.944971,6143.709319,-1225.752797
577.328846,11843.295072,5921.647536,-1532.190996
577.329167,11251.130318,5847.626942,-766.095498
577.329487,9918.759623,6735.874072,-766.095498
577.329808,8956.491898,7402.059420,-1225.752797
577.330128,9030.512492,7105.977043,-1455.581446
577.330449,8142.265362,6143.709319,-153.219100
577.330769,8586.388927,4737.318029,459.657299
577.331090,7846.182985,3923.091493,536.266849
577.331410,7105.977043,3849.070898,459.657299
577.331731,7550.100608,3775.050304,229.828649
577.332051,8882.471304,4515.256246,612.876398
577.332372,9474.636058,5995.668130,842.705048
577.332692,9400.615463,6809.894666,536.266849
577.333013,9104.533087,7476.080014,229.828649
577.333333,9400.615463,8068.244768,-459.657299
577.333654,9548.656652,8068.244768,-383.047749
577.333974,9548.656652,7254.018232,-536.266849
577.334295,9104.533087,5551.544565,-459.657299
577.334615,7698.141797,4441.235652,766.095498
577.334936,8142.265362,3701.029710,1302.362347
577.335256,8586.388927,3552.988522,1762.019645
577.335577,8586.388927,4145.153275,1302.362347
577.335897,8660.409521,4663.297435,612.876398
577.336218,8586.388927,4663.297435,-459.657299
577.336538,9326.594869,4293.194464,-1302.362347
577.336859,9992.780217,3923.091493,-1302.362347
577.337179,10584.944971,5255.462188,-1915.238745
577.337500,10955.047942,7031.956449,-2604.724693
577.337820,10807.006753,8068.244768,-2298.286494
577.338141,10658.965565,7920.203579,-1532.190996
577.338461,10510.924376,7328.038826,0.000000
577.338782,9844.739029,6069.688724,1072.533697
577.339102,8882.471304,4737.318029,1532.190996
577.339423,8068.244768,3849.070898,689.485948
577.339743,8290.306550,2886.803174,995.924147
577.340064,7994.224174,2146.597232,1455.581446
577.340384,8808.450710,2738.761985,842.705048
577.340705,8956.491898,5329.482782,459.657299
577.341025,9548.656652,7994.224174,76.609550
577.341346,8956.491898,9696.697840,229.828649
577.341666,8956.491898,9474.636058,1225.752797
577.341987,7476.080014,8882.471304,1838.629195
577.342307,6365.771101,8734.430116,1455.581446
577.342628,5107.421000,7994.224174,1149.143247
577.342948,3997.112087,6883.915261,-612.876398
577.343269,4811.338623,5773.606348,-689.485948
577.343589,5107.421000,5625.565159,0.000000
577.343910,4885.359217,6365.771101,1225.752797
577.344230,5033.400406,8068.244768,1838.629195
577.344551,5329.482782,9770.718434,2221.676944
577.344871,6291.750507,10362.883188,2528.115143
577.345192,6957.935855,10140.821405,3524.039291
577.345512,6809.894666,9252.574275,3677.258390
577.345833,6513.812290,8956.491898,2987.772442
577.346154,5551.544565,8364.327145,2681.334243
577.346474,5477.523971,8808.450710,2374.896044
577.346795,5625.565159,9178.553681,2451.505594
577.347115,6217.729913,8808.450710,2911.162892
577.347436,5551.544565,8290.306550,3830.477490
577.347756,5551.544565,8142.265362,4979.620737
577.348077,5255.462188,8216.285956,4903.011187
577.348397,5773.606348,7846.182985,4979.620737
577.348718,6587.832884,7994.224174,5286.058936
577.349038,6883.915261,8438.347739,5669.106685
577.349359,6513.812290,9252.574275,5822.325785
577.349680,6291.750507,9622.677246,6358.592633
577.350000,5995.668130,9030.512492,7048.078582
577.350321,6365.771101,8734.430116,6894.859482
577.350641,5921.647536,7994.224174,6741.640382
577.350962,5625.565159,6883.915261,6205.373534
577.351282,4959.379811,5477.523971,6052.154434
577.351603,5107.421000,4737.318029,6435.202183
577.351923,5403.503377,5255.462188,6665.030833
577.352244,5625.565159,7031.956449,6205.373534
577.352564,5847.626942,7624.121203,5975.544884
577.352885,5921.647536,8216.285956,5669.106685
577.353205,5921.647536,7698.141797,6588.421283
577.353526,5107.421000,7179.997637,7201.297681
577.353847,5181.441594,6143.709319,7660.954980
577.354167,3997.112087,5921.647536,7277.907231
577.354488,3108.864956,5995.668130,6511.811733
577.354808,3256.906145,6587.832884,6358.592633
577.355129,3108.864956,6661.853478,6281.983084
577.355449,3404.947333,6291.750507,6205.373534
577.355770,3775.050304,6883.915261,6971.469032
577.356090,3256.906145,7328.038826,7048.078582
577.356411,2516.700203,7328.038826,6894.859482
577.356731,2516.700203,7476.080014,6818.249932
577.357052,3627.009116,7846.182985,7048.078582
577.357372,3552.988522,7846.182985,6665.030833
577.357693,3330.926739,7624.121203,5286.058936
577.358014,3404.947333,6883.915261,4903.011187
577.358334,3775.050304,6217.729913,4903.011187
577.358655,3330.926739,5181.441594,5439.278036
577.358975,3404.947333,5181.441594,4136.915689
577.359296,3404.947333,5551.544565,3140.991542
577.359616,4589.276840,6809.894666,3140.991542
577.359937,5551.544565,8290.306550,3447.429741
577.360257,6143.709319,8734.430116,3600.648841
577.360578,6809.894666,9992.780217,2681.334243
577.360898,6883.915261,10732.986159,3140.991542
577.361219,6661.853478,10362.883188,4596.572988
577.361540,6365.771101,9474.636058,5898.935335
577.361860,5181.441594,9400.615463,4979.620737
577.362181,4811.338623,9104.533087,4826.401637
577.362501,3775.050304,8364.327145,4979.620737
577.362822,2886.803174,6365.771101,3753.867940
577.363142,3108.864956,3923.091493,2451.505594
577.363463,4145.153275,2960.823768,1378.971896
577.363783,4663.297435,4589.276840,842.705048
577.364104,6513.812290,7994.224174,153.219100
577.364424,8290.306550,11917.315666,-689.485948
577.364745,9844.739029,15618.345376,-1302.362347
577.365065,10584.944971,17246.798449,-306.438199
577.365386,9992.780217,17098.757260,2604.724693
577.365707,9030.512492,14434.015869,5209.449386
577.366027,6883.915261,9992.780217,7048.078582
577.366348,6217.729913,7402.059420,7507.735880
577.366668,3256.906145,6143.709319,7048.078582
577.366989,888.247130,5551.544565,5592.497135
577.367309,444.123565,4663.297435,4443.353888
577.367630,3330.926739,4589.276840,3983.696590
577.367950,3997.112087,5107.421000,3677.258390
577.368271,5699.585753,7328.038826,3294.210641
577.368591,7476.080014,11325.150913,2528.115143
577.368912,7550.100608,13989.892304,1455.581446
577.369232,6365.771101,14730.098246,1762.019645
577.369553,9252.574275,14582.057057,1762.019645
577.369874,10140.821405,14063.912898,2451.505594
577.370194,6587.832884,11103.089130,4366.744339
577.370515,4811.338623,6735.874072,5056.230287
577.370835,6143.709319,4811.338623,6741.640382
577.371156,2220.617826,4367.215058,7354.516781
577.371476,2146.597232,5625.565159,6205.373534
577.371797,3552.988522,6365.771101,4826.401637
577.372117,4885.359217,7031.956449,4903.011187
577.372438,3701.029710,5477.523971,7814.174080
577.372758,5921.647536,5033.400406,9959.241474
577.373079,6735.874072,9178.553681,9652.803275
577.373399,3923.091493,13545.768739,7507.735880
577.373720,2294.638420,12435.459826,5132.839837
577.374041,4663.297435,9104.533087,3677.258390
577.374361,5255.462188,5255.462188,5439.278036
577.374682,4293.194464,4737.318029,9729.412825
577.375002,4737.318029,7105.977043,9959.241474
577.375323,1554.432478,8512.368333,6205.373534
577.375643,1480.411884,7772.162391,4366.744339
577.375964,3108.864956,4663.297435,5439.278036
577.376284,4219.173869,1480.411884,7201.297681
577.376605,4589.276840,1258.350101,8044.002729
577.376925,6291.750507,5477.523971,7584.345430
577.377246,5773.606348,10658.965565,5822.325785
577.377567,4145.153275,10881.027347,4596.572988
577.377887,4959.379811,7846.182985,5286.058936
577.378208,4959.379811,5995.668130,6128.763984
577.378528,2146.597232,5033.400406,7354.516781
577.378849,2516.700203,4885.359217,8886.707777
577.379169,6217.729913,7846.182985,8503.660028
577.379490,3108.864956,10214.842000,6128.763984
577.379810,2664.741391,11029.068536,4213.525239
577.380131,4367.215058,10140.821405,3600.648841
577.380451,5329.482782,8660.409521,4596.572988
577.380772,2368.659014,4663.297435,6511.811733
577.381092,5403.503377,1850.514855,6665.030833
577.381413,7105.977043,3701.029710,6971.469032
577.381734,3701.029710,7179.997637,7354.516781
577.382054,3330.926739,8290.306550,4826.401637
577.382375,7031.956449,9252.574275,3140.991542
577.382695,6513.812290,9918.759623,4443.353888
577.383016,4589.276840,9326.594869,7277.907231
577.383336,7772.162391,9696.697840,6511.811733
577.383657,7772.162391,9992.780217,3447.429741
577.383977,3775.050304,8438.347739,612.876398
577.384298,3849.070898,6143.709319,-612.876398
577.384618,7105.977043,6661.853478,1532.190996
577.384939,6365.771101,9178.553681,5669.106685
577.385259,4885.359217,11991.336260,6741.640382
577.385580,6439.791695,12805.562797,4366.744339
577.385901,5625.565159,12435.459826,2528.115143
577.386221,4663.297435,10140.821405,4519.963438
577.386542,5181.441594,8734.430116,5975.544884
577.386862,4293.194464,7994.224174,5286.058936
577.387183,3478.967927,9104.533087,4749.792088
577.387503,4737.318029,10436.903782,4366.744339
577.387824,5625.565159,10066.800811,4060.306139
577.388144,4885.359217,9030.512492,3294.210641
577.388465,5477.523971,8586.388927,4290.134789
577.388785,5773.606348,8956.491898,5362.668486
577.389106,6365.771101,7624.121203,5515.887586
577.389427,7624.121203,8068.244768,4060.306139
577.389747,6883.915261,8512.368333,2834.553343
577.390068,5921.647536,8068.244768,2834.553343
577.390388,8734.430116,8438.347739,3830.477490
577.390709,8068.244768,8438.347739,4290.134789
577.391029,6883.915261,8216.285956,3217.601092
577.391350,7624.121203,8586.388927,2604.724693
577.391670,5255.462188,8586.388927,3524.039291
577.391991,3478.967927,7254.018232,5056.230287
577.392311,5107.421000,6439.791695,6128.763984
577.392632,4811.338623,6439.791695,4290.134789
577.392952,2738.761985,6883.915261,3983.696590
577.393273,2220.617826,8438.347739,5132.839837
577.393594,2368.659014,9030.512492,5592.497135
577.393914,2072.576638,7994.224174,7354.516781
577.394235,3330.926739,7105.977043,6128.763984
577.394555,3701.029710,8364.327145,3907.087040
577.394876,3108.864956,10288.862594,4213.525239
577.395196,2738.761985,11769.274478,5898.935335
577.395517,3182.885551,10214.842000,5898.935335
577.395837,3627.009116,6809.894666,6052.154434
577.396158,5107.421000,7105.977043,7048.078582
577.396478,4737.318029,8808.450710,7660.954980
577.396799,3923.091493,8956.491898,7124.688131
577.397119,4145.153275,7624.121203,6281.983084
577.397440,5625.565159,4959.379811,5592.497135
577.397761,5847.626942,3775.050304,7660.954980
577.398081,6217.729913,5181.441594,9193.145976
577.398402,5773.606348,6809.894666,7354.516781
577.398722,4737.318029,7328.038826,4443.353888
577.399043,4663.297435,5551.544565,3753.867940
577.399363,6809.894666,4219.173869,4749.792088
577.399684,9252.574275,6957.935855,6818.249932
577.400004,7624.121203,10140.821405,5056.230287
577.400325,4219.173869,9548.656652,1455.581446
577.400645,5107.421000,8068.244768,766.095498
577.400966,6439.791695,7402.059420,4673.182538
577.401286,4811.338623,7402.059420,7431.126331
577.401607,4071.132681,7846.182985,6205.373534
577.401928,2442.679609,7994.224174,4060.306139
577.402248,1258.350101,6957.935855,4443.353888
577.402569,2812.782580,5773.606348,7048.078582
577.402889,4219.173869,5773.606348,6052.154434
577.403210,2220.617826,6661.853478,3294.210641
577.403530,3701.029710,10214.842000,3447.429741
577.403851,4293.194464,10066.800811,4519.963438
577.404171,5033.400406,10584.944971,5286.058936
577.404492,4663.297435,10881.027347,6741.640382
577.404812,3997.112087,12139.377449,5209.449386
577.405133,3330.926739,10584.944971,5209.449386
577.405454,4737.318029,10584.944971,5439.278036
577.405774,4959.379811,8290.306550,4366.744339
577.406095,4219.173869,4737.318029,3830.477490
577.406415,5329.482782,4219.173869,4903.011187
577.406736,4959.379811,6365.771101,5515.887586
577.407056,4885.359217,6883.915261,4213.525239
577.407377,7846.182985,6587.832884,1608.800546
577.407697,9178.553681,7179.997637,842.705048
577.408018,7624.121203,9178.553681,4826.401637
577.408338,9400.615463,11251.130318,6128.763984
577.408659,10584.944971,11547.212695,2834.553343
577.408979,8290.306550,10066.800811,0.000000
577.409300,7105.977043,9252.574275,1072.533697
577.409621,5033.400406,7105.977043,2604.724693
577.409941,5477.523971,6587.832884,5132.839837
577.410262,5181.441594,8734.430116,6128.763984
577.410582,3552.988522,9326.594869,2681.334243
577.410903,148.041188,6957.935855,383.047749
577.411223,1850.514855,6883.915261,3677.258390
577.411544,3997.112087,7920.203579,7737.564530
577.411864,4219.173869,9326.594869,7354.516781
577.412185,3182.885551,10732.986159,2987.772442
577.412505,3404.947333,11399.171507,1302.362347
577.412826,3997.112087,10807.006753,4903.011187
577.413146,4589.276840,8512.368333,7507.735880
577.413467,4885.359217,7031.956449,5898.935335
577.413788,4811.338623,8808.450710,3217.601092
577.414108,3627.009116,9104.533087,3294.210641
577.414429,3330.926739,5921.647536,3753.867940
577.414749,5995.668130,3923.091493,4136.915689
577.415070,7031.956449,4515.256246,4366.744339
577.415390,5921.647536,6069.688724,3524.039291
577.415711,6069.688724,7105.977043,2604.724693
577.416031,7846.182985,7846.182985,1149.143247
577.416352,8364.327145,6365.771101,1225.752797
577.416672,7772.162391,7179.997637,3217.601092
577.416993,7920.203579,8882.471304,5439.278036
577.417314,7550.100608,11399.171507,5592.497135
577.417634,5107.421000,11991.336260,2987.772442
577.417955,4885.359217,11399.171507,1455.581446
577.418275,3108.864956,8068.244768,4213.525239
577.418596,2960.823768,5477.523971,8044.002729
577.418916,2812.782580,5403.503377,7890.783629
577.419237,2294.638420,7402.059420,3983.696590
577.419557,1184.329507,8660.409521,2451.505594
577.419878,-1332.370696,7105.977043,4903.011187
577.420198,1850.514855,7179.997637,8733.488677
577.420519,6513.812290,11695.253884,8656.879127
577.420839,5181.441594,12509.480420,4519.963438
577.421160,3034.844362,9030.512492,536.266849
577.421481,6513.812290,8438.347739,3294.210641
577.421801,6439.791695,7846.182985,7814.174080
577.422122,3849.070898,6069.688724,6971.469032
577.422442,6513.812290,6365.771101,2374.896044
577.422763,7624.121203,9548.656652,-536.266849
577.423083,4737.318029,10288.862594,2145.067394
577.423404,5699.585753,6661.853478,4596.572988
577.423724,7328.038826,3478.967927,4443.353888
577.424045,4737.318029,3552.988522,4443.353888
577.424365,1628.453072,5255.462188,3217.601092
577.424686,2664.741391,5847.626942,-766.095498
577.425006,4071.132681,5477.523971,-1991.848295
577.425327,5403.503377,4811.338623,1685.410096
577.425648,5699.585753,4589.276840,1302.362347
577.425968,5625.565159,8216.285956,-1685.410096
577.426289,7179.997637,14582.057057,153.219100
577.426609,4219.173869,13767.830521,-153.219100
577.426930,6291.750507,9548.656652,-995.924147
577.427250,7698.141797,6735.874072,1378.971896
577.427571,3108.864956,6365.771101,4290.134789
577.427891,2442.679609,5551.544565,4596.572988
577.428212,4219.173869,5181.441594,1378.971896
577.428532,2368.659014,5551.544565,-1608.800546
577.428853,3404.947333,7624.121203,229.828649
577.429173,5625.565159,8142.265362,2298.286494
577.429494,4589.276840,6439.791695,0.000000
577.429815,6439.791695,7624.121203,-153.219100
577.430135,7031.956449,9992.780217,-766.095498
577.430456,5107.421000,8364.327145,-1225.752797
577.430776,7031.956449,7105.977043,1455.581446
577.431097,10140.821405,12657.521608,919.314598
577.431417,6957.935855,14730.098246,-2757.943793
577.431738,4737.318029,11473.192101,-4443.353888
577.432058,8808.450710,11473.192101,-1685.410096
577.432379,9696.697840,10732.986159,1838.629195
577.432699,3404.947333,5625.565159,1838.629195
577.433020,3627.009116,3552.988522,-842.705048
577.433341,5773.606348,6661.853478,-1608.800546
577.433661,2516.700203,10362.883188,536.266849
577.433982,3330.926739,11695.253884,919.314598
577.434302,5403.503377,8882.471304,-2451.505594
577.434623,5033.400406,7179.997637,-1225.752797
577.434943,4885.359217,7846.182985,2834.553343
577.435264,3775.050304,6809.894666,-383.047749
577.435584,1702.473667,6735.874072,-5975.544884
577.435905,4885.359217,10362.883188,-5592.497135
577.436225,8068.244768,12509.480420,-3064.381992
577.436546,7328.038826,12583.501014,-306.438199
577.436866,7772.162391,12805.562797,1302.362347
577.437187,6661.853478,11695.253884,1532.190996
577.437508,4737.318029,8142.265362,2068.457845
577.437828,2368.659014,3775.050304,2451.505594
577.438149,3256.906145,1184.329507,306.438199
577.438469,4441.235652,4589.276840,919.314598
577.438790,5107.421000,6957.935855,1532.190996
577.439110,3108.864956,6957.935855,-689.485948
577.439431,4071.132681,7031.956449,-1685.410096
577.439751,5181.441594,8216.285956,459.657299
577.440072,4071.132681,8512.368333,229.828649
577.440392,2812.782580,7994.224174,-2374.896044
577.440713,4293.194464,9104.533087,-2911.162892
577.441033,6291.750507,9696.697840,-2911.162892
577.441354,7031.956449,9918.759623,-1225.752797
577.441675,6661.853478,9992.780217,383.047749
577.441995,6291.750507,10955.047942,-995.924147
577.442316,5107.421000,11473.192101,-689.485948
577.442636,4145.153275,9030.512492,1378.971896
577.442957,4293.194464,4293.194464,4443.353888
577.443277,7476.080014,3108.864956,7124.688131
577.443598,5181.441594,4737.318029,5898.935335
577.443918,2072.576638,6291.750507,1915.238745
577.444239,2738.761985,7254.018232,-2068.457845
577.444559,4515.256246,5847.626942,-1455.581446
577.444880,5699.585753,5181.441594,1149.143247
577.445201,5921.647536,5107.421000,3600.648841
577.445521,5551.544565,8290.306550,689.485948
577.445842,4663.297435,10658.965565,-3524.039291
577.446162,3627.009116,12065.356855,-4290.134789
577.446483,5995.668130,12213.398043,-2528.115143
577.446803,7031.956449,11103.089130,306.438199
577.447124,6365.771101,9178.553681,2528.115143
577.447445,5329.482782,8882.471304,1225.752797
577.447765,2072.576638,7624.121203,-306.438199
577.448086,1480.411884,5033.400406,0.000000
577.448406,2886.803174,888.247130,383.047749
577.448727,2960.823768,888.247130,-766.095498
577.449048,3997.112087,4441.235652,306.438199
577.449368,5107.421000,7105.977043,-1225.752797
577.449689,7254.018232,9400.615463,-3524.039291
577.450009,7105.977043,11399.171507,-2068.457845
577.450330,6439.791695,11177.109724,-229.828649
577.450651,7476.080014,9178.553681,76.609550
577.450971,7328.038826,8142.265362,306.438199
577.451292,5403.503377,9252.574275,-766.095498
577.451612,5551.544565,11177.109724,-2298.286494
577.451933,6069.688724,9474.636058,-1991.848295
577.452254,4441.235652,6513.812290,-1378.971896
577.452574,4885.359217,5033.400406,76.609550
577.452895,3404.947333,4663.297435,306.438199
577.453216,2590.720797,5995.668130,153.219100
577.453536,2368.659014,7031.956449,1455.581446
577.453857,5847.626942,9474.636058,0.000000
577.454177,6217.729913,10140.821405,-2374.896044
577.454498,4737.318029,9030.512492,-3294.210641
577.454819,5995.668130,9178.553681,-1532.190996
577.455139,7624.121203,11769.274478,-995.924147
577.455460,4959.379811,12213.398043,-2221.676944
577.455780,4959.379811,11251.130318,-3907.087040
577.456101,7698.141797,10066.800811,-3983.696590
577.456422,6439.791695,11029.068536,-536.266849
577.456742,5403.503377,11473.192101,2528.115143
577.457063,5921.647536,9548.656652,1991.848295
577.457384,4811.338623,7624.121203,306.438199
577.457704,4959.379811,6069.688724,2068.457845
577.458025,4737.318029,4811.338623,2374.896044
577.458345,3775.050304,2886.803174,229.828649
577.458666,5847.626942,4737.318029,153.219100
577.458987,5181.441594,6069.688724,229.828649
577.459307,6069.688724,8734.430116,-1762.019645
577.459628,7105.977043,9696.697840,-1302.362347
577.459948,7328.038826,12509.480420,-459.657299
577.460269,6513.812290,11695.253884,-995.924147
577.460590,7402.059420,9252.574275,-1225.752797
577.460910,6143.709319,8142.265362,-2681.334243
577.461231,4737.318029,7772.162391,-1149.143247
577.461552,4441.235652,7994.224174,1302.362347
577.461872,1628.453072,7772.162391,766.095498
577.462193,1702.473667,6291.750507,76.609550
577.462513,3404.947333,6365.771101,-689.485948
577.462834,2812.782580,6809.894666,-612.876398
577.463155,-518.144159,4589.276840,1762.019645
577.463475,2294.638420,5181.441594,2451.505594
577.463796,4219.173869,5921.647536,2068.457845
577.464116,3034.844362,6069.688724,76.609550
577.464437,5551.544565,9622.677246,-1685.410096
577.464758,6143.709319,11991.336260,-1455.581446
577.465078,3404.947333,10140.821405,1072.533697
577.465399,5847.626942,7994.224174,2681.334243
577.465719,5921.647536,6291.750507,459.657299
577.466040,3552.988522,6143.709319,-1838.629195
577.466361,4441.235652,9474.636058,-2528.115143
577.466681,5773.606348,11399.171507,-2681.334243
577.467002,4589.276840,9400.615463,-1302.362347
577.467323,4589.276840,6143.709319,2681.334243
577.467643,6957.935855,6143.709319,5362.668486
577.467964,5181.441594,7031.956449,5669.106685
577.468284,1776.494261,6217.729913,1915.238745
577.468605,3478.967927,5551.544565,-2528.115143
577.468926,5107.421000,4737.318029,-3524.039291
577.469246,5921.647536,7550.100608,306.438199
577.469567,9104.533087,12065.356855,3294.210641
577.469887,7179.997637,11473.192101,-76.609550
577.470208,6957.935855,11399.171507,-4903.011187
577.470529,5551.544565,9252.574275,-5132.839837
577.470849,6587.832884,7105.977043,-1838.629195
577.471170,7105.977043,7254.018232,2757.943793
577.471491,10066.800811,10807.006753,3447.429741
577.471811,5847.626942,9770.718434,-153.219100
577.472132,2664.741391,6661.853478,-2221.676944
577.472452,3849.070898,3923.091493,229.828649
577.472773,4441.235652,2368.659014,1915.238745
577.473094,2812.782580,2368.659014,1455.581446
577.473414,3997.112087,4515.256246,-1378.971896
577.473735,4367.215058,5773.606348,-3677.258390
577.474055,5773.606348,8438.347739,-1302.362347
577.474376,7550.100608,11103.089130,0.000000
577.474697,5773.606348,12213.398043,-4903.011187
577.475017,3849.070898,11325.150913,-6435.202183
577.475338,6957.935855,12213.398043,-2298.286494
577.475658,7328.038826,12657.521608,536.266849
577.475979,4515.256246,10732.986159,1072.533697
577.476300,2072.576638,8142.265362,-995.924147
577.476620,296.082377,5255.462188,-4136.915689
577.476941,-1036.288319,3627.009116,-2834.553343
577.477262,1850.514855,3997.112087,995.924147
577.477582,5181.441594,6883.915261,1532.190996
577.477903,4959.379811,9104.533087,306.438199
577.478223,4885.359217,9474.636058,1225.752797
577.478544,6217.729913,9252.574275,-689.485948
577.478865,5921.647536,10362.883188,-2221.676944
577.479185,8364.327145,12509.480420,76.609550
577.479506,6217.729913,10584.944971,-306.438199
577.479826,7624.121203,8660.409521,-1915.238745
577.480147,8660.409521,8290.306550,-2068.457845
577.480468,6809.894666,7846.182985,-2298.286494
577.480788,5625.565159,7994.224174,-2145.067394
577.481109,6217.729913,10066.800811,-689.485948
577.481430,5033.400406,10066.800811,-306.438199
577.481750,5403.503377,6809.894666,1762.019645
577.482071,7328.038826,5329.482782,3983.696590
577.482391,4737.318029,5033.400406,2068.457845
577.482712,1036.288319,5847.626942,1302.362347
577.483033,5403.503377,10214.842000,0.000000
577.483353,6883.915261,11547.212695,-1608.800546
577.483674,4441.235652,9696.697840,689.485948
577.483994,6217.729913,8438.347739,2221.676944
577.484315,3775.050304,9844.739029,153.219100
577.484636,-148.041188,9844.739029,-536.266849
577.484956,3404.947333,9844.739029,919.314598
577.485277,6069.688724,8290.306550,0.000000
577.485598,2294.638420,6143.709319,306.438199
577.485918,3034.844362,7772.162391,842.705048
577.486239,4367.215058,9030.512492,0.000000
577.486559,3182.885551,7402.059420,0.000000
577.486880,5181.441594,4737.318029,383.047749
577.487201,7105.977043,2368.659014,689.485948
577.487521,5625.565159,2886.803174,2604.724693
577.487842,3256.906145,5255.462188,4366.744339
577.488162,4145.153275,8882.471304,1302.362347
577.488483,7328.038826,11991.336260,-995.924147
577.488804,8142.265362,11621.233289,-1225.752797
577.489124,5255.462188,6587.832884,-1608.800546
577.489445,5995.668130,2220.617826,-612.876398
577.489765,4071.132681,3627.009116,-229.828649
577.490086,1924.535449,7179.997637,-1608.800546
577.490407,1702.473667,4737.318029,-4213.525239
577.490727,6883.915261,7031.956449,-4290.134789
577.491048,8142.265362,11399.171507,-995.924147
577.491369,6809.894666,11917.315666,2145.067394
577.491689,5107.421000,9326.594869,995.924147
577.492010,6587.832884,7402.059420,76.609550
577.492330,4441.235652,6587.832884,1685.410096
577.492651,3404.947333,4589.276840,2681.334243
577.492972,5477.523971,5551.544565,1072.533697
577.493292,6587.832884,9474.636058,0.000000
577.493613,5477.523971,13397.727550,536.266849
577.493933,5477.523971,13767.830521,0.000000
577.494254,4811.338623,10288.862594,76.609550
577.494575,3997.112087,7772.162391,3677.258390
577.494895,2368.659014,5995.668130,5975.544884
577.495216,1998.556043,6661.853478,689.485948
577.495537,-592.164754,7254.018232,-4443.353888
577.495857,2960.823768,9992.780217,-4443.353888
577.496178,7179.997637,11843.295072,-1532.190996
577.496498,6809.894666,11695.253884,306.438199
577.496819,5699.585753,11029.068536,306.438199
577.497140,5329.482782,9918.759623,-1149.143247
577.497460,4441.235652,9030.512492,-1072.533697
577.497781,5551.544565,7920.203579,1225.752797
577.498101,7328.038826,7698.141797,1149.143247
577.498422,7772.162391,9474.636058,383.047749
577.498743,6809.894666,10510.924376,383.047749
577.499063,4441.235652,8882.471304,-2068.457845
577.499384,3182.885551,6291.750507,-2451.505594
577.499704,5699.585753,4367.215058,383.047749
577.500025,5847.626942,2590.720797,2068.457845
577.500346,5181.441594,3034.844362,1532.190996
577.500666,4515.256246,6365.771101,-1149.143247
577.500987,6291.750507,11843.295072,-3830.477490
577.501308,5995.668130,12065.356855,-1838.629195
577.501628,7994.224174,9622.677246,-153.219100
577.501949,7179.997637,7402.059420,-1072.533697
577.502269,5033.400406,5329.482782,-2528.115143
577.502590,5921.647536,5477.523971,-459.657299
577.502911,5847.626942,7550.100608,612.876398
577.503231,4737.318029,8882.471304,1302.362347
577.503552,4811.338623,8512.368333,153.219100
577.503872,4959.379811,6661.853478,-995.924147
577.504193,3404.947333,6735.874072,1302.362347
577.504514,3552.988522,7920.203579,3830.477490
577.504834,3627.009116,7105.977043,1149.143247
577.505155,2294.638420,5107.421000,-2451.505594
577.505476,2442.679609,4293.194464,-2145.067394
577.505796,4145.153275,5699.585753,-689.485948
577.506117,4071.132681,7846.182985,-689.485948
577.506437,4959.379811,12509.480420,-2298.286494
577.506758,6735.874072,16876.695478,-2451.505594
577.507079,5625.565159,14211.954086,0.000000
577.507399,5255.462188,9400.615463,3294.210641
577.507720,6217.729913,6735.874072,5362.668486
577.508040,2664.741391,6365.771101,3677.258390
577.508361,0.000000,6513.812290,0.000000
577.508682,1628.453072,5921.647536,-2604.724693
577.509002,4219.173869,4737.318029,-1532.190996
577.509323,6365.771101,4885.359217,689.485948
577.509644,5921.647536,5995.668130,1072.533697
577.509964,2738.761985,6513.812290,-383.047749
577.510285,5033.400406,9622.677246,-1378.971896
577.510605,8216.285956,11695.253884,-919.314598
577.510926,9252.574275,11769.274478,-919.314598
577.511247,8808.450710,10955.047942,383.047749
577.511567,10436.903782,12509.480420,1685.410096
577.511888,6143.709319,10140.821405,-1149.143247
577.512208,4737.318029,7031.956449,-1915.238745
577.512529,6365.771101,5255.462188,-1608.800546
577.512850,6143.709319,5107.421000,536.266849
577.513170,3182.885551,6661.853478,4596.572988
577.513491,4441.235652,8660.409521,3907.087040
577.513811,4071.132681,7698.141797,1225.752797
577.514132,4441.235652,6143.709319,1608.800546
577.514453,4515.256246,6291.750507,1991.848295
577.514773,3108.864956,5847.626942,-1149.143247
577.515094,3552.988522,7402.059420,-3064.381992
577.515415,6217.729913,9696.697840,-2757.943793
577.515735,6143.709319,8808.450710,-2298.286494
577.516056,5773.606348,8660.409521,-459.657299
577.516376,6809.894666,11843.295072,153.219100
577.516697,4145.153275,12583.501014,-536.266849
577.517018,2442.679609,10658.965565,-842.705048
577.517338,4367.215058,7994.224174,229.828649
577.517659,5847.626942,7254.018232,536.266849
577.517979,3404.947333,5847.626942,2374.896044
577.518300,1924.535449,3701.029710,1608.800546
577.518621,1332.370696,1554.432478,-1608.800546
577.518941,296.082377,1184.329507,-3217.601092
577.519262,3775.050304,5255.462188,-1608.800546
577.519583,6735.874072,7772.162391,-919.314598
577.519903,7402.059420,10658.965565,-2068.457845
577.520224,9104.533087,14508.036463,-1532.190996
577.520544,8660.409521,15026.180623,-1302.362347
577.520865,5995.668130,11769.274478,-842.705048
577.521186,8438.347739,9400.615463,1378.971896
577.521506,7031.956449,7624.121203,1378.971896
577.521827,3256.906145,5255.462188,-1838.629195
577.522147,3478.967927,4145.153275,-2298.286494
577.522468,4885.359217,4737.318029,-1302.362347
577.522789,3627.009116,6143.709319,2298.286494
577.523109,5995.668130,9030.512492,3294.210641
577.523430,5551.544565,9844.739029,229.828649
577.523751,1702.473667,7994.224174,383.047749
577.524071,4367.215058,7550.100608,1532.190996
577.524392,6957.935855,7698.141797,842.705048
577.524712,5181.441594,9326.594869,-612.876398
577.525033,7031.956449,11843.295072,-995.924147
577.525354,9400.615463,14952.160028,-2451.505594
577.525674,3404.947333,12065.356855,-1608.800546
577.525995,2516.700203,9178.553681,1225.752797
577.526315,6957.935855,9400.615463,2451.505594
577.526636,4885.359217,7846.182985,1838.629195
577.526957,1924.535449,4219.173869,-536.266849
577.527277,3256.906145,2220.617826,-3677.258390
577.527598,4441.235652,4737.318029,-2451.505594
577.527918,1480.411884,6143.709319,2298.286494
577.528239,4145.153275,7476.080014,2298.286494
577.528560,7846.182985,9474.636058,-2068.457845
577.528880,6587.832884,9770.718434,-4060.306139
577.529201,4811.338623,8808.450710,-2451.505594
577.529522,5403.503377,5773.606348,-689.485948
577.529842,5847.626942,7772.162391,1149.143247
577.530163,6143.709319,12435.459826,229.828649
577.530483,5403.503377,13249.686362,-4290.134789
577.530804,4145.153275,9844.739029,-3600.648841
577.531125,3182.885551,4737.318029,1838.629195
577.531445,3775.050304,2590.720797,3217.601092
577.531766,3849.070898,3849.070898,1608.800546
577.532086,1702.473667,5181.441594,-1455.581446
577.532407,4737.318029,6809.894666,-2451.505594
577.532728,6069.688724,8290.306550,-612.876398
577.533048,4811.338623,8586.388927,995.924147
577.533369,6439.791695,9400.615463,-383.047749
577.533690,7698.141797,10510.924376,-1685.410096
577.534010,5255.462188,9918.759623,-919.314598
577.534331,7476.080014,9548.656652,1072.533697
577.534651,7179.997637,7920.203579,842.705048
577.534972,3997.112087,7179.997637,612.876398
577.535293,4959.379811,9252.574275,842.705048
577.535613,4959.379811,11695.253884,-842.705048
577.535934,3849.070898,10955.047942,-1685.410096
577.536254,5995.668130,6513.812290,536.266849
577.536575,5625.565159,4219.173869,1762.019645
577.536896,1924.535449,5033.400406,1149.143247
577.537216,1628.453072,7920.203579,-306.438199
577.537537,4367.215058,10955.047942,-2681.334243
577.537857,7105.977043,12139.377449,-1149.143247
577.538178,6439.791695,11621.233289,2604.724693
577.538499,5181.441594,10288.862594,2145.067394
577.538819,2960.823768,7772.162391,612.876398
577.539140,3108.864956,7105.977043,536.266849
577.539461,3997.112087,7920.203579,-459.657299
577.539781,5773.606348,8734.430116,-842.705048
577.540102,4737.318029,5995.668130,0.000000
577.540422,4737.318029,3256.906145,-383.047749
577.540743,5921.647536,3034.844362,-1532.190996
577.541064,3478.967927,4737.318029,-3064.381992
577.541384,4219.173869,7179.997637,-4060.306139
577.541705,6809.894666,8512.368333,-995.924147
577.542025,9104.533087,10066.800811,0.000000
577.542346,7179.997637,10140.821405,-306.438199
577.542667,6957.935855,11325.150913,-1685.410096
577.542987,5403.503377,12213.398043,-2451.505594
577.543308,3997.112087,10658.965565,-1762.019645
577.543629,2812.782580,4811.338623,-1072.533697
577.543949,4293.194464,222.061783,-306.438199
577.544270,3478.967927,2220.617826,1378.971896
577.544590,1554.432478,6661.853478,1608.800546
577.544911,1776.494261,9622.677246,-383.047749
577.545232,2886.803174,10732.986159,-2528.115143
577.545552,5773.606348,8956.491898,536.266849
577.545873,7624.121203,7105.977043,3294.210641
577.546193,6809.894666,8808.450710,2298.286494
577.546514,4219.173869,10584.944971,-1685.410096
577.546835,3034.844362,8734.430116,-5209.449386
577.547155,7179.997637,8364.327145,-4596.572988
577.547476,9992.780217,8586.388927,1072.533697
577.547797,6439.791695,8882.471304,4290.134789
577.548117,4811.338623,10955.047942,766.095498
577.548438,4737.318029,11177.109724,-2604.724693
577.548758,3108.864956,7772.162391,-3064.381992
577.549079,4441.235652,3627.009116,0.000000
577.549400,8068.244768,3775.050304,1915.238745
577.549720,7105.977043,8512.368333,842.705048
577.550041,3849.070898,11695.253884,-1378.971896
577.550361,3552.988522,9770.718434,-4136.915689
577.550682,5181.441594,8882.471304,-2757.943793
577.551002,7846.182985,8734.430116,1378.971896
577.551323,5921.647536,6809.894666,1378.971896
577.551644,4367.215058,8438.347739,-919.314598
577.551964,4071.132681,11843.295072,459.657299
577.552285,5033.400406,12731.542202,383.047749
577.552605,5551.544565,11473.192101,0.000000
577.552926,5995.668130,10362.883188,0.000000
577.553247,2368.659014,7846.182985,0.000000
577.553567,1776.494261,4515.256246,766.095498
577.553888,3849.070898,296.082377,2068.457845
577.554208,3923.091493,1110.308913,2298.286494
577.554529,5107.421000,6883.915261,2451.505594
577.554849,4589.276840,10807.006753,612.876398
577.555170,4515.256246,11325.150913,-2834.553343
577.555491,5921.647536,9918.759623,-1302.362347
577.555811,7328.038826,7031.956449,1532.190996
577.556132,6809.894666,5625.565159,995.924147
577.556452,5625.565159,7624.121203,-842.705048
577.556773,2960.823768,8216.285956,-3830.477490
577.557094,4885.359217,7698.141797,-3983.696590
577.557414,6513.812290,8142.265362,-459.657299
577.557735,6883.915261,9622.677246,1762.019645
577.558055,5107.421000,9474.636058,2451.505594
577.558376,5033.400406,9548.656652,1455.581446
577.558696,3701.029710,7476.080014,0.000000
577.559017,3256.906145,5477.523971,2068.457845
577.559338,3034.844362,5551.544565,4979.620737
577.559658,3701.029710,6957.935855,3983.696590
577.559979,2368.659014,6587.832884,76.609550
577.560299,2738.761985,5921.647536,-2604.724693
577.560620,4811.338623,5033.400406,-3294.210641
577.560941,5847.626942,6587.832884,-1608.800546
577.561261,8586.388927,11473.192101,1225.752797
577.561582,6439.791695,12435.459826,1302.362347
577.561902,7402.059420,11621.233289,-1991.848295
577.562223,7920.203579,11325.150913,-306.438199
577.562543,7328.038826,9992.780217,3140.991542
577.562864,3997.112087,6365.771101,2911.162892
577.563185,5773.606348,5255.462188,0.000000
577.563505,4441.235652,3849.070898,-2451.505594
577.563826,2072.576638,3034.844362,-2068.457845
577.564146,4441.235652,3997.112087,-383.047749
577.564467,3923.091493,4737.318029,-229.828649
577.564788,2220.617826,6957.935855,229.828649
577.565108,6957.935855,10140.821405,0.000000
577.565429,6957.935855,11547.212695,-2374.896044
577.565749,4885.359217,10214.842000,-1302.362347
577.566070,7328.038826,11843.295072,-995.924147
577.566390,5181.441594,11695.253884,-4136.915689
577.566711,1480.411884,8290.306550,-5056.230287
577.567032,6217.729913,7994.224174,-1149.143247
577.567352,7624.121203,9104.533087,-383.047749
577.567673,3552.988522,8660.409521,-229.828649
577.567993,1036.288319,6809.894666,-689.485948
577.568314,1628.453072,4589.276840,-2757.943793
577.568635,1628.453072,4589.276840,383.047749
577.568955,5477.523971,7328.038826,4749.792088
577.569276,7624.121203,8660.409521,842.705048
577.569596,5329.482782,9696.697840,-3677.258390
577.569917,6513.812290,12435.459826,-2911.162892
577.570237,5921.647536,11769.274478,-3140.991542
577.570558,4811.338623,6217.729913,-1991.848295
577.570879,8364.327145,4219.173869,1608.800546
577.571199,8142.265362,8068.244768,1302.362347
577.571520,4441.235652,12805.562797,-2145.067394
577.571840,5181.441594,16728.654289,-3447.429741
577.572161,8364.327145,16284.530724,-1762.019645
577.572482,5773.606348,10362.883188,383.047749
577.572802,3923.091493,3775.050304,536.266849
577.573123,5477.523971,3034.844362,306.438199
577.573443,1184.329507,2886.803174,1532.190996
577.573764,1554.432478,2886.803174,919.314598
577.574084,6291.750507,6809.894666,-2987.772442
577.574405,7031.956449,11029.068536,-4290.134789
577.574726,6143.709319,12879.583391,229.828649
577.575046,10288.862594,13471.748144,4596.572988
577.575367,6587.832884,9326.594869,3907.087040
577.575687,4441.235652,6587.832884,842.705048
577.576008,6291.750507,7031.956449,-2451.505594
577.576329,3997.112087,6143.709319,-3907.087040
577.576649,3923.091493,8142.265362,0.000000
577.576970,8216.285956,10288.862594,2298.286494
577.577290,5773.606348,9548.656652,536.266849
577.577611,518.144159,5033.400406,1915.238745
577.577931,592.164754,3108.864956,3217.601092
577.578252,2738.761985,4071.132681,2068.457845
577.578573,518.144159,3997.112087,229.828649
577.578893,4589.276840,6069.688724,-1149.143247
577.579214,7550.100608,8956.491898,-2834.553343
577.579534,4737.318029,10658.965565,-459.657299
577.579855,3997.112087,12583.501014,3217.601092
577.580176,6365.771101,11473.192101,842.705048
577.580496,3552.988522,7920.203579,-1225.752797
577.580817,5181.441594,6957.935855,383.047749
577.581137,7994.224174,7105.977043,612.876398
577.581458,3256.906145,6513.812290,1608.800546
577.581778,3997.112087,5847.626942,4060.306139
577.582099,6661.853478,6513.812290,2911.162892
577.582420,4885.359217,7476.080014,612.876398
577.582740,1850.514855,6439.791695,383.047749
577.583061,4737.318029,3849.070898,229.828649
577.583381,7402.059420,2368.659014,3524.039291
577.583702,6957.935855,4811.338623,4673.182538
577.584023,5033.400406,5847.626942,-1072.533697
577.584343,6513.812290,9844.739029,-5362.668486
577.584664,7994.224174,13915.871710,-1455.581446
577.584984,7772.162391,12879.583391,2374.896044
577.585305,7105.977043,8882.471304,1378.971896
577.585625,7254.018232,6513.812290,612.876398
577.585946,4367.215058,7328.038826,-153.219100
577.586267,2146.597232,7476.080014,383.047749
577.586587,2590.720797,6291.750507,0.000000
577.586908,3552.988522,4885.359217,-1532.190996
577.587228,3404.947333,5773.606348,-1455.581446
577.587549,3775.050304,6291.750507,-306.438199
577.587870,3775.050304,7328.038826,-766.095498
577.588190,3923.091493,9400.615463,-229.828649
577.588511,6661.853478,11917.315666,-459.657299
577.588831,5995.668130,8882.471304,-2451.505594
577.589152,4663.297435,5255.462188,-2911.162892
577.589472,6735.874072,8068.244768,0.000000
577.589793,6661.853478,12435.459826,1072.533697
577.590114,4441.235652,12731.542202,-2298.286494
577.590434,5181.441594,11769.274478,-4826.401637
577.590755,5181.441594,9992.780217,-3217.601092
577.591075,3627.009116,6587.832884,2298.286494
577.591396,3256.906145,4589.276840,5209.449386
577.591717,2072.576638,5699.585753,842.705048
577.592037,-592.164754,7105.977043,-2834.553343
577.592358,2146.597232,8734.430116,-2374.896044
577.592678,5551.544565,10584.944971,-536.266849
577.592999,5477.523971,10214.842000,459.657299
577.593319,3775.050304,9474.636058,-689.485948
577.593640,5181.441594,10510.924376,-3294.210641
577.593961,4071.132681,10732.986159,-2834.553343
577.594281,5625.565159,12435.459826,-1072.533697
577.594602,9178.553681,14434.015869,0.000000
577.594922,7105.977043,12139.377449,-1302.362347
577.595243,6735.874072,10362.883188,-1532.190996
577.595564,7254.018232,8586.388927,383.047749
577.595884,4885.359217,4959.379811,1838.629195
577.596205,5329.482782,3552.988522,4060.306139
577.596525,6809.894666,5329.482782,4060.306139
577.596846,4293.194464,4293.194464,536.266849
577.597166,4219.173869,3701.029710,-2068.457845
577.597487,7920.203579,5773.606348,-1149.143247
577.597808,6883.915261,6809.894666,459.657299
577.598128,8808.450710,10140.821405,1149.143247
577.598449,9918.759623,13249.686362,-2145.067394
577.598769,5847.626942,11325.150913,-4596.572988
577.599090,5181.441594,7624.121203,-1838.629195
577.599411,7105.977043,6143.709319,2221.676944
577.599731,5995.668130,7402.059420,2757.943793
577.600052,888.247130,8438.347739,2145.067394
577.600372,2294.638420,9178.553681,-1455.581446
577.600693,2664.741391,7105.977043,-2528.115143
577.601013,1406.391290,5403.503377,1762.019645
577.601334,1036.288319,4367.215058,3370.820191
577.601655,2146.597232,4071.132681,-306.438199
577.601975,962.267725,6291.750507,-919.314598
577.602296,2294.638420,8882.471304,995.924147
577.602616,4219.173869,9252.574275,2987.772442
577.602937,5107.421000,9326.594869,3064.381992
577.603258,4589.276840,11177.109724,2298.286494
577.603578,2886.803174,10807.006753,-1225.752797
577.603899,2220.617826,9104.533087,-1225.752797
577.604219,6217.729913,8512.368333,2451.505594
577.604540,6291.750507,5625.565159,3677.258390
577.604860,4219.173869,3849.070898,-1378.971896
577.605181,3552.988522,5181.441594,-4903.011187
577.605502,3849.070898,5551.544565,-3983.696590
577.605822,5625.565159,5255.462188,1915.238745
577.606143,10807.006753,7402.059420,5439.278036
577.606463,8586.388927,9400.615463,1608.800546
577.606784,5403.503377,10362.883188,-1455.581446
577.607105,8216.285956,10881.027347,153.219100
577.607425,7698.141797,9844.739029,612.876398
577.607746,6439.791695,7772.162391,1302.362347
577.608066,7105.977043,6143.709319,995.924147
577.608387,4737.318029,6069.688724,-1915.238745
577.608707,2664.741391,7624.121203,-612.876398
577.609028,3997.112087,7920.203579,76.609550
577.609349,5181.441594,6661.853478,-2374.896044
577.609669,4663.297435,7476.080014,-842.705048
577.609990,6217.729913,10955.047942,2834.553343
577.610310,6365.771101,12287.418637,2528.115143
577.610631,4367.215058,10955.047942,0.000000
577.610952,4663.297435,9400.615463,-1225.752797
577.611272,5255.462188,9252.574275,-2757.943793
577.611593,3108.864956,7328.038826,-1915.238745
577.611913,3923.091493,6439.791695,0.000000
577.612234,4293.194464,6883.915261,229.828649
577.612554,4885.359217,8290.306550,995.924147
577.612875,4663.297435,9992.780217,459.657299
577.613196,3701.029710,9104.533087,-1072.533697
577.613516,2516.700203,7105.977043,-2221.676944
577.613837,5995.668130,7105.977043,0.000000
577.614157,6513.812290,7550.100608,153.219100
577.614478,4737.318029,8216.285956,-1838.629195
577.614799,4663.297435,9326.594869,-3217.601092
577.615119,6069.688724,10140.821405,-4443.353888
577.615440,4811.338623,8734.430116,-4673.182538
577.615760,5699.585753,8808.450710,-229.828649
577.616081,5329.482782,10066.800811,2604.724693
577.616401,5551.544565,11251.130318,1072.533697
577.616722,2590.720797,9474.636058,-536.266849
577.617043,1924.535449,5403.503377,-1532.190996
577.617363,3997.112087,3256.906145,-766.095498
577.617684,6217.729913,7031.956449,1915.238745
577.618004,4441.235652,9252.574275,459.657299
577.618325,4663.297435,7328.038826,-3753.867940
577.618646,7105.977043,7698.141797,-2911.162892
577.618966,6217.729913,6883.915261,995.924147
577.619287,5995.668130,6069.688724,2451.505594
577.619607,8290.306550,8512.368333,-612.876398
577.619928,5255.462188,12065.356855,-2911.162892
577.620248,4885.359217,12731.542202,-1532.190996
577.620569,7476.080014,10436.903782,689.485948
577.620890,6735.874072,7476.080014,229.828649
577.621210,3256.906145,5329.482782,-612.876398
577.621531,3330.926739,6069.688724,-2374.896044
577.621851,4441.235652,5773.606348,-3294.210641
577.622172,2368.659014,3775.050304,0.000000
577.622493,3627.009116,4737.318029,2528.115143
577.622813,7254.018232,8142.265362,1608.800546
577.623134,5255.462188,11325.150913,-306.438199
577.623454,4663.297435,12731.542202,-1762.019645
577.623775,6735.874072,11769.274478,-1685.410096
577.624095,5625.565159,7550.100608,-306.438199
577.624416,4959.379811,4959.379811,1762.019645
577.624737,4441.235652,6217.729913,76.609550
577.625057,2072.576638,9104.533087,-4366.744339
577.625378,2738.761985,11325.150913,-3753.867940
577.625698,4737.318029,9770.718434,995.924147
577.626019,5403.503377,7846.182985,3600.648841
577.626340,2590.720797,7254.018232,3983.696590
577.626660,1332.370696,7402.059420,2451.505594
577.626981,1184.329507,6439.791695,-383.047749
577.627301,4589.276840,6513.812290,-1608.800546
577.627622,5625.565159,6217.729913,-919.314598
577.627942,5255.462188,6661.853478,-1685.410096
577.628263,8660.409521,11399.171507,-153.219100
577.628584,6957.935855,13249.686362,536.266849
577.628904,4885.359217,13027.624579,-306.438199
577.629225,7179.997637,9770.718434,-919.314598
577.629545,6883.915261,6809.894666,0.000000
577.629866,4959.379811,4959.379811,2374.896044
577.630187,6365.771101,7179.997637,3677.258390
577.630507,6143.709319,8734.430116,0.000000
577.630828,1628.453072,4219.173869,-2834.553343
577.631148,3627.009116,3182.885551,-766.095498
577.631469,7994.224174,6069.688724,3217.601092
577.631789,4589.276840,7179.997637,2451.505594
577.632110,3701.029710,7328.038826,-1608.800546
577.632431,7550.100608,11177.109724,-4290.134789
577.632751,5255.462188,13619.789333,-1991.848295
577.633072,5329.482782,11399.171507,2987.772442
577.633392,9992.780217,11103.089130,3600.648841
577.633713,7105.977043,11399.171507,612.876398
577.634034,592.164754,10288.862594,-612.876398
577.634354,2812.782580,5847.626942,-689.485948
577.634675,2146.597232,1702.473667,919.314598
577.634995,2368.659014,2516.700203,5515.887586
577.635316,4293.194464,5107.421000,4443.353888
577.635636,2960.823768,5847.626942,-4060.306139
577.635957,1702.473667,7698.141797,-4826.401637
577.636278,6587.832884,10362.883188,229.828649
577.636598,6957.935855,8660.409521,612.876398
577.636919,6143.709319,5995.668130,-1378.971896
577.637239,8068.244768,8586.388927,-2528.115143
577.637560,6735.874072,10288.862594,-3677.258390
577.637881,5181.441594,9104.533087,-1225.752797
577.638201,6587.832884,7105.977043,766.095498
577.638522,7031.956449,7772.162391,-995.924147
577.638842,4515.256246,8956.491898,-306.438199
577.639163,4441.235652,7846.182985,-1225.752797
577.639483,2886.803174,4219.173869,-4060.306139
577.639804,3034.844362,1332.370696,-1378.971896
577.640125,4885.359217,1628.453072,1991.848295
577.640445,3849.070898,5329.482782,-459.657299
577.640766,2960.823768,9474.636058,-1838.629195
577.641086,7254.018232,14804.118840,-1685.410096
577.641407,8216.285956,15026.180623,-1838.629195
577.641728,5255.462188,11621.233289,-612.876398
577.642048,5995.668130,9992.780217,383.047749
577.642369,4811.338623,9474.636058,-1072.533697
577.642689,2886.803174,8364.327145,-3140.991542
577.643010,4959.379811,8586.388927,-3294.210641
577.643330,7105.977043,9622.677246,-2374.896044
577.643651,4145.153275,7846.182985,153.219100
577.643972,3034.844362,7031.956449,1762.019645
577.644292,3478.967927,6217.729913,536.266849
577.644613,4145.153275,5551.544565,153.219100
577.644933,7105.977043,7846.182985,1149.143247
577.645254,7698.141797,11103.089130,-612.876398
577.645575,6513.812290,12805.562797,-3217.601092
577.645895,6661.853478,13915.871710,-2451.505594
577.646216,7105.977043,12509.480420,-1302.362347
577.646536,6143.709319,11399.171507,995.924147
577.646857,4071.132681,9178.553681,1608.800546
577.647177,2146.597232,5847.626942,-2757.943793
577.647498,2368.659014,5477.523971,-3064.381992
577.647819,1998.556043,7698.141797,536.266849
577.648139,3775.050304,9918.759623,2451.505594
577.648460,5477.523971,11843.295072,1608.800546
577.648780,3478.967927,12361.439231,459.657299
577.649101,1702.473667,8882.471304,766.095498
577.649422,4441.235652,4589.276840,1378.971896
577.649742,5329.482782,3404.947333,1991.848295
577.650063,5403.503377,6809.894666,1378.971896
577.650384,4441.235652,10288.862594,-536.266849
577.650704,5699.585753,12139.377449,-1378.971896
577.651025,7179.997637,10140.821405,2374.896044
577.651346,7031.956449,7105.977043,3140.991542
577.651666,5329.482782,2590.720797,919.314598
577.651987,5329.482782,1702.473667,-1838.629195
577.652307,6365.771101,4071.132681,-919.314598
577.652628,6883.915261,6069.688724,2145.067394
577.652949,7920.203579,6439.791695,3524.039291
577.653269,7698.141797,6735.874072,1149.143247
577.653590,6365.771101,8364.327145,-1532.190996
577.653911,4663.297435,8808.450710,-1455.581446
577.654231,6069.688724,7328.038826,0.000000
577.654552,5699.585753,4293.194464,1685.410096
577.654873,5107.421000,2886.803174,2451.505594
577.655193,3849.070898,5995.668130,2374.896044
577.655514,2368.659014,9474.636058,689.485948
577.655834,3404.947333,11103.089130,-612.876398
577.656155,4885.359217,9992.780217,-1225.752797
577.656476,4811.338623,5477.523971,-383.047749
577.656796,4885.359217,3997.112087,2221.676944
577.657117,4663.297435,3701.029710,3217.601092
577.657438,3256.906145,5033.400406,689.485948
577.657758,2886.803174,6883.915261,-2528.115143
577.658079,3256.906145,9178.553681,-4596.572988
577.658400,6291.750507,11399.171507,-1991.848295
577.658720,8438.347739,13249.686362,3217.601092
577.659041,6513.812290,12731.542202,2987.772442
577.659361,1776.494261,8512.368333,0.000000
577.659682,1036.288319,6365.771101,-1225.752797
577.660003,2368.659014,5329.482782,1225.752797
577.660323,666.185348,5625.565159,2451.505594
577.660644,3627.009116,6809.894666,0.000000
577.660965,5699.585753,9992.780217,-4596.572988
577.661285,3627.009116,9326.594869,-4290.134789
577.661606,5625.565159,10140.821405,-766.095498
577.661927,5847.626942,9030.512492,1302.362347
577.662247,4515.256246,7476.080014,0.000000
577.662568,6883.915261,9622.677246,-766.095498
577.662888,6735.874072,12509.480420,-2604.724693
577.663209,7105.977043,14285.974681,-2528.115143
577.663530,9178.553681,13767.830521,-1302.362347
577.663850,8142.265362,10066.800811,-689.485948
577.664171,6365.771101,7920.203579,-383.047749
577.664492,5181.441594,7624.121203,1149.143247
577.664812,2812.782580,6069.688724,76.609550
577.665133,2442.679609,3256.906145,612.876398
577.665454,7402.059420,5625.565159,2681.334243
577.665774,7994.224174,8808.450710,1608.800546
577.666095,5773.606348,9622.677246,-76.609550
577.666415,7105.977043,10955.047942,-1991.848295
577.666736,6735.874072,10658.965565,-2451.505594
577.667057,6291.750507,6365.771101,-766.095498
577.667377,9474.636058,5773.606348,0.000000
577.667698,7550.100608,7698.141797,-2145.067394
577.668019,7698.141797,10436.903782,-2834.553343
577.668339,4811.338623,9918.759623,-2451.505594
577.668660,5551.544565,8364.327145,-2145.067394
577.668981,5255.462188,6069.688724,383.047749
577.669301,3552.988522,5699.585753,1149.143247
577.669622,2590.720797,4959.379811,-995.924147
577.669942,2294.638420,4071.132681,-2374.896044
577.670263,3330.926739,4885.359217,0.000000
577.670584,4145.153275,6217.729913,1685.410096
577.670904,3108.864956,5625.565159,-612.876398
577.671225,2738.761985,7698.141797,-2681.334243
577.671546,3775.050304,8068.244768,-3600.648841
577.671866,4145.153275,7920.203579,-2528.115143
577.672187,5107.421000,8290.306550,-919.314598
577.672508,4885.359217,9696.697840,612.876398
577.672828,5403.503377,11917.315666,-383.047749
577.673149,3552.988522,13027.624579,-1991.848295
577.673469,2294.638420,11695.253884,-919.314598
577.673790,2960.823768,8956.491898,1532.190996
577.674111,3997.112087,6809.894666,4213.525239
577.674431,2146.597232,4737.318029,4366.744339
577.674752,1184.329507,5847.626942,2374.896044
577.675073,2146.597232,7105.977043,1225.752797
577.675393,4145.153275,8660.409521,1838.629195
577.675714,4441.235652,8586.388927,2068.457845
577.676035,6291.750507,10584.944971,2451.505594
577.676355,7772.162391,10732.986159,1455.581446
577.676676,5181.441594,7846.182985,-1378.971896
577.676996,7031.956449,8734.430116,-1149.143247
577.677317,10510.924376,9770.718434,1149.143247
577.677638,8290.306550,9548.656652,-689.485948
577.677958,7476.080014,10436.903782,-2451.505594
577.678279,10658.965565,13471.748144,-612.876398
577.678600,6809.894666,11769.274478,1915.238745
577.678920,5847.626942,6661.853478,4213.525239
577.679241,6587.832884,2072.576638,4979.620737
577.679562,2072.576638,148.041188,3907.087040
577.679882,592.164754,1628.453072,2834.553343
577.680203,3108.864956,3256.906145,383.047749
577.680523,4071.132681,6439.791695,-1991.848295
577.680844,5477.523971,8808.450710,0.000000
577.681165,7105.977043,10066.800811,-766.095498
577.681485,4441.235652,9252.574275,-2604.724693
577.681806,2886.803174,7994.224174,-1072.533697
577.682127,6365.771101,9770.718434,-919.314598
577.682447,5847.626942,10584.944971,-1455.581446
577.682768,2960.823768,9992.780217,-1149.143247
577.683089,5551.544565,9992.780217,-383.047749
577.683409,5551.544565,8216.285956,0.000000
577.683730,1110.308913,3775.050304,919.314598
577.684050,1850.514855,1850.514855,306.438199
577.684371,3775.050304,2960.823768,-919.314598
577.684692,2516.700203,3256.906145,842.705048
577.685012,4885.359217,4441.235652,1915.238745
577.685333,8142.265362,7328.038826,306.438199
577.685654,7105.977043,10436.903782,0.000000
577.685974,7031.956449,12065.356855,-383.047749
577.686295,6661.853478,11991.336260,-3677.258390
577.686616,5847.626942,10807.006753,-4519.963438
577.686936,6661.853478,7920.203579,-229.828649
577.687257,6957.935855,7179.997637,1455.581446
577.687577,5921.647536,9030.512492,-995.924147
577.687898,4145.153275,12435.459826,-2911.162892
577.688219,2368.659014,12213.398043,-4060.306139
577.688539,3330.926739,8290.306550,-2145.067394
577.688860,4145.153275,5773.606348,2451.505594
577.689181,4959.379811,4885.359217,4136.915689
577.689501,4145.153275,6291.750507,1378.971896
577.689822,3849.070898,8882.471304,-153.219100
577.690143,4219.173869,11695.253884,-1532.190996
577.690463,5625.565159,11251.130318,-1762.019645
577.690784,6439.791695,9770.718434,-1685.410096
577.691104,6069.688724,9918.759623,-689.485948
577.691425,5255.462188,10066.800811,-306.438199
577.691746,4367.215058,9548.656652,-2681.334243
577.692066,4737.318029,8586.388927,-4290.134789
577.692387,4737.318029,6883.915261,-2604.724693
577.692708,5995.668130,8586.388927,76.609550
577.693028,6957.935855,9326.594869,1225.752797
577.693349,4219.173869,9474.636058,-995.924147
577.693670,3182.885551,7920.203579,-1762.019645
577.693990,5477.523971,6439.791695,689.485948
577.694311,6069.688724,5847.626942,2145.067394
577.694631,5477.523971,7402.059420,1532.190996
577.694952,4959.379811,8808.450710,459.657299
577.695273,4959.379811,9918.759623,-766.095498
577.695593,4737.318029,9696.697840,766.095498
577.695914,4293.194464,7402.059420,1455.581446
577.696235,5033.400406,6439.791695,-536.266849
577.696555,4589.276840,6069.688724,-612.876398
577.696876,3701.029710,6143.709319,-1302.362347
577.697197,5255.462188,8364.327145,-2987.772442
577.697517,6069.688724,11177.109724,-995.924147
577.697838,5403.503377,11029.068536,1225.752797
577.698158,8142.265362,10288.862594,842.705048
577.698479,7105.977043,9474.636058,383.047749
