#time,accel_x,accel_y,accel_z
538.051681,5329.482782,7698.141797,-536.266849
538.052002,4811.338623,8216.285956,0.000000
538.052322,5033.400406,7994.224174,-306.438199
538.052643,4885.359217,7994.224174,0.000000
538.052963,4885.359217,8216.285956,0.000000
538.053283,4959.379811,7846.182985,766.095498
538.053604,4811.338623,7994.224174,-306.438199
538.053924,5033.400406,7698.141797,153.219100
538.054245,5181.441594,8142.265362,0.000000
538.054565,4959.379811,8142.265362,-153.219100
538.054886,5329.482782,8142.265362,-459.657299
538.055206,5107.421000,7920.203579,0.000000
538.055526,4811.338623,8142.265362,0.000000
538.055847,4959.379811,7994.224174,-153.219100
538.056167,4959.379811,7772.162391,0.000000
538.056488,4811.338623,7920.203579,0.000000
538.056808,4737.318029,8142.265362,0.000000
538.057129,4811.338623,7994.224174,-229.828649
538.057449,5033.400406,7846.182985,-229.828649
538.057769,4885.359217,7920.203579,-229.828649
538.058090,4959.379811,8068.244768,-229.828649
538.058410,5033.400406,7994.224174,0.000000
538.058731,5033.400406,8142.265362,0.000000
538.059051,5107.421000,7920.203579,-229.828649
538.059372,4959.379811,8216.285956,76.609550
538.059692,4737.318029,8512.368333,-612.876398
538.060012,4885.359217,8290.306550,-76.609550
538.060333,5033.400406,8142.265362,0.000000
538.060653,4959.379811,8142.265362,-153.219100
538.060974,4885.359217,8068.244768,-306.438199
538.061294,5181.441594,7772.162391,229.828649
538.061615,4737.318029,8142.265362,-229.828649
538.061935,4959.379811,7994.224174,0.000000
538.062255,4959.379811,8068.244768,-306.438199
538.062576,4959.379811,7994.224174,0.000000
538.062896,4811.338623,7994.224174,-153.219100
538.063217,5181.441594,8142.265362,0.000000
538.063537,4811.338623,8364.327145,-153.219100
538.063858,4737.318029,7624.121203,-306.438199
538.064178,4367.215058,7402.059420,-306.438199
538.064498,3775.050304,7920.203579,-229.828649
538.064819,4515.256246,8808.450710,-306.438199
538.065139,4737.318029,9992.780217,-995.924147
538.065460,4441.235652,9992.780217,-1378.971896
538.065780,4737.318029,9548.656652,-995.924147
538.066101,3923.091493,9326.594869,0.000000
538.066421,3330.926739,8438.347739,459.657299
538.066741,2960.823768,8734.430116,536.266849
538.067062,3034.844362,8956.491898,383.047749
538.067382,2960.823768,8586.388927,0.000000
538.067703,2886.803174,8512.368333,-612.876398
538.068023,3256.906145,8660.409521,-459.657299
538.068344,3330.926739,9178.553681,0.000000
538.068664,2664.741391,9326.594869,612.876398
538.068984,2442.679609,9178.553681,153.219100
538.069305,2368.659014,9252.574275,-153.219100
538.069625,2294.638420,10214.842000,-383.047749
538.069946,1850.514855,11621.233289,-1225.752797
538.070266,1850.514855,12361.439231,-919.314598
538.070586,1332.370696,12213.398043,-842.705048
538.070907,222.061783,11103.089130,-842.705048
538.071227,-666.185348,11103.089130,-1455.581446
538.071548,-1184.329507,11325.150913,-1378.971896
538.071868,-1480.411884,12509.480420,-383.047749
538.072189,-1776.494261,12953.603985,1378.971896
538.072509,-1554.432478,11991.336260,1378.971896
538.072829,-1258.350101,12139.377449,1302.362347
538.073150,-1924.535449,12583.501014,1685.410096
538.073470,-2516.700203,12731.542202,1225.752797
538.073791,-2294.638420,11177.109724,229.828649
538.074111,-1332.370696,9548.656652,0.000000
538.074432,-1258.350101,9622.677246,229.828649
538.074752,-740.205942,9770.718434,689.485948
538.075072,0.000000,10510.924376,153.219100
538.075393,518.144159,11621.233289,-306.438199
538.075713,1110.308913,11695.253884,-1685.410096
538.076034,2146.597232,10362.883188,-1455.581446
538.076354,2738.761985,10066.800811,-536.266849
538.076675,3108.864956,11103.089130,842.705048
538.076995,2886.803174,10288.862594,-459.657299
538.077315,2442.679609,9474.636058,-2374.896044
538.077636,2146.597232,8808.450710,-2451.505594
538.077956,2146.597232,9104.533087,-1225.752797
538.078277,2072.576638,9548.656652,-306.438199
538.078597,1924.535449,9770.718434,-229.828649
538.078918,1258.350101,11103.089130,-383.047749
538.079238,666.185348,11251.130318,-153.219100
538.079558,0.000000,10955.047942,459.657299
538.079879,-222.061783,9918.759623,919.314598
538.080199,-592.164754,9696.697840,919.314598
538.080520,-444.123565,10140.821405,1072.533697
538.080840,-666.185348,10584.944971,612.876398
538.081161,-740.205942,10807.006753,689.485948
538.081481,222.061783,11547.212695,1455.581446
538.081801,1110.308913,11843.295072,842.705048
538.082122,740.205942,11695.253884,0.000000
538.082442,740.205942,11399.171507,-689.485948
538.082763,1332.370696,10510.924376,-919.314598
538.083083,1776.494261,9770.718434,-612.876398
538.083404,1998.556043,8882.471304,229.828649
538.083724,1702.473667,8290.306550,0.000000
538.084044,2072.576638,9104.533087,0.000000
538.084365,2368.659014,10288.862594,-842.705048
538.084685,2664.741391,10955.047942,-612.876398
538.085006,3478.967927,10955.047942,-842.705048
538.085326,3775.050304,10362.883188,-919.314598
538.085647,3404.947333,9992.780217,-995.924147
538.085967,2738.761985,9696.697840,-612.876398
538.086287,2516.700203,9844.739029,-1149.143247
538.086608,1628.453072,10807.006753,-766.095498
538.086928,1184.329507,11473.192101,-153.219100
538.087249,1406.391290,11843.295072,-612.876398
538.087569,962.267725,11843.295072,-1302.362347
538.087890,-74.020594,10732.986159,-1608.800546
538.088210,-1332.370696,9400.615463,-1608.800546
538.088530,-1554.432478,8216.285956,76.609550
538.088851,-1998.556043,9178.553681,1532.190996
538.089171,-1258.350101,10807.006753,1762.019645
538.089492,-222.061783,12435.459826,1532.190996
538.089812,518.144159,13397.727550,1149.143247
538.090133,518.144159,13693.809927,612.876398
538.090453,1554.432478,12731.542202,-306.438199
538.090773,1998.556043,11621.233289,-689.485948
538.091094,592.164754,10288.862594,-689.485948
538.091414,222.061783,9326.594869,-536.266849
538.091735,-296.082377,8586.388927,-1225.752797
538.092055,-2072.576638,8586.388927,-1685.410096
538.092376,-1480.411884,9918.759623,-1225.752797
538.092696,-740.205942,11843.295072,-229.828649
538.093016,370.102971,13027.624579,-766.095498
538.093337,740.205942,13545.768739,-536.266849
538.093657,1258.350101,13397.727550,-536.266849
538.093978,1110.308913,13175.665768,-153.219100
538.094298,666.185348,12139.377449,536.266849
538.094618,740.205942,10288.862594,-76.609550
538.094939,1554.432478,8290.306550,-612.876398
538.095259,1776.494261,7550.100608,-383.047749
538.095580,666.185348,8660.409521,383.047749
538.095900,518.144159,10584.944971,995.924147
538.096221,666.185348,10807.006753,1225.752797
538.096541,74.020594,9326.594869,383.047749
538.096861,1406.391290,7994.224174,0.000000
538.097182,1628.453072,8660.409521,306.438199
538.097502,740.205942,11547.212695,-229.828649
538.097823,592.164754,13397.727550,-995.924147
538.098143,296.082377,14434.015869,-2451.505594
538.098464,1406.391290,13323.706956,-2604.724693
538.098784,1702.473667,12953.603985,-306.438199
538.099104,740.205942,11843.295072,-153.219100
538.099425,0.000000,10436.903782,0.000000
538.099745,0.000000,10362.883188,766.095498
538.100066,-740.205942,10288.862594,1838.629195
538.100386,-1110.308913,9474.636058,2145.067394
538.100707,-1110.308913,8512.368333,1838.629195
538.101027,-1702.473667,8512.368333,1149.143247
538.101347,-1036.288319,9104.533087,0.000000
538.101668,222.061783,10140.821405,-612.876398
538.101988,1036.288319,11695.253884,-1302.362347
538.102309,1850.514855,13249.686362,-1302.362347
538.102629,2072.576638,13471.748144,-306.438199
538.102950,592.164754,11251.130318,-1455.581446
538.103270,592.164754,8364.327145,-1762.019645
538.103590,2812.782580,8882.471304,459.657299
538.103911,2368.659014,11103.089130,1378.971896
538.104231,888.247130,13175.665768,-306.438199
538.104552,740.205942,12731.542202,-2374.896044
538.104872,1184.329507,11325.150913,-2911.162892
538.105193,-444.123565,8660.409521,-1455.581446
538.105513,-1110.308913,6661.853478,-842.705048
538.105833,-148.041188,8216.285956,0.000000
538.106154,-740.205942,12287.418637,459.657299
538.106474,-2294.638420,14285.974681,689.485948
538.106795,-1406.391290,14878.139434,0.000000
538.107115,-444.123565,14508.036463,0.000000
538.107436,-1036.288319,13693.809927,536.266849
538.107756,-888.247130,11917.315666,153.219100
538.108076,-814.226536,10140.821405,-459.657299
538.108397,-370.102971,9844.739029,-306.438199
538.108717,592.164754,9918.759623,995.924147
538.109038,0.000000,8734.430116,153.219100
538.109358,296.082377,8438.347739,0.000000
538.109679,1998.556043,9104.533087,1302.362347
538.109999,3108.864956,9844.739029,1915.238745
538.110319,4219.173869,11251.130318,842.705048
538.110640,4737.318029,12509.480420,-1302.362347
538.110960,4885.359217,12583.501014,-2221.676944
538.111281,3627.009116,10732.986159,-2987.772442
538.111601,3256.906145,7105.977043,-1991.848295
538.111922,2294.638420,5403.503377,-1838.629195
538.112242,2738.761985,8290.306550,76.609550
538.112562,2294.638420,12953.603985,1302.362347
538.112883,1036.288319,14434.015869,-536.266849
538.113203,1332.370696,12879.583391,-2221.676944
538.113524,962.267725,10362.883188,-459.657299
538.113844,-1110.308913,9104.533087,689.485948
538.114165,-2294.638420,9696.697840,1149.143247
538.114485,-1406.391290,11547.212695,766.095498
538.114805,-1258.350101,13249.686362,-306.438199
538.115126,-1184.329507,13249.686362,-229.828649
538.115446,-1258.350101,12065.356855,229.828649
538.115767,-2960.823768,10658.965565,1302.362347
538.116088,-1184.329507,11103.089130,3370.820191
538.116408,444.123565,11769.274478,3600.648841
538.116729,-518.144159,10584.944971,459.657299
538.117050,-296.082377,8660.409521,-229.828649
538.117370,1184.329507,7550.100608,153.219100
538.117691,1258.350101,8290.306550,76.609550
538.118012,1776.494261,7105.977043,919.314598
538.118332,4367.215058,9030.512492,-1225.752797
538.118653,5403.503377,12287.418637,-1378.971896
538.118973,4145.153275,12435.459826,-1302.362347
538.119294,3330.926739,9770.718434,-1838.629195
538.119615,5403.503377,7994.224174,-1302.362347
538.119935,3997.112087,8808.450710,-995.924147
538.120256,814.226536,7624.121203,-1915.238745
538.120577,2368.659014,7920.203579,-2298.286494
538.120897,2738.761985,10436.903782,-1225.752797
538.121218,1258.350101,11769.274478,229.828649
538.121539,2664.741391,9548.656652,-383.047749
538.121859,1776.494261,8216.285956,-1378.971896
538.122180,888.247130,9474.636058,766.095498
538.122501,2072.576638,10807.006753,3294.210641
538.122821,1702.473667,9696.697840,2757.943793
538.123142,888.247130,7772.162391,536.266849
538.123462,2072.576638,7698.141797,766.095498
538.123783,2812.782580,9326.594869,995.924147
538.124104,2072.576638,10732.986159,-842.705048
538.124424,2664.741391,11399.171507,-612.876398
538.124745,3701.029710,10362.883188,-1072.533697
538.125066,3256.906145,8586.388927,-1302.362347
538.125386,2220.617826,7476.080014,-766.095498
538.125707,4589.276840,8512.368333,-229.828649
538.126028,4959.379811,11325.150913,766.095498
538.126348,3775.050304,11917.315666,306.438199
538.126669,3923.091493,11029.068536,-2145.067394
538.126989,4737.318029,11103.089130,-2451.505594
538.127310,4145.153275,11325.150913,-1225.752797
538.127631,3404.947333,10955.047942,-76.609550
538.127951,2146.597232,9252.574275,-612.876398
538.128272,1258.350101,9400.615463,-1455.581446
538.128593,1332.370696,9178.553681,229.828649
538.128913,1332.370696,9696.697840,1915.238745
538.129234,814.226536,10584.944971,1991.848295
538.129555,3108.864956,11177.109724,1838.629195
538.129875,3552.988522,9326.594869,153.219100
538.130196,2960.823768,6809.894666,0.000000
538.130516,4737.318029,7031.956449,1991.848295
538.130837,5477.523971,7105.977043,2374.896044
538.131158,4737.318029,7105.977043,459.657299
538.131478,8216.285956,6365.771101,-1072.533697
538.131799,8734.430116,6291.750507,-1991.848295
538.132120,8216.285956,5477.523971,-76.609550
538.132440,9178.553681,6365.771101,1455.581446
538.132761,9252.574275,5995.668130,-229.828649
538.133082,8438.347739,4959.379811,-2374.896044
538.133402,10362.883188,5255.462188,-2068.457845
538.133723,8438.347739,5625.565159,-1915.238745
538.134044,6587.832884,5995.668130,-1608.800546
538.134364,7920.203579,7031.956449,306.438199
538.134685,9104.533087,7624.121203,0.000000
538.135005,6291.750507,5625.565159,0.000000
538.135326,5699.585753,5921.647536,-459.657299
538.135647,5107.421000,8068.244768,-1149.143247
538.135967,4367.215058,9474.636058,0.000000
538.136288,4219.173869,8882.471304,1378.971896
538.136609,4589.276840,6587.832884,1455.581446
538.136929,3775.050304,6439.791695,689.485948
538.137250,3256.906145,9104.533087,1378.971896
538.137571,2072.576638,10066.800811,0.000000
538.137891,2590.720797,9474.636058,-383.047749
538.138212,4885.359217,8882.471304,689.485948
538.138532,5847.626942,7624.121203,1225.752797
538.138853,5477.523971,7105.977043,1302.362347
538.139174,5329.482782,7476.080014,1838.629195
538.139494,4071.132681,8216.285956,1225.752797
538.139815,5033.400406,6587.832884,0.000000
538.140136,6513.812290,5773.606348,-1225.752797
538.140456,7772.162391,7031.956449,-766.095498
538.140777,6661.853478,9252.574275,0.000000
538.141098,7254.018232,10288.862594,-995.924147
538.141418,6513.812290,8956.491898,-3907.087040
538.141739,6439.791695,7402.059420,-5362.668486
538.142060,6365.771101,6439.791695,-2987.772442
538.142380,4737.318029,6439.791695,229.828649
538.142701,4885.359217,7994.224174,995.924147
538.143021,4293.194464,9622.677246,-995.924147
538.143342,3627.009116,9770.718434,-3064.381992
538.143663,4367.215058,9696.697840,-2145.067394
538.143983,3256.906145,10214.842000,229.828649
538.144304,2590.720797,9770.718434,536.266849
538.144625,3404.947333,8808.450710,153.219100
538.144945,2146.597232,7624.121203,306.438199
538.145266,1776.494261,7698.141797,536.266849
538.145587,2294.638420,8882.471304,1685.410096
538.145907,3330.926739,10362.883188,536.266849
538.146228,3701.029710,10140.821405,-459.657299
538.146548,3478.967927,8142.265362,229.828649
538.146869,4367.215058,7402.059420,766.095498
538.147190,5403.503377,8290.306550,536.266849
538.147510,4737.318029,8808.450710,-306.438199
538.147831,4959.379811,8068.244768,-1302.362347
538.148152,6587.832884,6291.750507,-1302.362347
538.148472,6661.853478,6291.750507,-842.705048
538.148793,7179.997637,7179.997637,-842.705048
538.149114,7698.141797,9474.636058,-1225.752797
538.149434,7550.100608,9918.759623,-612.876398
538.149755,8512.368333,9104.533087,-689.485948
538.150076,8882.471304,7920.203579,-2221.676944
538.150396,7179.997637,6217.729913,-3370.820191
538.150717,5773.606348,5921.647536,-1608.800546
538.151037,5551.544565,7550.100608,842.705048
538.151358,5847.626942,8068.244768,919.314598
538.151679,4145.153275,6661.853478,-306.438199
538.151999,4959.379811,7031.956449,-1072.533697
538.152320,4441.235652,8364.327145,306.438199
538.152641,2664.741391,9400.615463,2834.553343
538.152961,4441.235652,8660.409521,2068.457845
538.153282,4959.379811,6809.894666,0.000000
538.153603,4219.173869,5921.647536,-153.219100
538.153923,4589.276840,6809.894666,1838.629195
538.154244,3552.988522,8586.388927,1302.362347
538.154564,3775.050304,8882.471304,-459.657299
538.154885,6143.709319,8142.265362,-919.314598
538.155206,5773.606348,6661.853478,-76.609550
538.155526,6069.688724,7105.977043,612.876398
538.155847,6217.729913,6735.874072,1149.143247
538.156168,5847.626942,5847.626942,-459.657299
538.156488,7105.977043,6587.832884,-1608.800546
538.156809,7031.956449,5625.565159,-689.485948
538.157130,6883.915261,6217.729913,-306.438199
538.157450,8142.265362,7994.224174,1225.752797
538.157771,8290.306550,10140.821405,1072.533697
538.158091,5773.606348,8882.471304,-1532.190996
538.158412,7105.977043,7105.977043,-2528.115143
538.158733,7179.997637,6587.832884,-1455.581446
538.159053,6661.853478,6143.709319,0.000000
538.159374,4367.215058,5403.503377,1149.143247
538.159695,3775.050304,6365.771101,689.485948
538.160015,3034.844362,7624.121203,0.000000
538.160336,3849.070898,8586.388927,612.876398
538.160657,4663.297435,8216.285956,383.047749
538.160977,3997.112087,8956.491898,0.000000
538.161298,4663.297435,10807.006753,689.485948
538.161619,3997.112087,10658.965565,153.219100
538.161939,3997.112087,8364.327145,-766.095498
538.162260,5255.462188,7550.100608,1685.410096
538.162580,4515.256246,8364.327145,1225.752797
538.162901,3182.885551,9696.697840,0.000000
538.163222,3330.926739,9770.718434,-2068.457845
538.163542,4737.318029,9474.636058,-1762.019645
538.163863,5921.647536,8290.306550,1149.143247
538.164184,5921.647536,7550.100608,2451.505594
538.164504,5181.441594,6957.935855,153.219100
538.164825,4589.276840,7402.059420,-1532.190996
538.165146,4737.318029,8068.244768,-1225.752797
538.165466,4663.297435,7550.100608,0.000000
538.165787,7105.977043,7772.162391,536.266849
538.166107,8290.306550,8586.388927,1455.581446
538.166428,5773.606348,8956.491898,-383.047749
538.166749,4367.215058,7624.121203,-1838.629195
538.167069,5477.523971,7698.141797,-1991.848295
538.167390,4959.379811,7550.100608,-1532.190996
538.167711,5181.441594,6217.729913,-612.876398
538.168031,7031.956449,5107.421000,459.657299
538.168352,4811.338623,5921.647536,995.924147
538.168673,3849.070898,7846.182985,0.000000
538.168993,3701.029710,8586.388927,-1149.143247
538.169314,4367.215058,7772.162391,-1302.362347
538.169635,5847.626942,8512.368333,612.876398
538.169955,7179.997637,9474.636058,1455.581446
538.170276,5551.544565,8290.306550,-1608.800546
538.170596,4663.297435,7994.224174,-3064.381992
538.170917,4145.153275,8290.306550,0.000000
538.171238,4441.235652,8068.244768,1072.533697
538.171558,5329.482782,7402.059420,383.047749
538.171879,5625.565159,8364.327145,-919.314598
538.172200,4737.318029,9770.718434,-842.705048
538.172520,3923.091493,9400.615463,919.314598
538.172841,4737.318029,7846.182985,842.705048
538.173162,5255.462188,6439.791695,76.609550
538.173482,4959.379811,6735.874072,306.438199
538.173803,4071.132681,8216.285956,536.266849
538.174123,3849.070898,9326.594869,153.219100
538.174444,4885.359217,9844.739029,-383.047749
538.174765,6809.894666,9326.594869,-919.314598
538.175085,7105.977043,8586.388927,306.438199
538.175406,6957.935855,8438.347739,306.438199
538.175727,4811.338623,8734.430116,-689.485948
538.176047,5551.544565,7105.977043,-1838.629195
538.176368,5921.647536,5625.565159,-995.924147
538.176689,5773.606348,4441.235652,459.657299
538.177009,6365.771101,6957.935855,459.657299
538.177330,5625.565159,8660.409521,-1225.752797
538.177650,4737.318029,8808.450710,-1991.848295
538.177971,6513.812290,8660.409521,-459.657299
538.178292,5255.462188,7698.141797,766.095498
538.178612,5107.421000,8290.306550,-612.876398
538.178933,5847.626942,9326.594869,-995.924147
538.179254,4071.132681,8364.327145,-1149.143247
538.179574,5181.441594,8808.450710,76.609550
538.179895,4959.379811,8882.471304,383.047749
538.180216,2146.597232,8438.347739,-1378.971896
538.180536,2960.823768,9474.636058,-612.876398
538.180857,2886.803174,9548.656652,1378.971896
538.181178,2442.679609,9474.636058,1991.848295
538.181498,2368.659014,7328.038826,536.266849
538.181819,2368.659014,7105.977043,-1149.143247
538.182139,2072.576638,7254.018232,0.000000
538.182460,2516.700203,8142.265362,2757.943793
538.182781,4219.173869,9400.615463,1838.629195
538.183101,5107.421000,9104.533087,-536.266849
538.183422,5181.441594,9918.759623,-689.485948
538.183743,5847.626942,10066.800811,306.438199
538.184063,5329.482782,8660.409521,0.000000
538.184384,6513.812290,7328.038826,-689.485948
538.184705,7476.080014,5995.668130,-1072.533697
538.185025,5995.668130,4959.379811,-1608.800546
538.185346,6513.812290,5255.462188,-306.438199
538.185666,6439.791695,6735.874072,-306.438199
538.185987,6217.729913,7550.100608,-1762.019645
538.186308,7402.059420,8882.471304,-689.485948
538.186628,6957.935855,8586.388927,229.828649
538.186949,5995.668130,8438.347739,76.609550
538.187270,6661.853478,7550.100608,153.219100
538.187590,4885.359217,6587.832884,-612.876398
538.187911,4737.318029,6735.874072,-1685.410096
538.188232,5181.441594,7328.038826,459.657299
538.188552,4441.235652,8142.265362,0.000000
538.188873,5403.503377,8068.244768,-306.438199
538.189194,5921.647536,8364.327145,842.705048
538.189514,4071.132681,7846.182985,536.266849
538.189835,3701.029710,7846.182985,0.000000
538.190155,3923.091493,7105.977043,-153.219100
538.190476,6143.709319,7179.997637,306.438199
538.190797,4885.359217,6217.729913,2145.067394
538.191117,5181.441594,7476.080014,459.657299
538.191438,4959.379811,9400.615463,-1149.143247
538.191759,4885.359217,10436.903782,-1302.362347
538.192079,6143.709319,10436.903782,-306.438199
538.192400,6217.729913,8290.306550,383.047749
538.192721,5033.400406,7105.977043,0.000000
538.193041,6069.688724,7920.203579,-1225.752797
538.193362,4367.215058,7476.080014,-2068.457845
538.193682,3034.844362,5921.647536,-1838.629195
538.194003,5107.421000,6735.874072,-536.266849
538.194324,5033.400406,8956.491898,76.609550
538.194644,4145.153275,10288.862594,-459.657299
538.194965,4515.256246,9992.780217,76.609550
538.195286,3627.009116,8956.491898,-689.485948
538.195606,4515.256246,8956.491898,-229.828649
538.195927,4441.235652,8734.430116,-229.828649
538.196248,3478.967927,8882.471304,-1378.971896
538.196568,3552.988522,9252.574275,-536.266849
538.196889,3552.988522,9992.780217,459.657299
538.197210,3552.988522,9548.656652,-459.657299
538.197530,3849.070898,9030.512492,-1225.752797
538.197851,3404.947333,8882.471304,76.609550
538.198171,3849.070898,9104.533087,842.705048
538.198492,3627.009116,9104.533087,1302.362347
538.198813,2886.803174,8290.306550,0.000000
538.199133,1998.556043,7328.038826,-1072.533697
538.199454,3108.864956,9400.615463,1685.410096
538.199775,3182.885551,11325.150913,2374.896044
538.200095,2442.679609,9918.759623,-459.657299
538.200416,6069.688724,9548.656652,-1762.019645
538.200737,5403.503377,9844.739029,-153.219100
538.201057,2738.761985,8438.347739,76.609550
538.201378,4811.338623,8660.409521,-919.314598
538.201698,5551.544565,8512.368333,-1685.410096
538.202019,4219.173869,7402.059420,-459.657299
538.202340,5033.400406,6661.853478,1378.971896
538.202660,5033.400406,6809.894666,1838.629195
538.202981,5181.441594,7550.100608,383.047749
538.203302,5773.606348,8512.368333,0.000000
538.203622,5033.400406,6661.853478,-383.047749
538.203943,6217.729913,5847.626942,76.609550
538.204264,6957.935855,7031.956449,919.314598
538.204584,6291.750507,7624.121203,-536.266849
538.204905,7105.977043,7402.059420,-229.828649
538.205225,5699.585753,6661.853478,383.047749
538.205546,6069.688724,6957.935855,0.000000
538.205867,7179.997637,7476.080014,0.000000
538.206187,5699.585753,7105.977043,-229.828649
538.206508,5773.606348,7402.059420,-306.438199
538.206829,5773.606348,7550.100608,229.828649
538.207149,3552.988522,7105.977043,-1302.362347
538.207470,4959.379811,7179.997637,-459.657299
538.207791,4737.318029,7254.018232,1608.800546
538.208111,4145.153275,8364.327145,1838.629195
538.208432,4293.194464,8438.347739,766.095498
538.208753,5181.441594,9474.636058,-1838.629195
538.209073,5033.400406,9992.780217,-1838.629195
538.209394,3923.091493,8956.491898,229.828649
538.209714,5107.421000,7698.141797,1149.143247
538.210035,4885.359217,7254.018232,0.000000
538.210356,4441.235652,7179.997637,-306.438199
538.210676,4293.194464,7550.100608,-766.095498
538.210997,4145.153275,8586.388927,459.657299
538.211318,5329.482782,8660.409521,995.924147
538.211638,5773.606348,8364.327145,306.438199
538.211959,7105.977043,7772.162391,0.000000
538.212280,5773.606348,7698.141797,842.705048
538.212600,4589.276840,8586.388927,229.828649
538.212921,5255.462188,9104.533087,-995.924147
538.213241,6069.688724,8734.430116,-1838.629195
538.213562,5033.400406,7179.997637,-766.095498
538.213883,5477.523971,7476.080014,0.000000
538.214203,5181.441594,9474.636058,689.485948
538.214524,3923.091493,10066.800811,-919.314598
538.214845,3775.050304,9030.512492,-1378.971896
538.215165,4441.235652,8068.244768,-229.828649
538.215486,2590.720797,7031.956449,-612.876398
538.215806,3701.029710,8142.265362,-612.876398
538.216127,4885.359217,9918.759623,-383.047749
538.216448,3034.844362,9696.697840,0.000000
538.216768,3552.988522,8512.368333,-153.219100
538.217089,5625.565159,8882.471304,-536.266849
538.217409,4293.194464,9622.677246,-995.924147
538.217730,3923.091493,9696.697840,0.000000
538.218050,4959.379811,9400.615463,76.609550
538.218371,4811.338623,8882.471304,-919.314598
538.218692,4959.379811,8290.306550,0.000000
538.219012,5107.421000,7994.224174,229.828649
538.219333,3997.112087,7624.121203,-153.219100
538.219653,4737.318029,7920.203579,1302.362347
538.219974,5255.462188,7105.977043,766.095498
538.220294,5773.606348,6143.709319,-306.438199
538.220615,6809.894666,6809.894666,383.047749
538.220936,5255.462188,8956.491898,306.438199
538.221256,4737.318029,9178.553681,-1302.362347
538.221577,6957.935855,7846.182985,-2068.457845
538.221897,6587.832884,6661.853478,-1532.190996
538.222218,6069.688724,6513.812290,-153.219100
538.222538,5921.647536,7846.182985,919.314598
538.222859,5181.441594,8956.491898,0.000000
538.223180,5107.421000,8956.491898,-536.266849
538.223500,5995.668130,8586.388927,-459.657299
538.223821,4441.235652,6957.935855,-842.705048
538.224141,3997.112087,6735.874072,-1149.143247
538.224462,4515.256246,7402.059420,995.924147
538.224783,4589.276840,7328.038826,1455.581446
538.225103,4589.276840,6291.750507,1915.238745
538.225424,5329.482782,6217.729913,842.705048
538.225744,5625.565159,8808.450710,-229.828649
538.226065,4959.379811,11177.109724,383.047749
538.226385,4737.318029,10288.862594,766.095498
538.226706,5921.647536,7550.100608,0.000000
538.227027,6365.771101,6291.750507,-229.828649
538.227347,5995.668130,7105.977043,459.657299
538.227668,4737.318029,7624.121203,0.000000
538.227988,2442.679609,6809.894666,-1685.410096
538.228309,4145.153275,6809.894666,-689.485948
538.228629,6365.771101,7698.141797,1532.190996
538.228950,5773.606348,8734.430116,1685.410096
538.229271,4515.256246,8734.430116,306.438199
538.229591,4219.173869,9992.780217,-1225.752797
538.229912,4811.338623,9178.553681,-1685.410096
538.230232,5403.503377,6735.874072,-612.876398
538.230553,6439.791695,5921.647536,229.828649
538.230874,6069.688724,7254.018232,76.609550
538.231194,4441.235652,9178.553681,-153.219100
538.231515,4737.318029,9400.615463,-842.705048
538.231835,6439.791695,7402.059420,-766.095498
538.232156,5921.647536,6661.853478,0.000000
538.232476,4885.359217,6809.894666,229.828649
538.232797,4589.276840,6809.894666,-995.924147
538.233118,5255.462188,8142.265362,-995.924147
538.233438,5329.482782,7994.224174,-153.219100
538.233759,5699.585753,7254.018232,229.828649
538.234079,5995.668130,7994.224174,0.000000
538.234400,5995.668130,10732.986159,0.000000
538.234720,5477.523971,10436.903782,459.657299
538.235041,5699.585753,9622.677246,0.000000
538.235362,5329.482782,8216.285956,-459.657299
538.235682,4811.338623,6735.874072,-919.314598
538.236003,6513.812290,8290.306550,-229.828649
538.236323,4885.359217,7105.977043,76.609550
538.236644,2590.720797,5699.585753,-612.876398
538.236964,4367.215058,7105.977043,153.219100
538.237285,4959.379811,9474.636058,383.047749
538.237606,4219.173869,10658.965565,612.876398
538.237926,5699.585753,9252.574275,153.219100
538.238247,6143.709319,7328.038826,-842.705048
538.238567,5255.462188,7105.977043,-1608.800546
538.238888,5625.565159,7624.121203,-612.876398
538.239209,4959.379811,7994.224174,-766.095498
538.239529,5625.565159,7846.182985,-842.705048
538.239850,7031.956449,8808.450710,153.219100
538.240170,6809.894666,8956.491898,-383.047749
538.240491,4663.297435,8364.327145,-1838.629195
538.240811,4589.276840,8364.327145,-306.438199
538.241132,4441.235652,7328.038826,612.876398
538.241453,5773.606348,6069.688724,1072.533697
538.241773,6069.688724,4885.359217,459.657299
538.242094,5773.606348,5995.668130,-689.485948
538.242414,4367.215058,8660.409521,-766.095498
538.242735,4145.153275,10362.883188,842.705048
538.243055,5699.585753,9474.636058,459.657299
538.243376,7179.997637,7328.038826,229.828649
538.243697,6513.812290,7772.162391,153.219100
538.244017,4959.379811,8438.347739,0.000000
538.244338,3330.926739,8882.471304,-2068.457845
538.244658,3775.050304,7550.100608,-2374.896044
538.244979,5551.544565,5551.544565,-383.047749
538.245299,5329.482782,6143.709319,1225.752797
538.245620,4441.235652,7920.203579,1532.190996
538.245941,3256.906145,9030.512492,0.000000
538.246261,3478.967927,8956.491898,-766.095498
538.246582,5181.441594,8290.306550,153.219100
538.246902,6291.750507,6957.935855,153.219100
538.247223,6809.894666,7105.977043,76.609550
538.247544,5921.647536,8142.265362,-1149.143247
538.247864,5033.400406,8290.306550,-1302.362347
538.248185,4811.338623,7846.182985,-766.095498
538.248505,5921.647536,8216.285956,0.000000
538.248826,7031.956449,8586.388927,229.828649
538.249146,5773.606348,9030.512492,306.438199
538.249467,5181.441594,8142.265362,306.438199
538.249788,3923.091493,6661.853478,-536.266849
538.250108,4367.215058,6957.935855,-1225.752797
538.250429,5551.544565,7550.100608,0.000000
538.250749,4219.173869,7402.059420,0.000000
538.251070,4663.297435,8586.388927,-306.438199
538.251390,6513.812290,9178.553681,-229.828649
538.251711,5551.544565,10955.047942,-459.657299
538.252032,4737.318029,9844.739029,0.000000
538.252352,5255.462188,8660.409521,536.266849
538.252673,6809.894666,7254.018232,1455.581446
538.252993,5477.523971,6291.750507,459.657299
538.253314,4145.153275,4885.359217,-1072.533697
538.253635,3849.070898,6217.729913,-1762.019645
538.253955,4219.173869,9326.594869,-229.828649
538.254276,5625.565159,9474.636058,459.657299
538.254596,8216.285956,7254.018232,459.657299
538.254917,7254.018232,6439.791695,306.438199
538.255237,4737.318029,7179.997637,0.000000
538.255558,4145.153275,9178.553681,-383.047749
538.255879,5033.400406,8586.388927,-919.314598
538.256199,7105.977043,7994.224174,-995.924147
538.256520,7698.141797,7328.038826,0.000000
538.256840,4959.379811,7105.977043,-1302.362347
538.257161,3849.070898,9474.636058,-1762.019645
538.257481,2516.700203,9844.739029,-306.438199
538.257802,4293.194464,8142.265362,229.828649
538.258123,5995.668130,6217.729913,1149.143247
538.258443,5551.544565,6735.874072,-536.266849
538.258764,3775.050304,9252.574275,-995.924147
538.259084,2072.576638,9400.615463,-383.047749
538.259405,1998.556043,7698.141797,0.000000
538.259725,4589.276840,7031.956449,1608.800546
538.260046,4071.132681,7624.121203,1532.190996
538.260367,4293.194464,9252.574275,306.438199
538.260687,3478.967927,9770.718434,-842.705048
538.261008,3849.070898,9548.656652,-1225.752797
538.261328,5625.565159,8364.327145,-1455.581446
538.261649,7105.977043,7698.141797,-153.219100
538.261970,6587.832884,7550.100608,459.657299
538.262290,4145.153275,7994.224174,153.219100
538.262611,3627.009116,7920.203579,-689.485948
538.262931,5033.400406,8290.306550,-1149.143247
538.263252,5625.565159,8586.388927,-995.924147
538.263572,5847.626942,8216.285956,76.609550
538.263893,5773.606348,8956.491898,919.314598
538.264214,5181.441594,8956.491898,536.266849
538.264534,4071.132681,8364.327145,-153.219100
538.264855,3034.844362,7105.977043,-766.095498
538.265175,3849.070898,6957.935855,-612.876398
538.265496,4885.359217,8438.347739,306.438199
538.265816,6365.771101,9474.636058,766.095498
538.266137,5477.523971,9178.553681,-153.219100
538.266458,4811.338623,7328.038826,-1072.533697
538.266778,4515.256246,7105.977043,-229.828649
538.267099,5329.482782,8660.409521,0.000000
538.267419,5847.626942,7920.203579,0.000000
538.267740,5773.606348,6809.894666,-229.828649
538.268061,5329.482782,7105.977043,-1072.533697
538.268381,4737.318029,8142.265362,-153.219100
538.268702,5995.668130,9326.594869,995.924147
538.269022,7105.977043,9400.615463,842.705048
538.269343,6587.832884,7550.100608,0.000000
538.269663,7031.956449,6217.729913,-689.485948
538.269984,4737.318029,6143.709319,-842.705048
538.270305,5181.441594,8142.265362,-459.657299
538.270625,5329.482782,8142.265362,153.219100
538.270946,5107.421000,6143.709319,-383.047749
538.271266,6291.750507,5107.421000,-153.219100
538.271587,4589.276840,6957.935855,-612.876398
538.271907,3404.947333,8808.450710,-536.266849
538.272228,3775.050304,9474.636058,-995.924147
538.272549,4959.379811,9400.615463,-995.924147
538.272869,6143.709319,9030.512492,-383.047749
538.273190,6143.709319,9178.553681,76.609550
538.273510,2590.720797,8512.368333,-1532.190996
538.273831,1184.329507,9178.553681,-76.609550
538.274151,3701.029710,10510.924376,1838.629195
538.274472,4589.276840,9400.615463,995.924147
538.274793,4885.359217,6883.915261,-153.219100
538.275113,5255.462188,6661.853478,-766.095498
538.275434,3182.885551,9104.533087,0.000000
538.275754,2072.576638,9252.574275,612.876398
538.276075,3552.988522,7920.203579,76.609550
538.276396,5551.544565,7105.977043,612.876398
538.276716,5403.503377,7920.203579,1685.410096
538.277037,4589.276840,10510.924376,1762.019645
538.277357,4441.235652,11473.192101,-995.924147
538.277678,4589.276840,10436.903782,-2068.457845
538.277998,5477.523971,7920.203579,0.000000
538.278319,6957.935855,7031.956449,459.657299
538.278640,6069.688724,8512.368333,1302.362347
538.278960,3775.050304,9326.594869,0.000000
538.279281,2812.782580,7476.080014,-2298.286494
538.279601,4885.359217,6069.688724,-1838.629195
538.279922,5403.503377,6957.935855,842.705048
538.280242,6957.935855,7846.182985,1378.971896
538.280563,4959.379811,8068.244768,-536.266849
538.280884,3627.009116,9696.697840,-612.876398
538.281204,4367.215058,9178.553681,-383.047749
538.281525,4811.338623,7328.038826,383.047749
538.281845,6513.812290,6513.812290,919.314598
538.282166,4885.359217,7402.059420,842.705048
538.282487,4441.235652,8364.327145,-153.219100
538.282807,5181.441594,8660.409521,-612.876398
538.283128,5699.585753,8956.491898,-766.095498
538.283448,5033.400406,6735.874072,-536.266849
538.283769,5551.544565,5403.503377,0.000000
538.284089,6069.688724,7105.977043,459.657299
538.284410,4663.297435,7920.203579,153.219100
538.284731,3997.112087,6883.915261,-1608.800546
538.285051,4737.318029,6957.935855,-2068.457845
538.285372,5181.441594,8808.450710,919.314598
538.285692,5699.585753,9696.697840,2451.505594
538.286013,5551.544565,8068.244768,-229.828649
538.286333,4293.194464,7179.997637,-2451.505594
538.286654,4145.153275,9030.512492,-1072.533697
538.286975,3701.029710,10140.821405,-459.657299
538.287295,5625.565159,8290.306550,-919.314598
538.287616,7105.977043,5921.647536,-383.047749
538.287936,5625.565159,5625.565159,-306.438199
538.288257,3627.009116,6291.750507,-919.314598
538.288577,3997.112087,8956.491898,-306.438199
538.288898,5033.400406,10362.883188,-689.485948
538.289219,7402.059420,9770.718434,0.000000
538.289539,7254.018232,9030.512492,229.828649
538.289860,5995.668130,8068.244768,-995.924147
538.290180,4441.235652,9474.636058,0.000000
538.290501,3478.967927,9770.718434,689.485948
538.290822,4293.194464,8882.471304,0.000000
538.291142,5773.606348,7402.059420,76.609550
538.291463,5625.565159,8512.368333,-1072.533697
538.291783,3923.091493,10807.006753,-536.266849
538.292104,2368.659014,10510.924376,536.266849
538.292424,2368.659014,9252.574275,766.095498
538.292745,4071.132681,7402.059420,1915.238745
538.293066,4589.276840,8068.244768,1455.581446
538.293386,2368.659014,9918.759623,-842.705048
538.293707,0.000000,9918.759623,-1991.848295
538.294027,2516.700203,9992.780217,-766.095498
538.294348,3997.112087,9104.533087,1072.533697
538.294668,4663.297435,7846.182985,1532.190996
538.294989,5329.482782,8734.430116,612.876398
538.295310,3256.906145,10436.903782,-689.485948
538.295630,2812.782580,10584.944971,-919.314598
538.295951,5403.503377,8734.430116,-766.095498
538.296271,5625.565159,5551.544565,-1225.752797
538.296592,6217.729913,4293.194464,0.000000
538.296913,5995.668130,6143.709319,1302.362347
538.297233,4219.173869,6957.935855,-842.705048
538.297554,4663.297435,6957.935855,-2145.067394
538.297874,5773.606348,6291.750507,-1149.143247
538.298195,7402.059420,7402.059420,-153.219100
538.298515,7402.059420,7994.224174,1072.533697
538.298836,7624.121203,8216.285956,0.000000
538.299157,6069.688724,6957.935855,-1685.410096
538.299477,4071.132681,5107.421000,-1762.019645
538.299798,5625.565159,6069.688724,0.000000
538.300118,6439.791695,7698.141797,0.000000
538.300439,5625.565159,8438.347739,0.000000
538.300759,5921.647536,8660.409521,0.000000
538.301080,3775.050304,7328.038826,-612.876398
538.301401,2812.782580,7402.059420,-383.047749
538.301721,4367.215058,7772.162391,766.095498
538.302042,4293.194464,6661.853478,0.000000
538.302362,4293.194464,6735.874072,76.609550
538.302683,5551.544565,7550.100608,153.219100
538.303003,3997.112087,8216.285956,-153.219100
538.303324,4959.379811,10732.986159,0.000000
538.303645,6365.771101,11103.089130,612.876398
538.303965,7031.956449,9696.697840,76.609550
538.304286,8586.388927,7846.182985,0.000000
538.304606,5995.668130,6291.750507,-766.095498
538.304927,3849.070898,5847.626942,-1378.971896
538.305248,4811.338623,6587.832884,153.219100
538.305568,6809.894666,7698.141797,842.705048
538.305889,7550.100608,7550.100608,-76.609550
538.306209,7698.141797,8512.368333,-1302.362347
538.306530,4589.276840,8660.409521,-1762.019645
538.306850,3923.091493,9770.718434,-459.657299
538.307171,4959.379811,10066.800811,1149.143247
538.307492,7328.038826,9326.594869,-842.705048
538.307812,6439.791695,6883.915261,-1838.629195
538.308133,4663.297435,7402.059420,-2451.505594
538.308453,2738.761985,10807.006753,-1225.752797
538.308774,1850.514855,11547.212695,459.657299
538.309094,2812.782580,9696.697840,536.266849
538.309415,4737.318029,7698.141797,1378.971896
538.309736,3775.050304,7698.141797,689.485948
538.310056,1776.494261,9178.553681,689.485948
538.310377,518.144159,9252.574275,-766.095498
538.310697,1332.370696,7254.018232,-383.047749
538.311018,3478.967927,5921.647536,919.314598
538.311339,5625.565159,7179.997637,2068.457845
538.311659,4811.338623,10288.862594,1149.143247
538.311980,3404.947333,11769.274478,0.000000
538.312300,3330.926739,10584.944971,-2068.457845
538.312621,6513.812290,8290.306550,-1302.362347
538.312941,6809.894666,6365.771101,0.000000
538.313262,7698.141797,6217.729913,536.266849
538.313583,5255.462188,6365.771101,-153.219100
538.313903,3627.009116,6661.853478,-1225.752797
538.314224,4959.379811,7402.059420,0.000000
538.314544,6883.915261,7105.977043,229.828649
538.314865,8216.285956,6661.853478,0.000000
538.315185,7105.977043,7550.100608,612.876398
538.315506,6217.729913,7328.038826,229.828649
538.315827,6661.853478,7772.162391,153.219100
538.316147,6661.853478,7031.956449,-919.314598
538.316468,5329.482782,5255.462188,-1838.629195
538.316788,8808.450710,5921.647536,-766.095498
538.317109,7994.224174,7624.121203,1302.362347
538.317429,5477.523971,8660.409521,153.219100
538.317750,5477.523971,7254.018232,-919.314598
538.318071,5551.544565,7402.059420,-1149.143247
538.318391,5847.626942,7624.121203,689.485948
538.318712,5847.626942,7105.977043,1608.800546
538.319032,5551.544565,5995.668130,0.000000
538.319353,3478.967927,6291.750507,-1225.752797
538.319673,4219.173869,7328.038826,1302.362347
538.319994,5255.462188,8660.409521,1225.752797
538.320314,7105.977043,9844.739029,383.047749
538.320635,6291.750507,10436.903782,-536.266849
538.320955,4589.276840,9252.574275,-1608.800546
538.321276,4441.235652,7772.162391,-306.438199
538.321596,5181.441594,7476.080014,689.485948
538.321917,4811.338623,7624.121203,919.314598
538.322238,3552.988522,6439.791695,-612.876398
538.322558,3775.050304,8290.306550,-2451.505594
538.322879,3701.029710,10066.800811,-1838.629195
538.323199,3034.844362,10288.862594,-229.828649
538.323520,4071.132681,9252.574275,76.609550
538.323840,4885.359217,8882.471304,0.000000
538.324161,5995.668130,9696.697840,76.609550
538.324481,4737.318029,9548.656652,-536.266849
538.324802,2664.741391,7476.080014,-2145.067394
538.325122,3182.885551,7994.224174,-1149.143247
538.325443,5107.421000,9696.697840,612.876398
538.325763,5625.565159,9918.759623,383.047749
538.326084,6513.812290,7920.203579,-536.266849
538.326405,5033.400406,7105.977043,-1455.581446
538.326725,2812.782580,6217.729913,-766.095498
538.327046,3108.864956,6513.812290,1378.971896
538.327366,5255.462188,6809.894666,1225.752797
538.327687,6291.750507,7179.997637,0.000000
538.328007,6217.729913,7846.182985,-919.314598
538.328328,5403.503377,8882.471304,-2451.505594
538.328648,4885.359217,10214.842000,-1991.848295
538.328969,5551.544565,10214.842000,0.000000
538.329289,6365.771101,9326.594869,-1225.752797
538.329610,6661.853478,8586.388927,-612.876398
538.329930,5255.462188,7772.162391,-536.266849
538.330251,4515.256246,8882.471304,-919.314598
538.330572,3552.988522,8438.347739,-229.828649
538.330892,3182.885551,6883.915261,153.219100
538.331213,5033.400406,5625.565159,1072.533697
538.331533,5329.482782,6809.894666,689.485948
538.331854,5107.421000,7698.141797,76.609550
538.332174,3997.112087,8438.347739,-766.095498
538.332495,3775.050304,7994.224174,-1072.533697
538.332815,7179.997637,9104.533087,306.438199
538.333136,7624.121203,8808.450710,1991.848295
538.333456,6957.935855,7846.182985,1149.143247
538.333777,5477.523971,7624.121203,153.219100
538.334097,5699.585753,7254.018232,-689.485948
538.334418,5625.565159,7698.141797,-1149.143247
538.334739,6883.915261,6809.894666,-1225.752797
538.335059,7772.162391,5995.668130,-536.266849
538.335380,7105.977043,6513.812290,536.266849
538.335700,6217.729913,6809.894666,689.485948
538.336021,5181.441594,6883.915261,-153.219100
538.336341,3627.009116,6069.688724,-1302.362347
538.336662,5403.503377,6439.791695,-919.314598
538.336982,6735.874072,8660.409521,-229.828649
538.337303,6735.874072,10066.800811,-383.047749
538.337623,5403.503377,9918.759623,-995.924147
538.337944,4515.256246,9770.718434,-1455.581446
538.338264,4219.173869,8660.409521,-306.438199
538.338585,4293.194464,8882.471304,919.314598
538.338906,4589.276840,8364.327145,919.314598
538.339226,2738.761985,6661.853478,76.609550
538.339547,3034.844362,5921.647536,612.876398
538.339867,3330.926739,6661.853478,1149.143247
538.340188,3849.070898,7624.121203,459.657299
538.340508,4071.132681,8290.306550,0.000000
538.340829,5403.503377,8512.368333,-306.438199
538.341149,5255.462188,8512.368333,0.000000
538.341470,6439.791695,8734.430116,1302.362347
538.341790,6291.750507,9474.636058,1149.143247
538.342111,5329.482782,9696.697840,-536.266849
538.342431,5181.441594,8142.265362,-995.924147
538.342752,6513.812290,7624.121203,-1225.752797
538.343073,4959.379811,7402.059420,-1072.533697
538.343393,4293.194464,7550.100608,-1149.143247
538.343714,5551.544565,7994.224174,-919.314598
538.344034,4811.338623,8216.285956,-1302.362347
538.344355,4737.318029,7920.203579,-766.095498
538.344675,4959.379811,8364.327145,-383.047749
538.344996,2442.679609,7476.080014,-1838.629195
538.345316,2220.617826,7624.121203,-383.047749
538.345637,4441.235652,9548.656652,689.485948
538.345957,5995.668130,10510.924376,229.828649
538.346278,4589.276840,9400.615463,-612.876398
538.346598,3775.050304,8660.409521,-1838.629195
538.346919,4071.132681,9474.636058,-612.876398
538.347240,3627.009116,9844.739029,1608.800546
538.347560,4293.194464,7550.100608,1608.800546
538.347881,5255.462188,5255.462188,0.000000
538.348201,5255.462188,5699.585753,153.219100
538.348522,5329.482782,8660.409521,1225.752797
538.348842,5181.441594,8882.471304,306.438199
538.349163,5699.585753,7624.121203,-1608.800546
538.349483,6957.935855,6439.791695,-1378.971896
538.349804,7476.080014,7105.977043,153.219100
538.350124,7179.997637,8660.409521,766.095498
538.350445,5699.585753,9030.512492,-842.705048
538.350765,4737.318029,8068.244768,-2221.676944
538.351086,5847.626942,8364.327145,-1532.190996
538.351406,6291.750507,8660.409521,0.000000
538.351727,5255.462188,8142.265362,0.000000
538.352048,4885.359217,7920.203579,76.609550
538.352368,4071.132681,7846.182985,-306.438199
538.352689,3552.988522,7105.977043,-153.219100
538.353009,4811.338623,7254.018232,-153.219100
538.353330,5255.462188,7402.059420,-229.828649
538.353650,4145.153275,7402.059420,0.000000
538.353971,4811.338623,7476.080014,1072.533697
538.354291,6365.771101,8734.430116,1225.752797
538.354612,5995.668130,9992.780217,306.438199
538.354932,4959.379811,9178.553681,459.657299
538.355253,4959.379811,8438.347739,-459.657299
538.355573,5921.647536,8586.388927,-459.657299
538.355894,5329.482782,8734.430116,995.924147
538.356215,4737.318029,7105.977043,536.266849
538.356535,4441.235652,5477.523971,-1302.362347
538.356856,3997.112087,6365.771101,-536.266849
538.357176,5107.421000,7772.162391,1149.143247
538.357497,5699.585753,7179.997637,306.438199
538.357817,4737.318029,6069.688724,-1455.581446
538.358138,4589.276840,7105.977043,-1072.533697
538.358458,5329.482782,9474.636058,-383.047749
538.358779,5403.503377,10288.862594,0.000000
538.359099,5699.585753,8586.388927,-306.438199
538.359420,5403.503377,7772.162391,-1378.971896
538.359740,4441.235652,8290.306550,-1378.971896
538.360061,4071.132681,9474.636058,0.000000
538.360382,3034.844362,9844.739029,153.219100
538.360702,4589.276840,8438.347739,0.000000
538.361023,4367.215058,7846.182985,229.828649
538.361343,2516.700203,6809.894666,0.000000
538.361664,2072.576638,7402.059420,0.000000
538.361984,2368.659014,8290.306550,229.828649
538.362305,2886.803174,8586.388927,0.000000
538.362625,5107.421000,9474.636058,306.438199
538.362946,5551.544565,10066.800811,689.485948
538.363266,4737.318029,11695.253884,153.219100
538.363587,3478.967927,11695.253884,842.705048
538.363907,2294.638420,9548.656652,459.657299
538.364228,3997.112087,7994.224174,0.000000
538.364549,5551.544565,7179.997637,306.438199
538.364869,4219.173869,7698.141797,-689.485948
538.365190,3182.885551,7920.203579,-1225.752797
538.365510,4589.276840,8808.450710,-612.876398
538.365831,5995.668130,9474.636058,-842.705048
538.366151,6661.853478,7179.997637,919.314598
538.366472,6587.832884,5995.668130,612.876398
538.366792,6069.688724,7328.038826,-306.438199
538.367113,5403.503377,8586.388927,-229.828649
538.367433,6587.832884,10288.862594,-536.266849
538.367754,7550.100608,8734.430116,-1455.581446
538.368074,7031.956449,6513.812290,-2298.286494
538.368395,7476.080014,6809.894666,-306.438199
538.368716,6809.894666,7624.121203,995.924147
538.369036,5329.482782,7031.956449,229.828649
538.369357,4515.256246,5033.400406,-536.266849
538.369677,6661.853478,5329.482782,-689.485948
538.369998,6735.874072,7328.038826,689.485948
538.370318,4959.379811,8586.388927,766.095498
538.370639,4663.297435,6809.894666,-536.266849
538.370959,4515.256246,5995.668130,-383.047749
538.371280,5403.503377,8438.347739,1149.143247
538.371600,4293.194464,9326.594869,1225.752797
538.371921,3775.050304,9326.594869,-459.657299
538.372241,3849.070898,9770.718434,-1762.019645
538.372562,3701.029710,9918.759623,0.000000
538.372883,2812.782580,7550.100608,459.657299
538.373203,4515.256246,6513.812290,-459.657299
538.373524,3478.967927,5847.626942,-1072.533697
538.373844,4293.194464,7031.956449,-612.876398
538.374165,5773.606348,7476.080014,1149.143247
538.374485,4959.379811,7328.038826,-383.047749
538.374806,6143.709319,8068.244768,-766.095498
538.375126,6661.853478,9104.533087,-153.219100
538.375447,6217.729913,9178.553681,153.219100
538.375767,8068.244768,8142.265362,229.828649
538.376088,7105.977043,7402.059420,-1149.143247
538.376408,5551.544565,6587.832884,-2451.505594
538.376729,5255.462188,8290.306550,-1072.533697
538.377050,5329.482782,10436.903782,919.314598
538.377370,5477.523971,9622.677246,306.438199
538.377691,5477.523971,7920.203579,842.705048
538.378011,3552.988522,6735.874072,-689.485948
538.378332,2294.638420,7624.121203,-383.047749
538.378652,2442.679609,9548.656652,1455.581446
538.378973,3330.926739,10436.903782,-306.438199
538.379293,3997.112087,8808.450710,-1378.971896
538.379614,3256.906145,8956.491898,-689.485948
538.379934,4515.256246,10955.047942,536.266849
538.380255,2664.741391,12509.480420,1532.190996
538.380575,1110.308913,11547.212695,612.876398
538.380896,2516.700203,8956.491898,0.000000
538.381217,5181.441594,7624.121203,536.266849
538.381537,4959.379811,8956.491898,1608.800546
538.381858,3775.050304,8734.430116,612.876398
538.382178,3923.091493,7254.018232,-1608.800546
538.382499,5625.565159,7550.100608,-612.876398
538.382819,6291.750507,6809.894666,1762.019645
538.383140,8290.306550,7105.977043,2145.067394
538.383460,7254.018232,7254.018232,153.219100
538.383781,4811.338623,7698.141797,-1532.190996
538.384101,6587.832884,7254.018232,-612.876398
538.384422,8512.368333,6883.915261,0.000000
538.384742,7624.121203,5773.606348,-1149.143247
538.385063,6957.935855,5699.585753,-1302.362347
538.385384,5995.668130,6217.729913,-1762.019645
538.385704,5181.441594,8142.265362,-1225.752797
538.386025,4737.318029,7920.203579,-383.047749
538.386345,5847.626942,6957.935855,-766.095498
538.386666,7105.977043,6587.832884,0.000000
538.386986,4737.318029,7624.121203,536.266849
538.387307,3997.112087,7994.224174,0.000000
538.387627,3997.112087,7328.038826,-1378.971896
538.387948,3330.926739,6735.874072,-1838.629195
538.388268,4515.256246,7402.059420,0.000000
538.388589,5625.565159,9326.594869,1532.190996
538.388909,5329.482782,10214.842000,689.485948
538.389230,4071.132681,9030.512492,0.000000
538.389551,4515.256246,8290.306550,-229.828649
538.389871,5329.482782,7920.203579,229.828649
538.390192,4589.276840,7254.018232,995.924147
538.390512,5403.503377,7624.121203,612.876398
538.390833,5181.441594,7254.018232,-383.047749
538.391153,6513.812290,8142.265362,229.828649
538.391474,6291.750507,7550.100608,612.876398
538.391794,5403.503377,7402.059420,842.705048
538.392115,5255.462188,8142.265362,459.657299
538.392435,5625.565159,8808.450710,153.219100
538.392756,5107.421000,8216.285956,-536.266849
538.393076,7476.080014,9030.512492,-919.314598
538.393397,5847.626942,8216.285956,-1685.410096
538.393718,3997.112087,7772.162391,-1915.238745
538.394038,5033.400406,7846.182985,-842.705048
538.394359,4515.256246,9696.697840,0.000000
538.394679,5107.421000,10362.883188,-459.657299
538.395000,4515.256246,9548.656652,-995.924147
538.395320,3701.029710,8882.471304,-2145.067394
538.395641,4293.194464,8660.409521,-995.924147
538.395961,4071.132681,7550.100608,842.705048
538.396282,4441.235652,7254.018232,536.266849
538.396602,3849.070898,6143.709319,383.047749
538.396923,3627.009116,7698.141797,689.485948
538.397243,4811.338623,9992.780217,766.095498
538.397564,5033.400406,10732.986159,612.876398
538.397885,3997.112087,9030.512492,-919.314598
538.398205,5551.544565,7550.100608,-153.219100
538.398526,5255.462188,7179.997637,689.485948
538.398846,4145.153275,8290.306550,919.314598
538.399167,3775.050304,7772.162391,-1455.581446
538.399487,3627.009116,6217.729913,-2068.457845
538.399808,5181.441594,6957.935855,-536.266849
538.400128,5551.544565,7920.203579,1378.971896
538.400449,5921.647536,9030.512492,995.924147
538.400769,5255.462188,9030.512492,-766.095498
538.401090,4737.318029,8438.347739,-1149.143247
538.401410,6217.729913,8512.368333,-995.924147
538.401731,7105.977043,6883.915261,0.000000
538.402052,5995.668130,5625.565159,-919.314598
538.402372,5847.626942,6069.688724,-1072.533697
538.402693,5847.626942,7846.182985,-919.314598
538.403013,5995.668130,9622.677246,-995.924147
538.403334,5477.523971,8068.244768,-1302.362347
538.403654,7328.038826,6513.812290,-842.705048
538.403975,7550.100608,6513.812290,459.657299
538.404295,6735.874072,6439.791695,1532.190996
538.404616,5773.606348,6957.935855,536.266849
538.404936,5847.626942,7105.977043,0.000000
538.405257,4885.359217,6957.935855,-229.828649
538.405577,6217.729913,8660.409521,919.314598
538.405898,7179.997637,9030.512492,1378.971896
538.406219,5329.482782,9400.615463,-689.485948
538.406539,4145.153275,8882.471304,-459.657299
538.406860,4737.318029,7476.080014,-229.828649
538.407180,4589.276840,8068.244768,766.095498
538.407501,3997.112087,8142.265362,612.876398
538.407821,3330.926739,8216.285956,-1072.533697
538.408142,3182.885551,8660.409521,-766.095498
538.408462,3404.947333,9252.574275,612.876398
538.408783,4441.235652,9844.739029,995.924147
538.409103,3923.091493,8882.471304,76.609550
538.409424,3478.967927,8512.368333,-995.924147
538.409744,3849.070898,10288.862594,-766.095498
538.410065,3478.967927,9770.718434,0.000000
538.410386,4071.132681,8660.409521,-153.219100
538.410706,5033.400406,7105.977043,-229.828649
538.411027,5255.462188,8068.244768,153.219100
538.411347,5403.503377,9474.636058,1072.533697
538.411668,4811.338623,8660.409521,0.000000
538.411988,4663.297435,7105.977043,-1608.800546
538.412309,5181.441594,6513.812290,-995.924147
538.412629,5403.503377,7550.100608,612.876398
538.412950,5847.626942,7698.141797,459.657299
538.413270,6217.729913,7550.100608,0.000000
538.413591,4293.194464,7254.018232,-1532.190996
538.413911,4367.215058,7328.038826,-995.924147
538.414232,5625.565159,8216.285956,919.314598
538.414553,5107.421000,9992.780217,383.047749
538.414873,5403.503377,10732.986159,-1225.752797
538.415194,4737.318029,8882.471304,-1685.410096
538.415514,4367.215058,8068.244768,-2145.067394
538.415835,4737.318029,7476.080014,995.924147
538.416155,4737.318029,8216.285956,766.095498
538.416476,3775.050304,7254.018232,-1378.971896
538.416796,3404.947333,7105.977043,-1915.238745
538.417117,4737.318029,7846.182985,-536.266849
538.417438,5107.421000,8068.244768,842.705048
538.417758,3923.091493,7254.018232,1072.533697
538.418079,4515.256246,7328.038826,-153.219100
538.418399,6217.729913,7920.203579,153.219100
538.418720,5995.668130,8956.491898,995.924147
538.419040,5551.544565,9178.553681,-766.095498
538.419361,5699.585753,8364.327145,-2068.457845
538.419682,6957.935855,8216.285956,-1378.971896
538.420002,7772.162391,7846.182985,536.266849
538.420323,7328.038826,7402.059420,766.095498
538.420643,5551.544565,6291.750507,-689.485948
538.420964,4367.215058,5773.606348,-1072.533697
538.421285,4959.379811,6809.894666,-153.219100
538.421605,6439.791695,8290.306550,0.000000
538.421926,6735.874072,7105.977043,-1225.752797
538.422246,6809.894666,7105.977043,-1915.238745
538.422567,5699.585753,7772.162391,-995.924147
538.422888,4737.318029,8808.450710,919.314598
538.423208,5255.462188,9696.697840,689.485948
538.423529,4737.318029,8808.450710,-842.705048
538.423849,4737.318029,8808.450710,-1532.190996
538.424170,6587.832884,9992.780217,-76.609550
538.424491,4811.338623,8882.471304,153.219100
538.424811,3701.029710,7402.059420,-383.047749
538.425132,3182.885551,6513.812290,-383.047749
538.425452,2812.782580,6217.729913,-229.828649
538.425773,3478.967927,7624.121203,1455.581446
538.426093,3775.050304,9252.574275,1608.800546
538.426414,3182.885551,10214.842000,-383.047749
538.426735,3627.009116,10288.862594,-383.047749
538.427055,4071.132681,9474.636058,383.047749
538.427376,4071.132681,9252.574275,459.657299
538.427696,5181.441594,9030.512492,1302.362347
538.428017,3775.050304,6957.935855,0.000000
538.428338,4145.153275,6735.874072,-919.314598
538.428658,5551.544565,9548.656652,612.876398
538.428979,4293.194464,10955.047942,-153.219100
538.429299,3256.906145,8586.388927,-1838.629195
538.429620,6883.915261,6735.874072,-1149.143247
538.429941,6291.750507,7105.977043,-383.047749
538.430261,3849.070898,6957.935855,-689.485948
538.430582,3256.906145,6735.874072,-842.705048
538.430902,4515.256246,8290.306550,-1685.410096
538.431223,5551.544565,9844.739029,76.609550
538.431543,6883.915261,11029.068536,2374.896044
538.431864,5625.565159,9178.553681,0.000000
538.432185,4219.173869,8216.285956,-1685.410096
538.432505,3701.029710,8808.450710,153.219100
538.432826,5033.400406,8068.244768,1378.971896
538.433146,7105.977043,6735.874072,1991.848295
538.433467,5181.441594,5625.565159,0.000000
538.433788,3997.112087,5181.441594,-1685.410096
538.434108,3330.926739,6587.832884,153.219100
538.434429,3701.029710,7105.977043,1915.238745
538.434749,5773.606348,7328.038826,1991.848295
538.435070,6143.709319,6735.874072,229.828649
538.435391,6809.894666,9104.533087,-1608.800546
538.435711,5625.565159,10955.047942,-1225.752797
538.436032,4811.338623,9992.780217,-1302.362347
538.436352,5847.626942,7920.203579,-1608.800546
538.436673,7105.977043,6217.729913,-229.828649
538.436994,5995.668130,6217.729913,153.219100
538.437314,4515.256246,8290.306550,0.000000
538.437635,3997.112087,8660.409521,-919.314598
538.437955,4293.194464,8068.244768,-1608.800546
538.438276,5255.462188,7105.977043,-229.828649
538.438596,6661.853478,5995.668130,612.876398
538.438917,6587.832884,6513.812290,612.876398
538.439238,4145.153275,6513.812290,-995.924147
538.439558,3404.947333,7031.956449,-842.705048
538.439879,4959.379811,8142.265362,153.219100
538.440199,6587.832884,9474.636058,612.876398
538.440520,6957.935855,10140.821405,-459.657299
538.440841,6587.832884,9548.656652,-1762.019645
538.441161,5921.647536,8956.491898,-1225.752797
538.441482,5699.585753,8512.368333,536.266849
538.441802,4737.318029,6883.915261,0.000000
538.442123,4515.256246,6365.771101,-1225.752797
538.442444,3997.112087,7624.121203,-612.876398
538.442764,3627.009116,9030.512492,1072.533697
538.443085,4071.132681,10066.800811,1685.410096
538.443405,3701.029710,10140.821405,995.924147
538.443726,2442.679609,9252.574275,-1302.362347
538.444047,4811.338623,9696.697840,0.000000
538.444367,4737.318029,8660.409521,919.314598
538.444688,2442.679609,7402.059420,-536.266849
538.445008,2886.803174,7550.100608,-1225.752797
538.445329,3849.070898,10140.821405,-1225.752797
538.445649,3256.906145,11547.212695,0.000000
538.445970,5551.544565,10510.924376,919.314598
538.446291,6513.812290,8438.347739,459.657299
538.446611,3849.070898,7328.038826,-1072.533697
538.446932,3182.885551,6661.853478,0.000000
538.447252,3923.091493,7772.162391,383.047749
538.447573,5551.544565,7402.059420,-76.609550
538.447894,5921.647536,7105.977043,383.047749
538.448214,5995.668130,6957.935855,-612.876398
538.448535,5551.544565,7698.141797,-766.095498
538.448855,4737.318029,9992.780217,536.266849
538.449176,4885.359217,9844.739029,-306.438199
538.449497,7402.059420,8216.285956,-689.485948
538.449817,6735.874072,6809.894666,-306.438199
538.450138,5403.503377,7920.203579,0.000000
538.450458,3701.029710,7994.224174,229.828649
538.450779,1924.535449,6513.812290,-1072.533697
538.451100,2886.803174,6365.771101,153.219100
538.451420,5329.482782,7328.038826,2681.334243
538.451741,4441.235652,9252.574275,1378.971896
538.452061,3256.906145,9104.533087,-306.438199
538.452382,3034.844362,9030.512492,-1072.533697
538.452702,4145.153275,8290.306550,-1072.533697
538.453023,5403.503377,7328.038826,1455.581446
538.453344,5921.647536,5181.441594,1532.190996
538.453664,4663.297435,5847.626942,0.000000
538.453985,5107.421000,7920.203579,153.219100
538.454305,5181.441594,10066.800811,76.609550
538.454626,6291.750507,9474.636058,-1302.362347
538.454947,7254.018232,7402.059420,-1072.533697
538.455267,7772.162391,5921.647536,0.000000
538.455588,7328.038826,5329.482782,1608.800546
538.455908,6291.750507,5995.668130,1149.143247
538.456229,4441.235652,6365.771101,-612.876398
538.456550,4663.297435,6439.791695,-1762.019645
538.456870,7105.977043,7698.141797,-459.657299
538.457191,7402.059420,9696.697840,1149.143247
538.457511,6513.812290,10510.924376,689.485948
538.457832,5181.441594,8956.491898,-1608.800546
538.458152,3775.050304,7994.224174,-2528.115143
538.458473,4293.194464,8364.327145,76.609550
538.458794,6069.688724,8660.409521,1991.848295
538.459114,3701.029710,7624.121203,-306.438199
538.459435,2664.741391,7105.977043,-2145.067394
538.459755,4441.235652,8734.430116,0.000000
538.460076,3330.926739,9400.615463,1072.533697
538.460397,5033.400406,8882.471304,1455.581446
538.460717,6069.688724,7846.182985,383.047749
538.461038,4293.194464,6735.874072,-306.438199
538.461358,3997.112087,7254.018232,612.876398
538.461679,5403.503377,9992.780217,1455.581446
538.462000,4737.318029,9474.636058,-229.828649
538.462320,5995.668130,7920.203579,-995.924147
538.462641,8660.409521,7624.121203,-842.705048
538.462961,5773.606348,8734.430116,-1225.752797
538.463282,4441.235652,8142.265362,-919.314598
538.463603,3775.050304,7031.956449,-153.219100
538.463923,5107.421000,7772.162391,-842.705048
538.464244,6439.791695,8364.327145,1455.581446
538.464564,5033.400406,8438.347739,536.266849
538.464885,3034.844362,7476.080014,-3447.429741
538.465205,2442.679609,8734.430116,-3064.381992
538.465526,2664.741391,9548.656652,459.657299
538.465847,5625.565159,10436.903782,1302.362347
538.466167,5625.565159,9326.594869,612.876398
538.466488,4441.235652,9622.677246,-2757.943793
538.466808,2368.659014,9696.697840,-2374.896044
538.467129,1258.350101,9548.656652,766.095498
538.467450,3330.926739,8956.491898,1838.629195
538.467770,4219.173869,7476.080014,1072.533697
538.468091,3108.864956,7105.977043,-306.438199
538.468411,3404.947333,7772.162391,-459.657299
538.468732,3552.988522,8512.368333,842.705048
538.469053,4441.235652,7994.224174,995.924147
538.469373,5921.647536,7105.977043,306.438199
538.469694,7105.977043,7179.997637,459.657299
538.470014,7476.080014,8956.491898,1302.362347
538.470335,7624.121203,8882.471304,1455.581446
538.470656,6587.832884,7846.182985,-1378.971896
538.470976,6513.812290,6957.935855,-2987.772442
538.471297,6883.915261,6735.874072,-2221.676944
538.471617,8216.285956,7179.997637,-229.828649
538.471938,6883.915261,6883.915261,842.705048
538.472258,4959.379811,6809.894666,306.438199
538.472579,3775.050304,7105.977043,-766.095498
538.472900,3701.029710,7476.080014,-919.314598
538.473220,5995.668130,8512.368333,459.657299
538.473541,5625.565159,6883.915261,383.047749
538.473861,5329.482782,5847.626942,-153.219100
538.474182,6587.832884,7846.182985,612.876398
538.474503,4811.338623,9696.697840,842.705048
538.474823,3478.967927,9178.553681,-612.876398
538.475144,6217.729913,8290.306550,-842.705048
538.475464,7402.059420,7624.121203,306.438199
538.475785,5329.482782,7698.141797,1762.019645
538.476106,4811.338623,7105.977043,1225.752797
538.476426,3923.091493,5847.626942,-1149.143247
538.476747,4589.276840,5255.462188,-306.438199
538.477067,7624.121203,5477.523971,2374.896044
538.477388,6661.853478,6587.832884,1685.410096
538.477708,5033.400406,7105.977043,-689.485948
538.478029,6513.812290,10140.821405,-612.876398
538.478350,5773.606348,10436.903782,-612.876398
538.478670,7254.018232,8586.388927,0.000000
538.478991,8512.368333,6365.771101,0.000000
538.479311,4811.338623,6217.729913,-2221.676944
538.479632,2516.700203,7698.141797,-2451.505594
538.479953,3775.050304,9326.594869,-229.828649
538.480273,5773.606348,10510.924376,-536.266849
538.480594,5699.585753,9992.780217,-76.609550
538.480914,4959.379811,8734.430116,-766.095498
538.481235,2886.803174,7402.059420,-2374.896044
538.481556,2072.576638,7550.100608,0.000000
538.481876,3034.844362,8142.265362,1838.629195
538.482197,4367.215058,7846.182985,0.000000
538.482517,5255.462188,7772.162391,-612.876398
538.482838,4959.379811,10214.842000,0.000000
538.483159,4663.297435,12435.459826,-383.047749
538.483479,3330.926739,10584.944971,0.000000
538.483800,3775.050304,8660.409521,-459.657299
538.484120,5625.565159,7624.121203,1378.971896
538.484441,5403.503377,8438.347739,1455.581446
538.484761,5107.421000,9178.553681,842.705048
538.485082,3923.091493,8290.306550,-1072.533697
538.485403,4071.132681,8438.347739,-1225.752797
538.485723,5403.503377,7994.224174,612.876398
538.486044,5773.606348,7254.018232,1762.019645
538.486364,4737.318029,6809.894666,536.266849
538.486685,4737.318029,7920.203579,-842.705048
538.487006,5181.441594,9178.553681,-995.924147
538.487326,4441.235652,9548.656652,-1685.410096
538.487647,4959.379811,8586.388927,-1762.019645
538.487967,6809.894666,7772.162391,-1608.800546
538.488288,6217.729913,7994.224174,-383.047749
538.488609,5329.482782,8882.471304,919.314598
538.488929,4441.235652,8586.388927,-612.876398
538.489250,4737.318029,7328.038826,-2834.553343
538.489570,5773.606348,7031.956449,-1149.143247
538.489891,7031.956449,7550.100608,1225.752797
538.490212,7105.977043,7031.956449,2145.067394
538.490532,6439.791695,6217.729913,0.000000
538.490853,5107.421000,5033.400406,-1378.971896
538.491173,5107.421000,5847.626942,-766.095498
538.491494,6439.791695,7624.121203,1915.238745
538.491814,6957.935855,8364.327145,1608.800546
538.492135,5699.585753,7550.100608,-383.047749
538.492456,5403.503377,8142.265362,-1149.143247
538.492776,5033.400406,8290.306550,229.828649
538.493097,4959.379811,7994.224174,1149.143247
538.493417,6809.894666,6735.874072,689.485948
538.493738,4737.318029,5329.482782,-1685.410096
538.494059,2812.782580,5329.482782,-2145.067394
538.494379,3404.947333,7920.203579,1378.971896
538.494700,5033.400406,9918.759623,1915.238745
538.495020,4071.132681,8438.347739,76.609550
538.495341,7550.100608,8216.285956,-1532.190996
538.495662,7476.080014,8216.285956,-2681.334243
538.495982,3627.009116,8586.388927,-1991.848295
538.496303,3404.947333,7624.121203,-229.828649
538.496623,6439.791695,7476.080014,0.000000
538.496944,7179.997637,8068.244768,0.000000
538.497264,6735.874072,9992.780217,612.876398
538.497585,4441.235652,9326.594869,-1991.848295
538.497906,3330.926739,8438.347739,-2604.724693
538.498226,4071.132681,8660.409521,766.095498
538.498547,5773.606348,8068.244768,2374.896044
538.498867,6217.729913,7179.997637,1838.629195
538.499188,4737.318029,6735.874072,-689.485948
538.499509,3404.947333,7920.203579,-1762.019645
538.499829,2516.700203,10584.944971,842.705048
538.500150,3034.844362,10584.944971,1838.629195
538.500470,5847.626942,10214.842000,1072.533697
538.500791,5921.647536,8808.450710,0.000000
538.501112,4219.173869,9178.553681,-842.705048
538.501432,3108.864956,9474.636058,-536.266849
538.501753,2368.659014,8808.450710,-459.657299
538.502073,3627.009116,7698.141797,-1378.971896
538.502394,5255.462188,7698.141797,0.000000
538.502715,5181.441594,8364.327145,689.485948
538.503035,4663.297435,8808.450710,1149.143247
538.503356,3775.050304,8808.450710,76.609550
538.503676,4441.235652,8216.285956,-1915.238745
538.503997,5329.482782,6957.935855,-2451.505594
538.504317,6883.915261,7624.121203,-1072.533697
538.504638,7772.162391,8660.409521,-383.047749
538.504959,6365.771101,8290.306550,-766.095498
538.505279,4737.318029,7994.224174,-1378.971896
538.505600,4737.318029,7328.038826,-1072.533697
538.505920,5181.441594,7698.141797,612.876398
538.506241,6069.688724,7179.997637,689.485948
538.506562,5921.647536,6365.771101,0.000000
538.506882,5773.606348,6365.771101,153.219100
538.507203,5255.462188,6735.874072,0.000000
538.507523,4663.297435,6143.709319,-306.438199
538.507844,5181.441594,6513.812290,-459.657299
538.508165,6365.771101,7698.141797,0.000000
538.508485,6143.709319,8956.491898,689.485948
538.508806,5847.626942,9474.636058,995.924147
538.509126,3997.112087,9696.697840,-459.657299
538.509447,3997.112087,8512.368333,-1455.581446
538.509768,6291.750507,8438.347739,0.000000
538.510088,7105.977043,7402.059420,1915.238745
538.510409,4885.359217,6587.832884,766.095498
538.510729,3627.009116,5477.523971,-1915.238745
538.511050,4589.276840,7105.977043,-919.314598
538.511370,5033.400406,9030.512492,1532.190996
538.511691,6587.832884,8364.327145,2451.505594
538.512012,8290.306550,6735.874072,-459.657299
538.512332,6291.750507,7254.018232,-2911.162892
538.512653,3552.988522,8142.265362,-1685.410096
538.512973,5033.400406,9104.533087,612.876398
538.513294,6735.874072,8660.409521,383.047749
538.513615,6143.709319,7772.162391,-383.047749
538.513935,5625.565159,8882.471304,-919.314598
538.514256,3552.988522,9844.739029,-766.095498
538.514576,1702.473667,10214.842000,229.828649
538.514897,2738.761985,9622.677246,1302.362347
538.515218,4959.379811,7698.141797,306.438199
538.515538,4663.297435,7254.018232,536.266849
538.515859,3256.906145,8290.306550,306.438199
538.516179,1850.514855,9252.574275,-612.876398
538.516500,1406.391290,9400.615463,-459.657299
538.516820,3627.009116,8290.306550,842.705048
538.517141,5255.462188,8512.368333,1915.238745
538.517461,5551.544565,8882.471304,1225.752797
538.517782,3256.906145,10214.842000,-766.095498
538.518102,3034.844362,9992.780217,-2604.724693
538.518423,4515.256246,8882.471304,-1608.800546
538.518743,6883.915261,7550.100608,383.047749
538.519064,6587.832884,7179.997637,0.000000
538.519384,6217.729913,6809.894666,-1378.971896
538.519705,4737.318029,7698.141797,-842.705048
538.520025,4589.276840,8216.285956,0.000000
538.520346,6365.771101,7624.121203,229.828649
538.520666,6735.874072,7105.977043,-995.924147
538.520986,5699.585753,7179.997637,-2681.334243
538.521307,5995.668130,8586.388927,-536.266849
538.521627,5477.523971,9474.636058,1378.971896
538.521948,4219.173869,8808.450710,76.609550
538.522268,4145.153275,6661.853478,-1302.362347
538.522589,4959.379811,6957.935855,-76.609550
538.522909,5329.482782,9104.533087,1149.143247
538.523230,3849.070898,9104.533087,2145.067394
538.523550,3849.070898,7994.224174,-383.047749
538.523871,4441.235652,6809.894666,-1378.971896
538.524191,4737.318029,7105.977043,306.438199
538.524512,5181.441594,7402.059420,1532.190996
538.524832,5551.544565,7031.956449,612.876398
538.525153,5403.503377,7476.080014,-689.485948
538.525473,5403.503377,7772.162391,-536.266849
538.525794,5551.544565,8586.388927,153.219100
538.526114,6661.853478,9474.636058,-306.438199
538.526435,6217.729913,8882.471304,-612.876398
538.526755,5921.647536,8364.327145,-919.314598
538.527076,6661.853478,7402.059420,0.000000
538.527396,5329.482782,6809.894666,0.000000
538.527717,3997.112087,6217.729913,-306.438199
538.528037,5773.606348,7031.956449,-153.219100
538.528358,5995.668130,8142.265362,153.219100
538.528678,5329.482782,7624.121203,383.047749
538.528999,6957.935855,7105.977043,-306.438199
538.529319,5477.523971,7031.956449,-1302.362347
538.529640,4145.153275,7846.182985,-1149.143247
538.529960,4293.194464,9104.533087,919.314598
538.530281,5477.523971,9252.574275,383.047749
538.530601,5847.626942,8290.306550,-689.485948
538.530922,4885.359217,8290.306550,-995.924147
538.531242,3256.906145,8956.491898,-612.876398
538.531563,3034.844362,9104.533087,229.828649
538.531883,3256.906145,8364.327145,1225.752797
538.532203,5033.400406,8364.327145,383.047749
538.532524,5107.421000,7994.224174,153.219100
538.532844,2664.741391,8660.409521,-153.219100
538.533165,3034.844362,9770.718434,-306.438199
538.533485,3478.967927,8290.306550,153.219100
538.533806,4515.256246,7402.059420,-689.485948
538.534126,5477.523971,8068.244768,919.314598
538.534447,4589.276840,9474.636058,612.876398
538.534767,3627.009116,10881.027347,-766.095498
538.535088,3182.885551,10881.027347,-995.924147
538.535408,4293.194464,8364.327145,-1532.190996
538.535729,5773.606348,7846.182985,-383.047749
538.536049,5995.668130,8512.368333,536.266849
538.536370,3775.050304,8438.347739,-766.095498
538.536690,2960.823768,7920.203579,-919.314598
538.537011,3552.988522,8438.347739,-612.876398
538.537331,4811.338623,7994.224174,1149.143247
538.537652,5329.482782,7846.182985,1072.533697
538.537972,5477.523971,8586.388927,-153.219100
538.538293,5847.626942,9178.553681,-383.047749
538.538613,4367.215058,7698.141797,229.828649
538.538934,4737.318029,6217.729913,229.828649
538.539254,6439.791695,6809.894666,-153.219100
538.539575,4959.379811,8142.265362,-842.705048
538.539895,4811.338623,8808.450710,-76.609550
538.540216,7105.977043,8956.491898,229.828649
538.540536,5403.503377,7920.203579,-153.219100
538.540857,4959.379811,6513.812290,-536.266849
538.541177,5773.606348,6439.791695,0.000000
538.541498,5329.482782,7031.956449,-536.266849
538.541818,4959.379811,7624.121203,-306.438199
538.542139,5847.626942,8290.306550,-229.828649
538.542459,5033.400406,7254.018232,-1378.971896
538.542779,4663.297435,8956.491898,306.438199
538.543100,4219.173869,9326.594869,1072.533697
538.543420,4737.318029,9474.636058,0.000000
538.543741,4737.318029,8142.265362,229.828649
538.544061,3404.947333,7402.059420,-689.485948
538.544382,4441.235652,8512.368333,-766.095498
538.544702,3478.967927,8364.327145,0.000000
538.545023,4441.235652,7328.038826,0.000000
538.545343,5995.668130,7031.956449,995.924147
538.545664,4959.379811,6809.894666,1149.143247
538.545984,5033.400406,7624.121203,995.924147
538.546305,4737.318029,7624.121203,0.000000
538.546625,5477.523971,7846.182985,-766.095498
538.546946,7179.997637,7994.224174,153.219100
538.547266,7402.059420,7772.162391,-306.438199
538.547587,7476.080014,8216.285956,-1302.362347
538.547907,6143.709319,6809.894666,-1225.752797
538.548228,5107.421000,6069.688724,-995.924147
538.548548,6365.771101,7846.182985,153.219100
538.548869,5847.626942,9622.677246,229.828649
538.549189,3849.070898,8734.430116,-1608.800546
538.549510,6143.709319,7402.059420,-1378.971896
538.549830,6883.915261,7550.100608,459.657299
538.550151,3997.112087,8586.388927,76.609550
538.550471,2812.782580,6883.915261,-766.095498
538.550792,3404.947333,7031.956449,-1378.971896
538.551112,4441.235652,7772.162391,76.609550
538.551433,4959.379811,9548.656652,2374.896044
538.551753,4367.215058,11177.109724,612.876398
538.552074,2960.823768,10881.027347,-2834.553343
538.552394,2368.659014,9104.533087,-1302.362347
538.552715,4737.318029,8734.430116,1378.971896
538.553035,5181.441594,8882.471304,1532.190996
538.553355,2220.617826,7402.059420,842.705048
538.553676,2368.659014,7994.224174,-995.924147
538.553996,3034.844362,8290.306550,-459.657299
538.554317,3923.091493,8734.430116,1685.410096
538.554637,5699.585753,8512.368333,2374.896044
538.554958,5107.421000,7920.203579,459.657299
538.555278,4885.359217,8734.430116,-1072.533697
538.555599,4071.132681,9104.533087,0.000000
538.555919,5255.462188,8068.244768,-306.438199
538.556240,6809.894666,7550.100608,-995.924147
538.556560,6365.771101,7179.997637,-766.095498
538.556881,5477.523971,7846.182985,-1455.581446
538.557201,5625.565159,8660.409521,-612.876398
538.557522,5255.462188,8290.306550,0.000000
538.557842,5033.400406,7105.977043,-842.705048
538.558163,6291.750507,6809.894666,-1455.581446
538.558483,5551.544565,7550.100608,-919.314598
538.558804,5625.565159,8438.347739,-459.657299
538.559124,5477.523971,6809.894666,0.000000
538.559445,5403.503377,5773.606348,-306.438199
538.559765,5773.606348,7105.977043,842.705048
538.560086,5477.523971,8956.491898,1225.752797
538.560406,4811.338623,9474.636058,-306.438199
538.560727,6661.853478,8586.388927,-1302.362347
538.561047,6069.688724,8142.265362,-766.095498
538.561368,5181.441594,6957.935855,536.266849
538.561688,4885.359217,6809.894666,1072.533697
538.562009,4219.173869,6439.791695,229.828649
538.562329,3256.906145,5847.626942,-995.924147
538.562650,5107.421000,6439.791695,536.266849
538.562970,5921.647536,7846.182985,995.924147
538.563291,4959.379811,8438.347739,0.000000
538.563611,5181.441594,7994.224174,-766.095498
538.563932,7179.997637,8512.368333,-1302.362347
538.564252,6217.729913,8512.368333,536.266849
538.564572,6587.832884,8438.347739,1532.190996
538.564893,5995.668130,6661.853478,-1149.143247
538.565213,4515.256246,5921.647536,-2834.553343
538.565534,5255.462188,8142.265362,-689.485948
538.565854,5921.647536,10066.800811,919.314598
538.566175,5551.544565,8882.471304,0.000000
538.566495,6513.812290,7105.977043,-1225.752797
538.566816,5625.565159,6513.812290,-919.314598
538.567136,3552.988522,7031.956449,-306.438199
538.567457,3997.112087,7402.059420,1072.533697
538.567777,4959.379811,7920.203579,-383.047749
538.568098,5773.606348,8216.285956,-842.705048
538.568418,5921.647536,10436.903782,306.438199
538.568739,5181.441594,10658.965565,153.219100
538.569059,3627.009116,9474.636058,-995.924147
538.569380,2812.782580,8808.450710,-766.095498
538.569700,3256.906145,8142.265362,-383.047749
538.570021,4885.359217,8290.306550,1149.143247
538.570341,2960.823768,8142.265362,1072.533697
538.570662,2516.700203,8512.368333,-612.876398
538.570982,2146.597232,8586.388927,-383.047749
538.571303,1554.432478,8808.450710,0.000000
538.571623,3923.091493,9474.636058,1072.533697
538.571944,4219.173869,8364.327145,536.266849
538.572264,4293.194464,9178.553681,-1762.019645
538.572585,5181.441594,9992.780217,-1762.019645
538.572905,4515.256246,10214.842000,-1838.629195
538.573226,5181.441594,10288.862594,-1149.143247
538.573546,5847.626942,8734.430116,-612.876398
538.573867,5477.523971,7550.100608,-229.828649
538.574187,5921.647536,7624.121203,689.485948
538.574508,5107.421000,8216.285956,842.705048
538.574828,3997.112087,7698.141797,-689.485948
538.575148,5181.441594,6883.915261,-1378.971896
538.575469,6661.853478,6587.832884,-383.047749
538.575789,6661.853478,7550.100608,842.705048
538.576110,6069.688724,7105.977043,995.924147
538.576430,5107.421000,5995.668130,-459.657299
538.576751,5625.565159,6661.853478,-1072.533697
538.577071,5699.585753,8290.306550,383.047749
538.577392,6291.750507,8660.409521,919.314598
538.577712,7179.997637,8290.306550,-229.828649
538.578033,7031.956449,8438.347739,-536.266849
538.578353,5329.482782,8882.471304,-229.828649
538.578674,4367.215058,7328.038826,-383.047749
538.578994,4811.338623,5625.565159,-919.314598
538.579315,5033.400406,4737.318029,-612.876398
538.579635,4071.132681,5477.523971,0.000000
538.579956,4145.153275,7105.977043,0.000000
538.580276,5033.400406,8882.471304,459.657299
538.580597,4441.235652,8808.450710,229.828649
538.580917,5625.565159,7254.018232,-153.219100
538.581238,7179.997637,7179.997637,0.000000
538.581558,6883.915261,7772.162391,76.609550
538.581879,4515.256246,7772.162391,-689.485948
538.582199,5181.441594,8068.244768,-1608.800546
538.582520,5255.462188,8142.265362,-1608.800546
538.582840,6735.874072,9030.512492,153.219100
538.583161,7254.018232,8660.409521,153.219100
538.583481,5181.441594,7476.080014,-1762.019645
538.583802,3552.988522,6587.832884,-2145.067394
538.584122,3775.050304,6809.894666,536.266849
538.584443,4737.318029,7624.121203,1149.143247
538.584763,5551.544565,7994.224174,766.095498
538.585084,4515.256246,9474.636058,-1149.143247
538.585404,3775.050304,9548.656652,-2145.067394
538.585724,3404.947333,10288.862594,459.657299
538.586045,4441.235652,11917.315666,1838.629195
538.586365,3627.009116,11695.253884,1302.362347
538.586686,2368.659014,8808.450710,-536.266849
538.587006,3997.112087,8808.450710,-919.314598
538.587327,3997.112087,9696.697840,383.047749
538.587647,740.205942,9104.533087,306.438199
538.587968,1924.535449,8068.244768,-1225.752797
538.588288,2960.823768,8216.285956,0.000000
538.588609,3552.988522,8660.409521,1532.190996
538.588929,4515.256246,9844.739029,1915.238745
538.589250,4959.379811,9548.656652,-612.876398
538.589570,4959.379811,10214.842000,-2068.457845
538.589891,4737.318029,9474.636058,-536.266849
538.590211,6513.812290,7476.080014,536.266849
538.590532,7772.162391,7550.100608,383.047749
538.590852,6735.874072,7772.162391,306.438199
538.591173,5033.400406,7550.100608,-995.924147
538.591493,6439.791695,7846.182985,-1225.752797
538.591814,6217.729913,7179.997637,-689.485948
538.592134,6365.771101,5995.668130,0.000000
538.592455,7031.956449,5255.462188,766.095498
538.592775,6735.874072,7402.059420,536.266849
538.593096,5107.421000,8216.285956,153.219100
538.593416,4885.359217,6809.894666,-1225.752797
538.593737,6365.771101,5625.565159,-2374.896044
538.594057,5921.647536,6143.709319,-383.047749
538.594378,6069.688724,7846.182985,1838.629195
538.594698,6513.812290,9622.677246,766.095498
538.595019,4515.256246,8660.409521,-1455.581446
538.595339,3182.885551,7254.018232,-2374.896044
538.595660,4737.318029,7698.141797,0.000000
538.595980,4811.338623,6883.915261,1915.238745
538.596300,3849.070898,5551.544565,1532.190996
538.596621,4959.379811,5699.585753,-306.438199
538.596941,5033.400406,7031.956449,-536.266849
538.597262,4219.173869,9104.533087,459.657299
538.597582,4515.256246,7994.224174,0.000000
538.597903,6513.812290,7105.977043,-536.266849
538.598223,6883.915261,7698.141797,0.000000
538.598544,5995.668130,8734.430116,1072.533697
538.598864,5255.462188,8660.409521,0.000000
538.599185,7254.018232,8586.388927,-919.314598
538.599505,6143.709319,7846.182985,-995.924147
538.599826,5625.565159,7254.018232,-536.266849
538.600146,7031.956449,8438.347739,0.000000
538.600467,6143.709319,9104.533087,153.219100
538.600787,4811.338623,8142.265362,612.876398
538.601108,7179.997637,7105.977043,1072.533697
538.601428,6883.915261,6439.791695,1302.362347
538.601749,5329.482782,6143.709319,459.657299
538.602069,5551.544565,5403.503377,153.219100
538.602390,6883.915261,5699.585753,0.000000
538.602710,8438.347739,6587.832884,459.657299
538.603031,9548.656652,8142.265362,1225.752797
538.603351,9400.615463,7994.224174,-1225.752797
538.603672,8290.306550,6661.853478,-2221.676944
538.603992,8142.265362,5921.647536,-766.095498
538.604313,9696.697840,6143.709319,306.438199
538.604633,9622.677246,6291.750507,459.657299
538.604954,7994.224174,4515.256246,-766.095498
538.605274,7772.162391,3478.967927,-2451.505594
538.605595,8290.306550,4219.173869,-689.485948
538.605915,8142.265362,6809.894666,612.876398
538.606236,7550.100608,6957.935855,229.828649
538.606556,7772.162391,6365.771101,-842.705048
538.606877,7550.100608,6365.771101,-1149.143247
538.607197,7105.977043,6587.832884,383.047749
538.607517,7698.141797,6957.935855,766.095498
538.607838,6809.894666,7328.038826,-995.924147
538.608158,5551.544565,7254.018232,-2068.457845
538.608479,6957.935855,7624.121203,-536.266849
538.608799,8142.265362,7994.224174,612.876398
538.609120,7624.121203,6513.812290,1455.581446
538.609440,8068.244768,5551.544565,689.485948
538.609761,7994.224174,4663.297435,0.000000
538.610081,8364.327145,3849.070898,76.609550
538.610402,10140.821405,3923.091493,1072.533697
538.610722,10807.006753,3701.029710,766.095498
538.611043,11103.089130,4737.318029,842.705048
538.611363,11843.295072,5625.565159,229.828649
538.611684,12509.480420,4663.297435,-842.705048
538.612004,12657.521608,3849.070898,-1608.800546
538.612325,13693.809927,3997.112087,-766.095498
538.612645,12139.377449,4441.235652,-536.266849
538.612966,11547.212695,4441.235652,-1149.143247
538.613286,11251.130318,4441.235652,-1915.238745
538.613607,10658.965565,4515.256246,-2604.724693
538.613927,10066.800811,4885.359217,-1302.362347
538.614248,9918.759623,5699.585753,536.266849
538.614568,8808.450710,5403.503377,383.047749
538.614889,9178.553681,5477.523971,153.219100
538.615209,8290.306550,6143.709319,-383.047749
538.615530,6661.853478,7105.977043,-1072.533697
538.615850,6143.709319,6809.894666,612.876398
538.616171,7105.977043,5847.626942,2451.505594
538.616491,7994.224174,5847.626942,1991.848295
538.616812,7698.141797,6217.729913,1225.752797
538.617132,7179.997637,7920.203579,76.609550
538.617453,7624.121203,7476.080014,76.609550
538.617773,8734.430116,5033.400406,1532.190996
538.618093,10807.006753,3182.885551,1225.752797
538.618414,11769.274478,2442.679609,842.705048
538.618735,10881.027347,3701.029710,-153.219100
538.619055,10214.842000,5107.421000,-306.438199
538.619376,11399.171507,5107.421000,-229.828649
538.619696,12361.439231,2960.823768,0.000000
538.620017,13767.830521,2072.576638,76.609550
538.620338,13693.809927,4441.235652,-459.657299
538.620658,10732.986159,6809.894666,-2068.457845
538.620979,8808.450710,6587.832884,-2911.162892
538.621300,9844.739029,4293.194464,-1838.629195
538.621620,10288.862594,3182.885551,-536.266849
538.621941,9252.574275,4367.215058,536.266849
538.622261,6809.894666,6365.771101,-842.705048
538.622582,4663.297435,7624.121203,-3064.381992
538.622903,5107.421000,8068.244768,-1532.190996
538.623223,6957.935855,7105.977043,1072.533697
538.623544,6883.915261,7402.059420,1532.190996
538.623864,4811.338623,7846.182985,612.876398
538.624185,3552.988522,9104.533087,-1149.143247
538.624506,3849.070898,9548.656652,-383.047749
538.624826,4885.359217,8512.368333,1685.410096
538.625147,6809.894666,7476.080014,2221.676944
538.625468,7254.018232,7105.977043,2374.896044
538.625788,7328.038826,7550.100608,1608.800546
538.626109,6809.894666,6735.874072,612.876398
538.626429,8216.285956,4219.173869,306.438199
538.626750,11177.109724,2738.761985,842.705048
538.627071,12361.439231,3552.988522,1149.143247
538.627391,12509.480420,5773.606348,229.828649
538.627712,13175.665768,6217.729913,-919.314598
538.628032,13619.789333,4737.318029,-1149.143247
538.628353,13767.830521,2960.823768,-1072.533697
538.628674,13471.748144,2442.679609,-995.924147
538.628994,13175.665768,2960.823768,-1838.629195
538.629315,13175.665768,4663.297435,-2451.505594
538.629636,12805.562797,5995.668130,-2451.505594
538.629956,11399.171507,5403.503377,-1838.629195
538.630277,11029.068536,5033.400406,-1302.362347
538.630597,9178.553681,4441.235652,-689.485948
538.630918,7550.100608,3775.050304,612.876398
538.631239,7402.059420,3627.009116,536.266849
538.631559,7105.977043,3478.967927,612.876398
538.631880,6661.853478,3849.070898,766.095498
538.632200,7179.997637,5773.606348,689.485948
538.632521,7105.977043,8142.265362,1302.362347
538.632842,6587.832884,7772.162391,76.609550
538.633162,7254.018232,5551.544565,383.047749
538.633483,7846.182985,4145.153275,536.266849
538.633804,7846.182985,3552.988522,1149.143247
538.634124,8216.285956,4219.173869,612.876398
538.634445,9844.739029,4145.153275,-995.924147
538.634765,12213.398043,4663.297435,-1532.190996
538.635086,13101.645173,5551.544565,-1072.533697
538.635407,12731.542202,6143.709319,-919.314598
538.635727,11991.336260,5847.626942,0.000000
538.636048,11917.315666,4737.318029,-229.828649
538.636368,11991.336260,3701.029710,-76.609550
538.636689,11029.068536,3182.885551,-689.485948
538.637010,9992.780217,3775.050304,-1532.190996
538.637330,10362.883188,4811.338623,-2068.457845
538.637651,9770.718434,6513.812290,-1225.752797
538.637972,10140.821405,7698.141797,-1072.533697
538.638292,10288.862594,7846.182985,-1072.533697
538.638613,8734.430116,6883.915261,-153.219100
538.638933,7254.018232,5995.668130,1378.971896
538.639254,6957.935855,5699.585753,2451.505594
538.639575,6513.812290,5847.626942,1915.238745
538.639895,6957.935855,7031.956449,536.266849
538.640216,7328.038826,8068.244768,-383.047749
538.640537,7179.997637,7846.182985,-766.095498
538.640857,7254.018232,6513.812290,459.657299
538.641178,7994.224174,5033.400406,1608.800546
538.641498,8512.368333,4959.379811,1915.238745
538.641819,7994.224174,5551.544565,1685.410096
538.642140,7772.162391,5699.585753,536.266849
538.642460,8734.430116,5033.400406,459.657299
538.642781,10584.944971,4737.318029,153.219100
538.643101,11103.089130,6365.771101,-383.047749
538.643422,10288.862594,7179.997637,-2145.067394
538.643743,10362.883188,7328.038826,-2604.724693
538.644063,10881.027347,6957.935855,-1685.410096
538.644384,11177.109724,5181.441594,0.000000
538.644705,10288.862594,3923.091493,536.266849
538.645025,9252.574275,3108.864956,-153.219100
538.645346,8956.491898,2516.700203,-459.657299
538.645666,9326.594869,1998.556043,76.609550
538.645987,10288.862594,1554.432478,0.000000
538.646308,10881.027347,2072.576638,-766.095498
538.646628,10584.944971,3997.112087,-1608.800546
538.646949,10214.842000,5329.482782,-2374.896044
538.647269,10881.027347,6587.832884,-2298.286494
538.647590,11547.212695,7105.977043,-1532.190996
538.647911,11769.274478,7105.977043,0.000000
538.648231,10288.862594,7179.997637,459.657299
538.648552,8512.368333,7105.977043,766.095498
538.648873,7550.100608,5551.544565,1378.971896
538.649193,7476.080014,4515.256246,2145.067394
538.649514,7328.038826,3552.988522,2374.896044
538.649834,7254.018232,3552.988522,2145.067394
538.650155,7105.977043,3849.070898,689.485948
538.650476,7550.100608,4071.132681,229.828649
538.650796,8512.368333,4515.256246,76.609550
538.651117,9844.739029,5403.503377,0.000000
538.651437,10510.924376,6439.791695,-153.219100
538.651758,11251.130318,7772.162391,-766.095498
538.652079,11399.171507,8660.409521,-689.485948
538.652399,11843.295072,8438.347739,-766.095498
538.652720,11769.274478,7105.977043,-919.314598
538.653041,10807.006753,5329.482782,-306.438199
538.653361,10584.944971,4219.173869,-383.047749
538.653682,10214.842000,3108.864956,-153.219100
538.654002,9918.759623,2590.720797,0.000000
538.654323,9918.759623,2812.782580,536.266849
538.654644,9918.759623,4663.297435,919.314598
538.654964,10066.800811,6439.791695,612.876398
538.655285,9474.636058,7698.141797,919.314598
538.655605,8660.409521,7772.162391,459.657299
538.655926,7550.100608,7328.038826,612.876398
538.656247,6513.812290,7624.121203,383.047749
538.656567,4959.379811,7402.059420,0.000000
538.656888,4367.215058,7402.059420,-306.438199
538.657209,4885.359217,7550.100608,-612.876398
538.657529,4885.359217,7920.203579,-536.266849
538.657850,3701.029710,8142.265362,153.219100
538.658170,4293.194464,8956.491898,1532.190996
538.658491,4589.276840,9622.677246,2757.943793
538.658812,4885.359217,9548.656652,3830.477490
538.659132,5625.565159,8808.450710,3447.429741
538.659453,5551.544565,8142.265362,2681.334243
538.659773,4885.359217,7254.018232,2374.896044
538.660094,5329.482782,7624.121203,3294.210641
538.660415,6439.791695,8512.368333,3217.601092
538.660735,7105.977043,9696.697840,2834.553343
538.661056,7624.121203,10288.862594,2834.553343
538.661377,6957.935855,9548.656652,3677.258390
538.661697,6957.935855,8438.347739,4519.963438
538.662018,7031.956449,7179.997637,5132.839837
538.662338,6809.894666,7105.977043,4519.963438
538.662659,7476.080014,7624.121203,4136.915689
538.662980,7328.038826,8438.347739,4366.744339
538.663300,7254.018232,8882.471304,5209.449386
538.663621,7624.121203,8956.491898,6511.811733
538.663941,7402.059420,9252.574275,7354.516781
538.664262,6365.771101,8290.306550,7660.954980
538.664583,5995.668130,7476.080014,7660.954980
538.664903,5847.626942,6661.853478,7277.907231
538.665224,5181.441594,5773.606348,7048.078582
538.665545,5181.441594,5329.482782,7584.345430
538.665865,5255.462188,6069.688724,6894.859482
538.666186,5403.503377,7105.977043,6665.030833
538.666506,5033.400406,7772.162391,6205.373534
538.666827,4885.359217,7772.162391,6358.592633
538.667148,5033.400406,7328.038826,7201.297681
538.667468,4737.318029,6735.874072,7584.345430
538.667789,4071.132681,6513.812290,7277.907231
538.668110,4367.215058,5921.647536,6894.859482
538.668430,3849.070898,6217.729913,6971.469032
538.668751,3256.906145,6143.709319,6435.202183
538.669071,3627.009116,5329.482782,6358.592633
538.669392,3330.926739,5477.523971,6128.763984
538.669713,3256.906145,5921.647536,6128.763984
538.670033,3627.009116,6365.771101,6818.249932
538.670354,3478.967927,6661.853478,6818.249932
538.670674,3256.906145,6809.894666,6435.202183
538.670995,3849.070898,6957.935855,6358.592633
538.671316,3701.029710,7254.018232,5669.106685
538.671636,3849.070898,7105.977043,4903.011187
538.671957,3627.009116,6069.688724,4903.011187
538.672278,2886.803174,5847.626942,4213.525239
538.672598,2960.823768,5329.482782,4213.525239
538.672919,2738.761985,5255.462188,3677.258390
538.673239,3478.967927,6365.771101,2911.162892
538.673560,4293.194464,8216.285956,2987.772442
538.673881,4737.318029,9104.533087,3524.039291
538.674201,5329.482782,10140.821405,3447.429741
538.674522,5921.647536,10955.047942,3140.991542
538.674842,6217.729913,10881.027347,3753.867940
538.675163,6809.894666,11103.089130,4213.525239
538.675484,5847.626942,11029.068536,5975.544884
538.675804,5477.523971,11029.068536,6128.763984
538.676125,4885.359217,10066.800811,6435.202183
538.676446,3775.050304,8586.388927,6281.983084
538.676766,2812.782580,5773.606348,4826.401637
538.677087,2738.761985,3182.885551,3370.820191
538.677407,3404.947333,2960.823768,1991.848295
538.677728,4293.194464,4515.256246,536.266849
538.678049,6513.812290,8142.265362,-536.266849
538.678369,9474.636058,13027.624579,-995.924147
538.678690,10288.862594,17320.819043,-1838.629195
538.679010,10881.027347,18653.189738,0.000000
538.679331,11103.089130,17987.004391,2604.724693
538.679652,9548.656652,14730.098246,5056.230287
538.679972,7031.956449,9844.739029,7354.516781
538.680293,5995.668130,6809.894666,7431.126331
538.680614,3330.926739,5033.400406,7124.688131
538.680934,0.000000,4959.379811,5822.325785
538.681255,888.247130,5033.400406,4903.011187
538.681575,2960.823768,5181.441594,4060.306139
538.681896,3108.864956,4737.318029,3830.477490
538.682217,4737.318029,6143.709319,4213.525239
538.682537,6587.832884,8512.368333,3524.039291
538.682858,6735.874072,11991.336260,2451.505594
538.683178,6513.812290,14285.974681,2604.724693
538.683499,8512.368333,15322.262999,1072.533697
538.683820,9474.636058,14434.015869,1455.581446
538.684140,6513.812290,11547.212695,3600.648841
538.684461,4515.256246,6587.832884,4979.620737
538.684782,5255.462188,3849.070898,7277.907231
538.685102,666.185348,2812.782580,7201.297681
538.685423,740.205942,4367.215058,4903.011187
538.685743,3034.844362,6069.688724,3753.867940
538.686064,4441.235652,6883.915261,4596.572988
538.686385,3552.988522,5773.606348,7048.078582
538.686705,5847.626942,6291.750507,9269.755526
538.687026,6587.832884,9696.697840,9576.193725
538.687346,3256.906145,13101.645173,7584.345430
538.687667,1554.432478,11547.212695,4136.915689
538.687988,3997.112087,9178.553681,3217.601092
538.688308,4811.338623,5847.626942,4903.011187
538.688629,4367.215058,5773.606348,9193.145976
538.688950,5329.482782,8586.388927,10342.289223
538.689270,1554.432478,10658.965565,6435.202183
538.689591,1332.370696,9548.656652,4596.572988
538.689911,3256.906145,6217.729913,6358.592633
538.690232,4811.338623,3182.885551,7737.564530
538.690553,5477.523971,2812.782580,8733.488677
538.690873,6513.812290,5847.626942,8733.488677
538.691194,5773.606348,9548.656652,6588.421283
538.691515,3923.091493,10140.821405,5056.230287
538.691835,4219.173869,7550.100608,4596.572988
538.692156,4737.318029,5403.503377,4826.401637
538.692476,2812.782580,5403.503377,6588.421283
538.692797,4293.194464,7105.977043,9652.803275
538.693118,6439.791695,10584.944971,9499.584175
538.693438,3478.967927,11917.315666,6358.592633
538.693759,3330.926739,11325.150913,4290.134789
538.694079,4219.173869,11029.068536,3907.087040
538.694400,3849.070898,7550.100608,4979.620737
538.694721,1998.556043,3108.864956,6281.983084
538.695041,5255.462188,1628.453072,7354.516781
538.695362,5625.565159,3997.112087,7431.126331
538.695683,3108.864956,6587.832884,6741.640382
538.696003,2960.823768,7476.080014,4519.963438
538.696324,6069.688724,9474.636058,3753.867940
538.696644,4959.379811,11325.150913,5669.106685
538.696965,5403.503377,10140.821405,7737.564530
538.697286,7624.121203,9400.615463,6205.373534
538.697606,6735.874072,9622.677246,2911.162892
538.697927,2960.823768,7179.997637,689.485948
538.698247,3034.844362,4293.194464,0.000000
538.698568,6809.894666,6291.750507,2911.162892
538.698889,5181.441594,9474.636058,6511.811733
538.699209,3552.988522,10140.821405,5669.106685
538.699530,5477.523971,10658.965565,2911.162892
538.699851,5107.421000,11473.192101,2451.505594
538.700171,3404.947333,9992.780217,4749.792088
538.700492,5403.503377,9030.512492,5209.449386
538.700812,5699.585753,9104.533087,4366.744339
538.701133,3034.844362,9696.697840,4903.011187
538.701454,4219.173869,10288.862594,5286.058936
538.701774,6143.709319,10955.047942,4366.744339
538.702095,4589.276840,11029.068536,3983.696590
538.702415,3775.050304,9474.636058,4903.011187
538.702736,5847.626942,7179.997637,4519.963438
538.703057,5921.647536,6143.709319,4903.011187
538.703377,4737.318029,6735.874072,4903.011187
538.703698,5107.421000,7920.203579,2451.505594
538.704019,6661.853478,8882.471304,1455.581446
538.704339,7698.141797,10510.924376,3677.258390
538.704660,8586.388927,9992.780217,5439.278036
538.704980,9104.533087,8586.388927,3907.087040
538.705301,6661.853478,8290.306550,2681.334243
538.705622,4589.276840,8956.491898,3447.429741
538.705942,4811.338623,7994.224174,4596.572988
538.706263,6513.812290,7105.977043,4826.401637
538.706583,5625.565159,6809.894666,4290.134789
538.706904,2886.803174,6661.853478,3983.696590
538.707225,1110.308913,6735.874072,4519.963438
538.707545,1480.411884,7550.100608,4826.401637
538.707866,1628.453072,7402.059420,4673.182538
538.708187,3775.050304,7698.141797,3524.039291
538.708507,4959.379811,9918.759623,2834.553343
538.708828,4219.173869,13545.768739,4136.915689
538.709148,2886.803174,13619.789333,5592.497135
538.709469,2960.823768,9104.533087,4136.915689
538.709790,2960.823768,3997.112087,2374.896044
538.710110,4589.276840,3775.050304,3907.087040
538.710431,4959.379811,6291.750507,5439.278036
538.710751,4737.318029,7402.059420,3983.696590
538.711072,4145.153275,8364.327145,1455.581446
538.711393,5921.647536,7550.100608,1608.800546
538.711713,7179.997637,5181.441594,4903.011187
538.712034,8068.244768,5033.400406,7737.564530
538.712355,6883.915261,6365.771101,6052.154434
538.712675,5107.421000,5625.565159,1532.190996
538.712996,5181.441594,4515.256246,-536.266849
538.713316,6587.832884,4589.276840,2298.286494
538.713637,8808.450710,7402.059420,4519.963438
538.713958,7698.141797,10362.883188,3064.381992
538.714278,4293.194464,9992.780217,-1685.410096
538.714599,1924.535449,6587.832884,-1378.971896
538.714919,3552.988522,4219.173869,2451.505594
538.715240,5551.544565,5773.606348,4903.011187
538.715561,2590.720797,8290.306550,2374.896044
538.715881,1258.350101,9696.697840,-1455.581446
538.716202,2812.782580,8808.450710,-2298.286494
538.716523,4367.215058,10140.821405,1762.019645
538.716843,4737.318029,10732.986159,5439.278036
538.717164,4145.153275,10510.924376,2911.162892
538.717484,2442.679609,9326.594869,-995.924147
538.717805,2368.659014,10140.821405,842.705048
538.718126,4663.297435,9252.574275,3907.087040
538.718446,5403.503377,8586.388927,4060.306139
538.718767,3478.967927,8142.265362,2911.162892
538.719087,2516.700203,8512.368333,612.876398
538.719408,3701.029710,7624.121203,-459.657299
538.719729,4959.379811,6735.874072,76.609550
538.720049,6513.812290,6809.894666,689.485948
538.720370,7254.018232,8586.388927,0.000000
538.720690,5847.626942,10066.800811,-1608.800546
538.721011,7031.956449,10362.883188,-1991.848295
538.721332,9548.656652,10140.821405,-766.095498
538.721652,10140.821405,9178.553681,0.000000
538.721973,6883.915261,8142.265362,-1608.800546
538.722293,5773.606348,7476.080014,-2221.676944
538.722614,7624.121203,7846.182985,-1149.143247
538.722935,6957.935855,6661.853478,459.657299
538.723255,6217.729913,5551.544565,-612.876398
538.723576,5107.421000,7994.224174,-2528.115143
538.723896,3997.112087,9178.553681,-766.095498
538.724217,3478.967927,7698.141797,229.828649
538.724538,6291.750507,6661.853478,-229.828649
538.724858,5847.626942,7328.038826,-1378.971896
538.725179,4145.153275,8364.327145,-1608.800546
538.725499,5033.400406,10584.944971,-1762.019645
538.725820,6513.812290,12657.521608,-766.095498
538.726141,5329.482782,11843.295072,-383.047749
538.726461,4811.338623,9770.718434,0.000000
538.726782,5107.421000,8956.491898,1762.019645
538.727102,2960.823768,8438.347739,2987.772442
538.727423,2368.659014,6217.729913,1838.629195
538.727744,3330.926739,4145.153275,-1838.629195
538.728064,3404.947333,3923.091493,-1455.581446
538.728385,4441.235652,6439.791695,612.876398
538.728705,6587.832884,8290.306550,383.047749
538.729026,6217.729913,7920.203579,-1455.581446
538.729347,6439.791695,7994.224174,-2145.067394
538.729667,7476.080014,8364.327145,-1685.410096
538.729988,6513.812290,8068.244768,-1149.143247
538.730308,6809.894666,7698.141797,-766.095498
538.730629,7254.018232,8438.347739,-2221.676944
538.730950,7846.182985,9400.615463,-2451.505594
538.731270,6143.709319,9844.739029,-2145.067394
538.731591,4737.318029,8660.409521,-1762.019645
538.731911,5329.482782,5773.606348,-995.924147
538.732232,4885.359217,4441.235652,1455.581446
538.732553,4515.256246,4811.338623,2451.505594
538.732873,3108.864956,5773.606348,1149.143247
538.733194,2072.576638,5625.565159,-919.314598
538.733514,2812.782580,6957.935855,-1915.238745
538.733835,5551.544565,10140.821405,-612.876398
538.734156,5477.523971,12731.542202,1685.410096
538.734476,4145.153275,11547.212695,536.266849
538.734797,5107.421000,10362.883188,-766.095498
538.735117,3552.988522,9844.739029,229.828649
538.735438,1702.473667,8142.265362,2145.067394
538.735759,3108.864956,7105.977043,1991.848295
538.736079,3701.029710,6957.935855,-842.705048
538.736400,2516.700203,6661.853478,-2221.676944
538.736720,3701.029710,5699.585753,-2221.676944
538.737041,5329.482782,5329.482782,-1991.848295
538.737362,6439.791695,6217.729913,-153.219100
538.737682,6513.812290,7994.224174,-1455.581446
538.738003,7402.059420,9622.677246,-3677.258390
538.738323,6513.812290,9474.636058,-2757.943793
538.738644,8068.244768,9030.512492,459.657299
538.738965,9030.512492,9326.594869,919.314598
538.739285,8142.265362,9474.636058,-1378.971896
538.739606,5847.626942,9178.553681,-3370.820191
538.739926,5773.606348,8956.491898,-2451.505594
538.740247,5847.626942,6735.874072,306.438199
538.740567,4811.338623,4515.256246,1915.238745
538.740888,4589.276840,3849.070898,536.266849
538.741209,4589.276840,5551.544565,-842.705048
538.741529,4737.318029,8586.388927,-1685.410096
538.741850,5033.400406,9252.574275,-2298.286494
538.742170,6661.853478,8734.430116,-1455.581446
538.742491,7698.141797,9104.533087,306.438199
538.742812,7105.977043,11177.109724,1685.410096
538.743132,5921.647536,11473.192101,1685.410096
538.743453,4737.318029,10362.883188,-306.438199
538.743773,4663.297435,8512.368333,-2145.067394
538.744094,4293.194464,6587.832884,-995.924147
538.744415,3108.864956,4663.297435,0.000000
538.744735,3701.029710,5107.421000,-919.314598
538.745056,4959.379811,6365.771101,-2068.457845
538.745376,4737.318029,7179.997637,-1608.800546
538.745697,5625.565159,8512.368333,-766.095498
538.746018,6291.750507,9030.512492,-689.485948
538.746338,5625.565159,9030.512492,-919.314598
538.746659,5847.626942,7772.162391,-995.924147
538.746979,6365.771101,8290.306550,-1838.629195
538.747300,5699.585753,8364.327145,-1302.362347
538.747621,3552.988522,7402.059420,-1455.581446
538.747941,5033.400406,7772.162391,-2145.067394
538.748262,5255.462188,9178.553681,-1608.800546
538.748582,2516.700203,9252.574275,-1762.019645
538.748903,3552.988522,6809.894666,-1608.800546
538.749224,4811.338623,5329.482782,-995.924147
538.749544,3552.988522,5033.400406,612.876398
538.749865,3775.050304,5921.647536,153.219100
538.750185,4441.235652,7179.997637,-2987.772442
538.750506,3552.988522,8068.244768,-3907.087040
538.750827,5255.462188,8808.450710,-1838.629195
538.751147,7402.059420,9252.574275,0.000000
538.751468,7328.038826,10288.862594,-383.047749
538.751788,5329.482782,10140.821405,-1072.533697
538.752109,5255.462188,10732.986159,-1915.238745
538.752430,4959.379811,9696.697840,-1685.410096
538.752750,3923.091493,7328.038826,-1225.752797
538.753071,4663.297435,5403.503377,-229.828649
538.753391,5847.626942,5551.544565,-229.828649
538.753712,5033.400406,6809.894666,-842.705048
538.754033,5847.626942,8808.450710,-2145.067394
538.754353,6439.791695,9326.594869,-2451.505594
538.754674,6513.812290,8216.285956,-995.924147
538.754994,7328.038826,8660.409521,0.000000
538.755315,6957.935855,8956.491898,306.438199
538.755636,5921.647536,10214.842000,0.000000
538.755956,6143.709319,11695.253884,0.000000
538.756277,6365.771101,10807.006753,0.000000
538.756597,4145.153275,8660.409521,536.266849
538.756918,4885.359217,8438.347739,536.266849
538.757239,4145.153275,7994.224174,536.266849
538.757559,2664.741391,7031.956449,612.876398
538.757880,3256.906145,6439.791695,919.314598
538.758200,3849.070898,6513.812290,0.000000
538.758521,2664.741391,5995.668130,-689.485948
538.758842,3627.009116,7031.956449,-306.438199
538.759162,5107.421000,7994.224174,-919.314598
538.759483,4441.235652,9622.677246,-689.485948
538.759803,6439.791695,11325.150913,0.000000
538.760124,6661.853478,10881.027347,-1225.752797
538.760445,4441.235652,8660.409521,-1302.362347
538.760765,5773.606348,9104.533087,1225.752797
538.761086,6291.750507,9326.594869,1762.019645
538.761406,3701.029710,7476.080014,306.438199
538.761727,2368.659014,5181.441594,0.000000
538.762048,3552.988522,3182.885551,229.828649
538.762368,3775.050304,3330.926739,1378.971896
538.762689,3701.029710,5329.482782,1455.581446
538.763009,4515.256246,6883.915261,-1378.971896
538.763330,5255.462188,7698.141797,-3370.820191
538.763651,5625.565159,9178.553681,-1302.362347
538.763971,6735.874072,9400.615463,1072.533697
538.764292,7328.038826,9400.615463,1685.410096
538.764612,6069.688724,9400.615463,0.000000
538.764933,3330.926739,7105.977043,-1915.238745
538.765254,4071.132681,6365.771101,-1149.143247
538.765574,5551.544565,6587.832884,1378.971896
538.765895,5477.523971,7105.977043,842.705048
538.766215,3256.906145,7105.977043,-2145.067394
538.766536,2886.803174,7031.956449,-2911.162892
538.766857,3775.050304,7105.977043,-153.219100
538.767177,5107.421000,6217.729913,2451.505594
538.767498,5625.565159,6365.771101,1225.752797
538.767818,5477.523971,8142.265362,-1685.410096
538.768139,5107.421000,11399.171507,-2221.676944
538.768460,5625.565159,12879.583391,459.657299
538.768780,7846.182985,11695.253884,1685.410096
538.769101,7402.059420,9548.656652,1149.143247
538.769421,4737.318029,7920.203579,-306.438199
538.769742,4071.132681,8364.327145,-536.266849
538.770062,3627.009116,7994.224174,-153.219100
538.770383,3627.009116,5921.647536,-306.438199
538.770704,5477.523971,5625.565159,76.609550
538.771024,6439.791695,7698.141797,842.705048
538.771345,4219.173869,10214.842000,229.828649
538.771665,3997.112087,9548.656652,-612.876398
538.771986,6069.688724,9178.553681,-1838.629195
538.772307,6439.791695,9326.594869,-1685.410096
538.772627,5477.523971,8882.471304,153.219100
538.772948,5847.626942,9104.533087,-383.047749
538.773268,6291.750507,10584.944971,-1455.581446
538.773589,4441.235652,10732.986159,-1149.143247
538.773910,3627.009116,9992.780217,-536.266849
538.774230,4515.256246,9178.553681,0.000000
538.774551,3997.112087,7105.977043,1149.143247
538.774871,3552.988522,5107.421000,383.047749
538.775192,4885.359217,5995.668130,-536.266849
538.775513,3997.112087,8068.244768,-995.924147
538.775833,2960.823768,8290.306550,-766.095498
538.776154,4737.318029,7994.224174,-1532.190996
538.776474,5699.585753,7698.141797,-919.314598
538.776795,5329.482782,8808.450710,1378.971896
538.777116,5033.400406,9400.615463,1302.362347
538.777436,5107.421000,9474.636058,-1225.752797
538.777757,5181.441594,9844.739029,-1302.362347
538.778077,5477.523971,8882.471304,-612.876398
538.778398,5403.503377,7031.956449,153.219100
538.778719,4071.132681,5847.626942,459.657299
538.779039,3849.070898,6291.750507,612.876398
538.779360,3552.988522,5773.606348,-229.828649
538.779680,3997.112087,5477.523971,-612.876398
538.780001,4885.359217,7179.997637,-306.438199
538.780322,4367.215058,7402.059420,-306.438199
538.780642,4885.359217,8290.306550,-612.876398
538.780963,5625.565159,9844.739029,-459.657299
538.781283,5329.482782,10362.883188,-995.924147
538.781604,4885.359217,9474.636058,-1072.533697
538.781925,5773.606348,9104.533087,-229.828649
538.782245,5847.626942,9474.636058,1685.410096
538.782566,6883.915261,11029.068536,3140.991542
538.782886,5403.503377,10436.903782,1225.752797
538.783207,3627.009116,9326.594869,0.000000
538.783528,4145.153275,7105.977043,2068.457845
538.783848,5921.647536,5773.606348,4060.306139
538.784169,4589.276840,5033.400406,3447.429741
538.784489,3701.029710,6291.750507,536.266849
538.784810,2516.700203,5921.647536,-995.924147
538.785131,3923.091493,5625.565159,306.438199
538.785451,6513.812290,8512.368333,2451.505594
538.785772,7179.997637,12139.377449,1302.362347
538.786092,6143.709319,12879.583391,-1378.971896
538.786413,5033.400406,10732.986159,-1608.800546
538.786734,5181.441594,9178.553681,2145.067394
538.787054,6365.771101,7846.182985,4903.011187
538.787375,4293.194464,5921.647536,2911.162892
538.787695,2294.638420,5181.441594,-1685.410096
538.788016,2294.638420,6513.812290,-1685.410096
538.788337,2812.782580,6587.832884,612.876398
538.788657,4959.379811,5921.647536,842.705048
538.788978,5699.585753,5403.503377,536.266849
538.789298,4367.215058,7994.224174,-229.828649
538.789619,4145.153275,11029.068536,-536.266849
538.789940,5403.503377,11399.171507,-383.047749
538.790260,6217.729913,9844.739029,536.266849
538.790581,7179.997637,7994.224174,1991.848295
538.790901,5551.544565,7550.100608,2451.505594
538.791222,3108.864956,8216.285956,1302.362347
538.791543,2886.803174,8364.327145,0.000000
538.791863,3849.070898,7105.977043,0.000000
538.792184,3775.050304,5255.462188,306.438199
538.792504,4589.276840,5773.606348,1915.238745
538.792825,4663.297435,6957.935855,1838.629195
538.793146,3256.906145,6143.709319,766.095498
538.793466,4145.153275,5181.441594,-919.314598
538.793787,5847.626942,7031.956449,-1302.362347
538.794107,4959.379811,7920.203579,-919.314598
538.794428,5847.626942,8734.430116,-1762.019645
538.794749,8512.368333,10658.965565,-2451.505594
538.795069,6587.832884,11769.274478,-1378.971896
538.795390,6291.750507,11399.171507,383.047749
538.795710,6365.771101,9178.553681,-919.314598
538.796031,5181.441594,6809.894666,-2221.676944
538.796352,3923.091493,6069.688724,-1455.581446
538.796672,5403.503377,6439.791695,-612.876398
538.796993,5551.544565,6513.812290,-612.876398
538.797313,5403.503377,7846.182985,-689.485948
538.797634,5773.606348,8956.491898,-536.266849
538.797955,6069.688724,9696.697840,-766.095498
538.798275,5107.421000,9622.677246,612.876398
538.798596,5551.544565,9992.780217,2528.115143
538.798916,6661.853478,9474.636058,919.314598
538.799237,4663.297435,8290.306550,-229.828649
538.799558,3775.050304,8068.244768,1149.143247
538.799878,4959.379811,9030.512492,2298.286494
538.800199,5255.462188,9696.697840,2451.505594
538.800519,3108.864956,8142.265362,-1225.752797
538.800840,3478.967927,7031.956449,-2145.067394
538.801160,5329.482782,8216.285956,229.828649
538.801481,5551.544565,8512.368333,2221.676944
538.801802,3182.885551,6069.688724,-306.438199
538.802122,4367.215058,5551.544565,-3600.648841
538.802443,5921.647536,9400.615463,-3140.991542
538.802763,5033.400406,10436.903782,-842.705048
538.803084,7179.997637,10732.986159,-919.314598
538.803405,8290.306550,12065.356855,-2068.457845
538.803725,7328.038826,11473.192101,-995.924147
538.804046,5847.626942,9474.636058,1685.410096
538.804366,5773.606348,7105.977043,1991.848295
538.804687,3108.864956,4959.379811,1072.533697
538.805008,2368.659014,4663.297435,1149.143247
538.805328,4959.379811,5181.441594,1455.581446
538.805649,4589.276840,6365.771101,689.485948
538.805969,3923.091493,6513.812290,383.047749
538.806290,5255.462188,6587.832884,229.828649
538.806611,3997.112087,6735.874072,153.219100
538.806931,3330.926739,7846.182985,1532.190996
538.807252,5033.400406,8216.285956,1225.752797
538.807572,6143.709319,7994.224174,-612.876398
538.807893,5033.400406,8586.388927,-995.924147
538.808214,5329.482782,9548.656652,-306.438199
538.808534,4663.297435,7624.121203,-1072.533697
538.808855,4515.256246,7402.059420,-1532.190996
538.809175,4811.338623,7624.121203,-2068.457845
538.809496,5107.421000,7328.038826,-919.314598
538.809817,4589.276840,7179.997637,1915.238745
538.810137,4441.235652,6587.832884,2068.457845
538.810458,4367.215058,7105.977043,536.266849
538.810778,4441.235652,7402.059420,-689.485948
538.811099,3627.009116,7254.018232,-995.924147
538.811420,3404.947333,7550.100608,-1455.581446
538.811740,5255.462188,8364.327145,-1072.533697
538.812061,5773.606348,9030.512492,-383.047749
538.812381,6291.750507,9696.697840,153.219100
538.812702,6069.688724,12435.459826,1149.143247
538.813023,4737.318029,13101.645173,919.314598
538.813343,3701.029710,8438.347739,-536.266849
538.813664,4959.379811,5403.503377,-153.219100
538.813984,4959.379811,5181.441594,1455.581446
538.814305,4885.359217,5921.647536,1302.362347
538.814626,4737.318029,6513.812290,-1608.800546
538.814946,4367.215058,6735.874072,-2451.505594
538.815267,5699.585753,7846.182985,0.000000
538.815587,6809.894666,8586.388927,1608.800546
538.815908,6143.709319,8882.471304,0.000000
538.816229,5255.462188,8660.409521,-995.924147
538.816549,7179.997637,9252.574275,-1915.238745
538.816870,7254.018232,9474.636058,-1915.238745
538.817190,5033.400406,9474.636058,-1838.629195
538.817511,6143.709319,10288.862594,-1608.800546
538.817832,7328.038826,10066.800811,-1685.410096
538.818152,4441.235652,8512.368333,-459.657299
538.818473,3108.864956,6587.832884,-1302.362347
538.818793,5033.400406,6735.874072,-1455.581446
538.819114,4071.132681,6957.935855,-766.095498
538.819435,3997.112087,6883.915261,0.000000
538.819755,6217.729913,9326.594869,-459.657299
538.820076,6069.688724,10140.821405,-306.438199
538.820396,4737.318029,9178.553681,842.705048
538.820717,6217.729913,8512.368333,2145.067394
538.821037,6143.709319,9474.636058,2068.457845
538.821358,3997.112087,8512.368333,1762.019645
538.821678,4589.276840,6809.894666,-689.485948
538.821999,4589.276840,5403.503377,-2145.067394
538.822320,2664.741391,4737.318029,-612.876398
538.822640,4663.297435,6809.894666,536.266849
538.822961,6291.750507,8956.491898,-1532.190996
538.823281,5181.441594,9622.677246,-2528.115143
538.823602,4811.338623,9400.615463,-1072.533697
538.823922,7402.059420,8142.265362,-459.657299
538.824243,5847.626942,7772.162391,919.314598
538.824563,4885.359217,7920.203579,1302.362347
538.824884,6513.812290,8290.306550,-2221.676944
538.825204,5773.606348,9326.594869,-2604.724693
538.825525,4663.297435,8882.471304,0.000000
538.825845,5329.482782,7402.059420,842.705048
538.826166,4737.318029,6143.709319,0.000000
538.826486,3256.906145,6291.750507,0.000000
538.826807,3256.906145,7624.121203,842.705048
538.827128,4293.194464,7772.162391,612.876398
538.827448,3701.029710,6291.750507,919.314598
538.827769,4737.318029,7402.059420,1225.752797
538.828089,5033.400406,9992.780217,1149.143247
538.828410,2960.823768,9992.780217,-153.219100
538.828730,3849.070898,8808.450710,-1149.143247
538.829051,5921.647536,7402.059420,-919.314598
538.829371,4737.318029,6735.874072,842.705048
538.829692,3849.070898,7328.038826,1532.190996
538.830012,5107.421000,9178.553681,-459.657299
538.830333,4145.153275,9326.594869,-1838.629195
538.830653,5033.400406,7772.162391,-2068.457845
538.830974,6661.853478,6809.894666,-306.438199
538.831294,6291.750507,6957.935855,1302.362347
538.831615,4959.379811,6661.853478,1455.581446
538.831936,5551.544565,6069.688724,-2374.896044
538.832256,5329.482782,7105.977043,-3753.867940
538.832577,5699.585753,8956.491898,-1915.238745
538.832897,5847.626942,9178.553681,-1072.533697
538.833218,6587.832884,8290.306550,-689.485948
538.833538,6587.832884,9326.594869,689.485948
538.833859,5847.626942,8734.430116,-229.828649
538.834179,3923.091493,7105.977043,-1455.581446
538.834500,3849.070898,6883.915261,-2145.067394
538.834820,6291.750507,7994.224174,-766.095498
538.835141,6513.812290,9992.780217,536.266849
538.835461,5773.606348,10732.986159,229.828649
538.835782,4737.318029,9770.718434,-1225.752797
538.836102,3478.967927,7550.100608,-995.924147
538.836423,4219.173869,4811.338623,536.266849
538.836744,5329.482782,6069.688724,995.924147
538.837064,5033.400406,8142.265362,-306.438199
538.837385,4293.194464,9400.615463,-2451.505594
538.837705,4959.379811,9104.533087,-2145.067394
538.838026,7105.977043,9622.677246,0.000000
538.838346,7328.038826,11251.130318,2451.505594
538.838667,5551.544565,9326.594869,-612.876398
538.838987,4737.318029,7105.977043,-4366.744339
538.839308,4589.276840,6069.688724,-2221.676944
538.839628,5033.400406,7105.977043,1915.238745
538.839949,5847.626942,8438.347739,1455.581446
538.840269,5403.503377,9992.780217,-1991.848295
538.840590,4515.256246,11695.253884,-3294.210641
538.840910,4737.318029,11029.068536,-1149.143247
538.841231,4737.318029,7920.203579,919.314598
538.841552,3330.926739,4515.256246,2068.457845
538.841872,3849.070898,5255.462188,1455.581446
538.842193,2516.700203,7105.977043,-995.924147
538.842513,2368.659014,8956.491898,-2451.505594
538.842834,4589.276840,9844.739029,-1838.629195
538.843154,6957.935855,10140.821405,536.266849
538.843475,5181.441594,9326.594869,1762.019645
538.843795,4293.194464,9252.574275,1532.190996
538.844116,4515.256246,9474.636058,919.314598
538.844436,3701.029710,7920.203579,153.219100
538.844757,4219.173869,6513.812290,306.438199
538.845077,5255.462188,6587.832884,153.219100
538.845398,4071.132681,8364.327145,306.438199
538.845718,4663.297435,9770.718434,842.705048
538.846039,5477.523971,8660.409521,766.095498
538.846360,4959.379811,5181.441594,-153.219100
538.846680,5255.462188,4737.318029,153.219100
538.847001,5181.441594,7031.956449,0.000000
538.847321,4885.359217,7698.141797,-919.314598
538.847642,5625.565159,7624.121203,-1225.752797
538.847962,7624.121203,8364.327145,-1225.752797
538.848283,6069.688724,7550.100608,76.609550
538.848603,4811.338623,7105.977043,-536.266849
538.848924,5625.565159,7105.977043,-1302.362347
538.849244,6365.771101,8068.244768,-229.828649
538.849565,6365.771101,8956.491898,0.000000
538.849885,5255.462188,7772.162391,-919.314598
538.850206,4145.153275,5477.523971,-995.924147
538.850526,3997.112087,5255.462188,1532.190996
538.850847,5329.482782,6365.771101,1991.848295
538.851168,4071.132681,6957.935855,-689.485948
538.851488,3478.967927,6661.853478,-2451.505594
538.851809,5403.503377,7772.162391,-1225.752797
538.852129,6439.791695,9770.718434,995.924147
538.852450,5551.544565,11547.212695,1532.190996
538.852770,5329.482782,11621.233289,-995.924147
538.853091,3997.112087,9474.636058,-2911.162892
538.853411,3182.885551,6439.791695,-1302.362347
538.853732,4885.359217,7105.977043,689.485948
538.854052,4885.359217,9770.718434,919.314598
538.854373,2812.782580,10140.821405,-1149.143247
538.854693,3108.864956,9400.615463,-2757.943793
538.855014,5477.523971,8512.368333,-612.876398
538.855334,4663.297435,7402.059420,2068.457845
538.855655,4441.235652,6587.832884,2757.943793
538.855975,4959.379811,7254.018232,-1072.533697
538.856296,3997.112087,8438.347739,-3217.601092
538.856617,5847.626942,9474.636058,-1685.410096
538.856937,9474.636058,11547.212695,76.609550
538.857258,7846.182985,11251.130318,612.876398
538.857578,5699.585753,10362.883188,229.828649
538.857899,5921.647536,9252.574275,-612.876398
538.858219,5329.482782,8068.244768,-766.095498
538.858540,5033.400406,6587.832884,1608.800546
538.858860,4811.338623,4885.359217,536.266849
538.859181,4441.235652,5033.400406,-1225.752797
538.859501,3552.988522,6809.894666,-536.266849
538.859822,3701.029710,8290.306550,-1072.533697
538.860142,5551.544565,7698.141797,-1838.629195
538.860463,5625.565159,7624.121203,76.609550
538.860783,6217.729913,9104.533087,842.705048
538.861104,7254.018232,10584.944971,612.876398
538.861425,6291.750507,10732.986159,0.000000
538.861745,4589.276840,9178.553681,-383.047749
538.862066,5181.441594,7920.203579,766.095498
538.862386,6217.729913,8216.285956,2451.505594
538.862707,4145.153275,7920.203579,2298.286494
538.863027,2442.679609,6513.812290,-766.095498
538.863348,2886.803174,5033.400406,-2451.505594
538.863668,3627.009116,5403.503377,1072.533697
538.863989,3775.050304,7105.977043,3753.867940
538.864309,4441.235652,7402.059420,1685.410096
538.864630,3627.009116,5625.565159,-2451.505594
538.864950,3923.091493,6661.853478,-2987.772442
538.865271,5773.606348,9622.677246,612.876398
538.865591,7772.162391,11843.295072,2604.724693
538.865912,7994.224174,11769.274478,459.657299
538.866233,6513.812290,10732.986159,-1455.581446
538.866553,5847.626942,9992.780217,689.485948
538.866874,5107.421000,8216.285956,3983.696590
538.867194,4441.235652,5995.668130,3600.648841
538.867515,2368.659014,3478.967927,-229.828649
538.867835,2294.638420,2294.638420,-2221.676944
538.868156,4219.173869,4219.173869,-229.828649
538.868476,4959.379811,7920.203579,2451.505594
538.868797,5477.523971,10510.924376,2298.286494
538.869117,5181.441594,11843.295072,-383.047749
538.869438,5255.462188,11547.212695,-2068.457845
538.869758,4663.297435,9030.512492,229.828649
538.870079,5107.421000,6291.750507,1838.629195
538.870399,6587.832884,6513.812290,689.485948
538.870720,4145.153275,7698.141797,-689.485948
538.871041,2960.823768,9844.739029,-1225.752797
538.871361,5403.503377,10807.006753,0.000000
538.871682,6365.771101,9918.759623,1302.362347
538.872002,3775.050304,6513.812290,1149.143247
538.872323,3775.050304,3775.050304,0.000000
538.872643,4071.132681,2738.761985,306.438199
