#time,accel_x,accel_y,accel_z
579.643409,5033.400406,7994.224174,-153.219100
579.643729,4885.359217,8216.285956,-383.047749
579.644050,5255.462188,7920.203579,383.047749
579.644370,5033.400406,8216.285956,0.000000
579.644691,4885.359217,8142.265362,229.828649
579.645011,4811.338623,7994.224174,-383.047749
579.645331,4959.379811,8142.265362,-306.438199
579.645652,4885.359217,8216.285956,0.000000
579.645972,4959.379811,8142.265362,0.000000
579.646292,4959.379811,7994.224174,-153.219100
579.646613,4885.359217,8068.244768,-229.828649
579.646933,5033.400406,7994.224174,0.000000
579.647253,4959.379811,7772.162391,-153.219100
579.647574,4811.338623,8512.368333,0.000000
579.647894,5255.462188,7994.224174,-153.219100
579.648215,4959.379811,8142.265362,-306.438199
579.648535,4959.379811,8142.265362,0.000000
579.648855,4959.379811,7920.203579,0.000000
579.649176,4885.359217,8290.306550,153.219100
579.649496,5033.400406,7994.224174,-76.609550
579.649816,5255.462188,7994.224174,-229.828649
579.650137,4959.379811,7994.224174,0.000000
579.650457,4959.379811,7994.224174,-459.657299
579.650778,5033.400406,8068.244768,-459.657299
579.651098,5033.400406,7624.121203,76.609550
579.651418,5033.400406,7994.224174,0.000000
579.651739,4885.359217,7994.224174,-229.828649
579.652059,5107.421000,7698.141797,0.000000
579.652379,4811.338623,7920.203579,-76.609550
579.652700,4959.379811,7772.162391,-229.828649
579.653020,5181.441594,7994.224174,0.000000
579.653340,4885.359217,8216.285956,0.000000
579.653661,4959.379811,8290.306550,689.485948
579.653981,4959.379811,7846.182985,76.609550
579.654302,4811.338623,7624.121203,-229.828649
579.654622,4515.256246,7254.018232,-383.047749
579.654942,4145.153275,7698.141797,-306.438199
579.655263,4441.235652,9104.533087,-306.438199
579.655583,4737.318029,9474.636058,-919.314598
579.655903,4811.338623,9622.677246,-1302.362347
579.656224,4737.318029,9474.636058,-1302.362347
579.656544,4071.132681,8808.450710,-842.705048
579.656865,2886.803174,8734.430116,612.876398
579.657185,3034.844362,9178.553681,766.095498
579.657505,2590.720797,9326.594869,612.876398
579.657826,2368.659014,9030.512492,229.828649
579.658146,2442.679609,8290.306550,-76.609550
579.658466,2886.803174,8586.388927,-536.266849
579.658787,3182.885551,9474.636058,-306.438199
579.659107,2886.803174,9474.636058,229.828649
579.659428,2516.700203,9252.574275,383.047749
579.659748,2220.617826,8956.491898,229.828649
579.660068,2368.659014,9548.656652,0.000000
579.660389,1924.535449,11103.089130,-766.095498
579.660709,1480.411884,11991.336260,-1302.362347
579.661029,1332.370696,11843.295072,-1608.800546
579.661350,814.226536,11473.192101,-1149.143247
579.661670,148.041188,11325.150913,-1378.971896
579.661990,-296.082377,11547.212695,-1072.533697
579.662311,-1554.432478,12509.480420,0.000000
579.662631,-1850.514855,12953.603985,383.047749
579.662952,-1850.514855,12139.377449,766.095498
579.663272,-962.267725,11547.212695,1455.581446
579.663592,-888.247130,12139.377449,1915.238745
579.663913,-2072.576638,12435.459826,1378.971896
579.664233,-2664.741391,11177.109724,0.000000
579.664553,-1554.432478,9992.780217,-1149.143247
579.664874,-1110.308913,9548.656652,0.000000
579.665194,-370.102971,9622.677246,1149.143247
579.665515,0.000000,10362.883188,766.095498
579.665835,740.205942,11029.068536,-229.828649
579.666155,962.267725,11695.253884,-1532.190996
579.666476,1480.411884,10955.047942,-1149.143247
579.666796,2738.761985,10214.842000,-383.047749
579.667116,3256.906145,10362.883188,153.219100
579.667437,2516.700203,10362.883188,-995.924147
579.667757,1702.473667,9622.677246,-2604.724693
579.668077,1776.494261,9548.656652,-2451.505594
579.668398,1850.514855,9696.697840,-1225.752797
579.668718,1850.514855,9474.636058,153.219100
579.669039,1850.514855,9992.780217,0.000000
579.669359,1110.308913,10732.986159,-612.876398
579.669679,74.020594,11251.130318,-306.438199
579.670000,0.000000,10584.944971,766.095498
579.670320,0.000000,9992.780217,995.924147
579.670640,0.000000,9696.697840,919.314598
579.670961,0.000000,9844.739029,766.095498
579.671281,-592.164754,10510.924376,842.705048
579.671602,-666.185348,11103.089130,612.876398
579.671922,444.123565,11399.171507,919.314598
579.672242,1628.453072,11399.171507,995.924147
579.672563,1850.514855,11473.192101,0.000000
579.672883,1406.391290,11177.109724,-995.924147
579.673203,1406.391290,10510.924376,-1455.581446
579.673524,1036.288319,9992.780217,-459.657299
579.673844,1554.432478,9178.553681,76.609550
579.674165,1776.494261,8586.388927,612.876398
579.674485,2072.576638,9474.636058,612.876398
579.674805,1998.556043,10510.924376,76.609550
579.675126,2146.597232,11103.089130,0.000000
579.675446,2590.720797,10214.842000,-766.095498
579.675766,3108.864956,9844.739029,-689.485948
579.676087,3256.906145,9622.677246,-536.266849
579.676407,3034.844362,9178.553681,-1225.752797
579.676727,2590.720797,9918.759623,-842.705048
579.677048,1924.535449,10288.862594,-383.047749
579.677368,1406.391290,10955.047942,0.000000
579.677689,1480.411884,11547.212695,76.609550
579.678009,740.205942,11177.109724,-1532.190996
579.678329,814.226536,10584.944971,-2911.162892
579.678650,-814.226536,9770.718434,-2145.067394
579.678970,-1850.514855,8808.450710,-689.485948
579.679290,-1776.494261,9030.512492,1608.800546
579.679611,-592.164754,10584.944971,2528.115143
579.679931,-148.041188,12953.603985,1915.238745
579.680252,74.020594,13989.892304,1072.533697
579.680572,148.041188,13471.748144,306.438199
579.680892,814.226536,12287.418637,-306.438199
579.681213,1406.391290,11029.068536,76.609550
579.681533,1258.350101,9622.677246,0.000000
579.681853,74.020594,9104.533087,-919.314598
579.682174,-888.247130,8808.450710,-1455.581446
579.682494,-2072.576638,9844.739029,-1762.019645
579.682814,-2294.638420,10807.006753,-1149.143247
579.683135,-370.102971,11547.212695,0.000000
579.683455,1184.329507,12879.583391,536.266849
579.683776,1332.370696,13915.871710,76.609550
579.684096,148.041188,14063.912898,-689.485948
579.684416,74.020594,13545.768739,-689.485948
579.684737,814.226536,12435.459826,-612.876398
579.685057,1036.288319,9992.780217,0.000000
579.685377,1628.453072,7328.038826,-306.438199
579.685698,1850.514855,7624.121203,-306.438199
579.686018,666.185348,9548.656652,383.047749
579.686339,0.000000,11399.171507,1532.190996
579.686659,222.061783,10584.944971,1149.143247
579.686979,1554.432478,9030.512492,536.266849
579.687300,1628.453072,8216.285956,383.047749
579.687620,1480.411884,8734.430116,76.609550
579.687940,740.205942,11473.192101,-536.266849
579.688261,370.102971,13915.871710,-1838.629195
579.688581,74.020594,13989.892304,-2451.505594
579.688902,1480.411884,12731.542202,-2068.457845
579.689222,1406.391290,12287.418637,-689.485948
579.689542,-222.061783,12953.603985,153.219100
579.689863,-518.144159,12583.501014,919.314598
579.690183,-296.082377,11621.233289,1072.533697
579.690503,-814.226536,9770.718434,919.314598
579.690824,-740.205942,8512.368333,1838.629195
579.691144,-1776.494261,8142.265362,2068.457845
579.691464,-2368.659014,8290.306550,1532.190996
579.691785,-962.267725,9178.553681,1072.533697
579.692105,888.247130,9992.780217,153.219100
579.692426,1998.556043,11325.150913,-459.657299
579.692746,3108.864956,11843.295072,-459.657299
579.693066,1776.494261,12065.356855,-1915.238745
579.693387,1702.473667,10584.944971,-2451.505594
579.693707,1998.556043,8734.430116,-1302.362347
579.694027,3404.947333,8142.265362,306.438199
579.694348,2886.803174,9918.759623,766.095498
579.694668,1702.473667,11991.336260,-919.314598
579.694989,962.267725,12953.603985,-2911.162892
579.695309,1110.308913,11991.336260,-3447.429741
579.695629,1036.288319,9178.553681,-2604.724693
579.695950,-296.082377,6883.915261,-1455.581446
579.696270,148.041188,7994.224174,0.000000
579.696590,-370.102971,12065.356855,1455.581446
579.696911,-2294.638420,14508.036463,919.314598
579.697231,-2442.679609,14211.954086,0.000000
579.697552,-370.102971,13397.727550,306.438199
579.697872,-666.185348,13101.645173,1608.800546
579.698192,-1258.350101,12065.356855,1455.581446
579.698513,-1554.432478,11251.130318,-153.219100
579.698833,0.000000,11103.089130,-153.219100
579.699153,148.041188,9548.656652,919.314598
579.699474,-444.123565,7772.162391,1608.800546
579.699794,222.061783,8882.471304,1072.533697
579.700114,1036.288319,10362.883188,1302.362347
579.700435,1998.556043,11621.233289,919.314598
579.700755,4959.379811,11547.212695,-306.438199
579.701076,5551.544565,11177.109724,-1838.629195
579.701396,5403.503377,11695.253884,-1915.238745
579.701716,3330.926739,11177.109724,-1991.848295
579.702037,518.144159,8586.388927,-2451.505594
579.702357,1110.308913,6587.832884,-1608.800546
579.702677,4145.153275,8290.306550,536.266849
579.702998,2368.659014,11251.130318,383.047749
579.703318,1924.535449,13397.727550,-612.876398
579.703639,1110.308913,13915.871710,-1225.752797
579.703959,-888.247130,11695.253884,-1762.019645
579.704280,-2368.659014,9104.533087,459.657299
579.704601,-1480.411884,8290.306550,1455.581446
579.704921,-666.185348,11325.150913,1378.971896
579.705242,-1184.329507,13619.789333,-459.657299
579.705563,-2294.638420,13915.871710,-1915.238745
579.705883,-1776.494261,13323.706956,-1915.238745
579.706204,-1406.391290,11621.233289,2145.067394
579.706524,-814.226536,11843.295072,5362.668486
579.706845,-888.247130,11325.150913,3524.039291
579.707166,-1110.308913,10881.027347,-383.047749
579.707486,-814.226536,9252.574275,-689.485948
579.707807,-518.144159,7254.018232,995.924147
579.708128,888.247130,6217.729913,2451.505594
579.708448,2960.823768,6735.874072,1608.800546
579.708769,4071.132681,9622.677246,-536.266849
579.709089,3997.112087,11547.212695,-1915.238745
579.709410,3997.112087,11843.295072,-3447.429741
579.709731,4811.338623,11621.233289,-2757.943793
579.710051,5181.441594,10436.903782,-1608.800546
579.710372,3849.070898,8290.306550,-306.438199
579.710693,2812.782580,7624.121203,-612.876398
579.711013,2368.659014,8364.327145,-1149.143247
579.711334,-814.226536,9992.780217,-1991.848295
579.711654,0.000000,12139.377449,-2681.334243
579.711975,1332.370696,12213.398043,-2068.457845
579.712296,-666.185348,10362.883188,-153.219100
579.712616,0.000000,9178.553681,1302.362347
579.712937,814.226536,10066.800811,3140.991542
579.713258,-4515.256246,11695.253884,2374.896044
579.713578,-3701.029710,13101.645173,1455.581446
579.713899,-2146.597232,13397.727550,0.000000
579.714219,-888.247130,12879.583391,-842.705048
579.714540,666.185348,11769.274478,766.095498
579.714861,-444.123565,10807.006753,1378.971896
579.715181,-2294.638420,11547.212695,0.000000
579.715502,-2368.659014,12657.521608,612.876398
579.715823,0.000000,12731.542202,153.219100
579.716143,2146.597232,11695.253884,76.609550
579.716464,2368.659014,9770.718434,1532.190996
579.716784,2294.638420,9696.697840,229.828649
579.717105,1702.473667,9548.656652,-612.876398
579.717426,1480.411884,8882.471304,-612.876398
579.717746,4663.297435,9326.594869,-459.657299
579.718067,4293.194464,8290.306550,-1455.581446
579.718388,2738.761985,8290.306550,-2604.724693
579.718708,2812.782580,9104.533087,-2681.334243
579.719029,3404.947333,11251.130318,-1532.190996
579.719349,3775.050304,12435.459826,-1225.752797
579.719670,2368.659014,12287.418637,-1225.752797
579.719991,1406.391290,11695.253884,-2451.505594
579.720311,0.000000,12361.439231,-2221.676944
579.720632,-2960.823768,11103.089130,-2145.067394
579.720953,-2590.720797,10658.965565,-76.609550
579.721273,0.000000,12435.459826,1685.410096
579.721594,-2146.597232,12139.377449,1685.410096
579.721914,-2960.823768,12213.398043,995.924147
579.722235,-2590.720797,14137.933492,1378.971896
579.722556,-4811.338623,13767.830521,2298.286494
579.722876,-3256.906145,12731.542202,3677.258390
579.723197,-2072.576638,9474.636058,3677.258390
579.723518,-2146.597232,9918.759623,2221.676944
579.723838,-740.205942,10288.862594,2911.162892
579.724159,-666.185348,10955.047942,1532.190996
579.724479,0.000000,10510.924376,-1685.410096
579.724800,2294.638420,10288.862594,-2451.505594
579.725121,4293.194464,9992.780217,-306.438199
579.725441,5329.482782,9326.594869,1149.143247
579.725762,6143.709319,9770.718434,1838.629195
579.726083,5551.544565,9696.697840,-1072.533697
579.726403,4515.256246,8290.306550,-3830.477490
579.726724,4367.215058,7105.977043,-3064.381992
579.727045,6069.688724,7550.100608,-995.924147
579.727365,4663.297435,7772.162391,-306.438199
579.727686,5255.462188,7994.224174,-1302.362347
579.728006,3478.967927,7994.224174,-2374.896044
579.728327,2146.597232,8882.471304,-2451.505594
579.728648,1554.432478,9622.677246,-1072.533697
579.728968,1702.473667,10658.965565,383.047749
579.729289,592.164754,9326.594869,995.924147
579.729610,444.123565,9104.533087,2068.457845
579.729930,-1776.494261,9104.533087,1302.362347
579.730251,-2220.617826,9622.677246,-229.828649
579.730571,-2368.659014,13175.665768,0.000000
579.730892,-962.267725,15914.427753,1072.533697
579.731213,-444.123565,15618.345376,1225.752797
579.731533,-1924.535449,11621.233289,383.047749
579.731854,-1554.432478,8808.450710,-766.095498
579.732175,-2516.700203,9770.718434,153.219100
579.732495,-3330.926739,10732.986159,1762.019645
579.732816,0.000000,11177.109724,1378.971896
579.733136,666.185348,9474.636058,-383.047749
579.733457,592.164754,9400.615463,-153.219100
579.733778,1998.556043,10658.965565,612.876398
579.734098,1776.494261,11029.068536,-919.314598
579.734419,1776.494261,10658.965565,-3064.381992
579.734740,4663.297435,8216.285956,-3983.696590
579.735060,5107.421000,7476.080014,-3064.381992
579.735381,5255.462188,9548.656652,-919.314598
579.735701,3478.967927,12657.521608,-842.705048
579.736022,2664.741391,13323.706956,-4060.306139
579.736343,3478.967927,12583.501014,-4979.620737
579.736663,4515.256246,12805.562797,-2834.553343
579.736984,1924.535449,11029.068536,-842.705048
579.737305,-444.123565,10881.027347,-459.657299
579.737625,74.020594,11251.130318,0.000000
579.737946,-2368.659014,10140.821405,306.438199
579.738266,-3701.029710,9400.615463,689.485948
579.738587,-962.267725,11769.274478,612.876398
579.738908,-2368.659014,12361.439231,1225.752797
579.739228,-2590.720797,11473.192101,4443.353888
579.739549,2072.576638,11695.253884,5439.278036
579.739870,148.041188,9326.594869,1915.238745
579.740190,-740.205942,7920.203579,0.000000
579.740511,4293.194464,9622.677246,153.219100
579.740831,2664.741391,10362.883188,-306.438199
579.741152,4071.132681,9030.512492,-1455.581446
579.741473,10732.986159,7105.977043,-612.876398
579.741793,8068.244768,7402.059420,-2145.067394
579.742114,6587.832884,9030.512492,-1302.362347
579.742435,6957.935855,8882.471304,-1685.410096
579.742755,4589.276840,5625.565159,-4826.401637
579.743076,7105.977043,5699.585753,-2374.896044
579.743396,8142.265362,8808.450710,1149.143247
579.743717,4959.379811,9474.636058,-1302.362347
579.744038,4737.318029,10436.903782,-3140.991542
579.744358,4219.173869,10288.862594,-383.047749
579.744679,2368.659014,9252.574275,1225.752797
579.745000,2960.823768,6809.894666,3983.696590
579.745320,3034.844362,6587.832884,2911.162892
579.745641,2368.659014,8142.265362,995.924147
579.745961,888.247130,7328.038826,919.314598
579.746282,962.267725,4959.379811,-306.438199
579.746603,3182.885551,3849.070898,459.657299
579.746923,3256.906145,5107.421000,4060.306139
579.747244,3256.906145,7031.956449,3447.429741
579.747565,4959.379811,7920.203579,995.924147
579.747885,4811.338623,9400.615463,-1302.362347
579.748206,5625.565159,11769.274478,-2911.162892
579.748526,6365.771101,10288.862594,-3294.210641
579.748847,8438.347739,9770.718434,-2604.724693
579.749168,9178.553681,9474.636058,-842.705048
579.749488,5995.668130,8438.347739,-766.095498
579.749809,4219.173869,7624.121203,-919.314598
579.750130,1480.411884,8142.265362,-1072.533697
579.750450,5033.400406,10066.800811,2068.457845
579.750771,5107.421000,7254.018232,2834.553343
579.751091,4219.173869,4737.318029,1991.848295
579.751412,4293.194464,6513.812290,1378.971896
579.751733,1406.391290,7624.121203,612.876398
579.752053,-962.267725,7179.997637,153.219100
579.752374,5329.482782,6143.709319,0.000000
579.752695,6661.853478,5847.626942,-536.266849
579.753015,8216.285956,8364.327145,-1072.533697
579.753336,8734.430116,11547.212695,-612.876398
579.753656,6217.729913,11843.295072,-612.876398
579.753977,6291.750507,9030.512492,229.828649
579.754298,8364.327145,6365.771101,-76.609550
579.754618,7994.224174,3997.112087,-3217.601092
579.754939,8216.285956,6291.750507,-3830.477490
579.755260,7105.977043,9844.739029,-2145.067394
579.755580,6883.915261,10658.965565,-1532.190996
579.755901,7994.224174,6809.894666,76.609550
579.756221,6291.750507,4219.173869,383.047749
579.756542,4441.235652,6513.812290,612.876398
579.756863,3108.864956,10584.944971,1685.410096
579.757183,1036.288319,11991.336260,229.828649
579.757504,3182.885551,10881.027347,-2451.505594
579.757825,5699.585753,8512.368333,1225.752797
579.758145,2442.679609,8216.285956,2221.676944
579.758466,592.164754,8438.347739,0.000000
579.758787,1258.350101,9326.594869,-2834.553343
579.759107,2220.617826,10584.944971,-3753.867940
579.759428,4071.132681,9696.697840,-1455.581446
579.759748,7254.018232,9400.615463,1762.019645
579.760069,6587.832884,9400.615463,2681.334243
579.760390,4367.215058,9104.533087,2604.724693
579.760710,4441.235652,7328.038826,2145.067394
579.761031,4441.235652,5107.421000,-1302.362347
579.761352,6661.853478,5625.565159,-3140.991542
579.761672,8364.327145,6439.791695,-1991.848295
579.761993,8956.491898,5625.565159,-766.095498
579.762313,7920.203579,4737.318029,-612.876398
579.762634,6217.729913,4515.256246,-1072.533697
579.762955,5107.421000,6439.791695,-919.314598
579.763275,7105.977043,9844.739029,459.657299
579.763596,7105.977043,10807.006753,76.609550
579.763917,8882.471304,9474.636058,-766.095498
579.764237,7624.121203,6661.853478,-2451.505594
579.764558,3997.112087,5181.441594,-3370.820191
579.764878,4145.153275,7179.997637,-2221.676944
579.765199,3849.070898,9030.512492,689.485948
579.765520,4219.173869,9400.615463,-383.047749
579.765840,3849.070898,8512.368333,-1302.362347
579.766161,2516.700203,8808.450710,-229.828649
579.766482,1110.308913,10140.821405,2374.896044
579.766802,1480.411884,11547.212695,5056.230287
579.767123,1554.432478,8660.409521,4213.525239
579.767443,3478.967927,6809.894666,1225.752797
579.767764,2960.823768,5477.523971,-229.828649
579.768085,3478.967927,7031.956449,0.000000
579.768405,2664.741391,8216.285956,919.314598
579.768726,5773.606348,9918.759623,689.485948
579.769047,5995.668130,8808.450710,-306.438199
579.769367,7031.956449,7550.100608,-229.828649
579.769688,6661.853478,8216.285956,0.000000
579.770008,4737.318029,10732.986159,-842.705048
579.770329,5033.400406,10362.883188,-1225.752797
579.770650,7698.141797,8956.491898,-1455.581446
579.770970,6735.874072,6069.688724,-229.828649
579.771291,6217.729913,6365.771101,383.047749
579.771612,5107.421000,7254.018232,153.219100
579.771932,2146.597232,8660.409521,-2298.286494
579.772253,3923.091493,10362.883188,-1991.848295
579.772573,5625.565159,8734.430116,0.000000
579.772894,5699.585753,7402.059420,0.000000
579.773215,4959.379811,7920.203579,2221.676944
579.773535,3923.091493,7328.038826,2911.162892
579.773856,2812.782580,7254.018232,1762.019645
579.774177,3775.050304,5773.606348,459.657299
579.774497,4811.338623,5995.668130,-1762.019645
579.774818,6587.832884,9622.677246,-919.314598
579.775138,5699.585753,10584.944971,536.266849
579.775459,3478.967927,8882.471304,-383.047749
579.775780,6587.832884,6957.935855,-1225.752797
579.776100,6069.688724,5699.585753,-1608.800546
579.776421,4219.173869,6587.832884,-1225.752797
579.776742,6365.771101,9770.718434,2145.067394
579.777062,5625.565159,9992.780217,2298.286494
579.777383,4663.297435,7254.018232,995.924147
579.777703,7105.977043,4293.194464,-459.657299
579.778024,5699.585753,4293.194464,-2068.457845
579.778345,3849.070898,5551.544565,-1302.362347
579.778665,5107.421000,8586.388927,0.000000
579.778986,7772.162391,9326.594869,-1072.533697
579.779307,5625.565159,7328.038826,-1915.238745
579.779627,5255.462188,6957.935855,-1532.190996
579.779948,6513.812290,9918.759623,-612.876398
579.780268,3404.947333,10362.883188,-306.438199
579.780589,4219.173869,8882.471304,-1302.362347
579.780910,8956.491898,6735.874072,-2068.457845
579.781230,6217.729913,5847.626942,-689.485948
579.781551,5107.421000,8142.265362,1685.410096
579.781872,5625.565159,8882.471304,995.924147
579.782192,4663.297435,8068.244768,-995.924147
579.782513,6587.832884,7476.080014,-766.095498
579.782833,7402.059420,6513.812290,-766.095498
579.783154,4367.215058,6291.750507,-1455.581446
579.783475,6365.771101,11177.109724,1608.800546
579.783795,6217.729913,12139.377449,3217.601092
579.784116,3701.029710,10881.027347,842.705048
579.784437,4145.153275,8216.285956,-1608.800546
579.784757,2886.803174,6883.915261,-2374.896044
579.785078,2146.597232,8734.430116,76.609550
579.785398,4441.235652,9548.656652,2834.553343
579.785719,4515.256246,7698.141797,0.000000
579.786040,2368.659014,5255.462188,-1991.848295
579.786360,4219.173869,8734.430116,306.438199
579.786681,2368.659014,12139.377449,1838.629195
579.787002,1850.514855,12361.439231,-1149.143247
579.787322,6735.874072,11177.109724,-1608.800546
579.787643,8142.265362,8808.450710,-2145.067394
579.787963,5477.523971,7105.977043,-689.485948
579.788284,5181.441594,7624.121203,2681.334243
579.788605,2146.597232,6143.709319,1302.362347
579.788925,2590.720797,5551.544565,0.000000
579.789246,4737.318029,6217.729913,153.219100
579.789567,5921.647536,7772.162391,-1991.848295
579.789887,5329.482782,9030.512492,-1685.410096
579.790208,6513.812290,10140.821405,1455.581446
579.790529,5403.503377,8586.388927,1685.410096
579.790849,3478.967927,5477.523971,-306.438199
579.791170,4145.153275,4811.338623,-842.705048
579.791490,4663.297435,7920.203579,0.000000
579.791811,5033.400406,11547.212695,766.095498
579.792132,5921.647536,11769.274478,-153.219100
579.792452,6291.750507,8438.347739,-2068.457845
579.792773,6365.771101,5921.647536,-1915.238745
579.793094,4959.379811,6069.688724,1455.581446
579.793414,3775.050304,5847.626942,1762.019645
579.793735,3478.967927,5477.523971,-766.095498
579.794055,5329.482782,5181.441594,-306.438199
579.794376,6069.688724,6661.853478,0.000000
579.794697,6957.935855,9474.636058,383.047749
579.795017,6069.688724,10881.027347,612.876398
579.795338,5107.421000,10584.944971,229.828649
579.795659,5921.647536,9474.636058,-76.609550
579.795979,5107.421000,7105.977043,229.828649
579.796300,4959.379811,5773.606348,-689.485948
579.796620,5995.668130,5329.482782,-766.095498
579.796941,6735.874072,7994.224174,536.266849
579.797262,5255.462188,5995.668130,0.000000
579.797582,5847.626942,6365.771101,-1149.143247
579.797903,8290.306550,11473.192101,306.438199
579.798224,5329.482782,10584.944971,766.095498
579.798544,4145.153275,6587.832884,0.000000
579.798865,8068.244768,3552.988522,459.657299
579.799185,5551.544565,3775.050304,1685.410096
579.799506,3256.906145,7772.162391,1072.533697
579.799827,4885.359217,10584.944971,-1455.581446
579.800147,3701.029710,9844.739029,-3447.429741
579.800468,4959.379811,10288.862594,-2604.724693
579.800789,5773.606348,9326.594869,-995.924147
579.801109,4071.132681,8512.368333,-2298.286494
579.801430,2590.720797,9992.780217,-1225.752797
579.801750,1702.473667,10658.965565,766.095498
579.802071,3108.864956,8290.306550,1225.752797
579.802392,4219.173869,6809.894666,2298.286494
579.802712,2664.741391,8068.244768,1378.971896
579.803033,4589.276840,10584.944971,229.828649
579.803353,3552.988522,10066.800811,0.000000
579.803674,3849.070898,4885.359217,-1532.190996
579.803995,6809.894666,3034.844362,-612.876398
579.804315,6587.832884,5625.565159,1149.143247
579.804636,3182.885551,10140.821405,612.876398
579.804956,3330.926739,11103.089130,-1302.362347
579.805277,6291.750507,9548.656652,-2145.067394
579.805597,8808.450710,7476.080014,-1532.190996
579.805918,7105.977043,6291.750507,0.000000
579.806239,6143.709319,7994.224174,-766.095498
579.806559,4737.318029,9400.615463,-995.924147
579.806880,5329.482782,9326.594869,-1072.533697
579.807200,6439.791695,7105.977043,-1378.971896
579.807521,7031.956449,4885.359217,-1762.019645
579.807841,6217.729913,8068.244768,-306.438199
579.808162,4959.379811,10807.006753,612.876398
579.808483,4737.318029,8956.491898,612.876398
579.808803,6291.750507,7105.977043,1149.143247
579.809124,5847.626942,7105.977043,1455.581446
579.809444,2368.659014,6735.874072,1378.971896
579.809765,592.164754,5921.647536,-153.219100
579.810085,2368.659014,8068.244768,-1225.752797
579.810406,4441.235652,9696.697840,76.609550
579.810727,5403.503377,8956.491898,1149.143247
579.811047,6143.709319,8882.471304,-153.219100
579.811368,4367.215058,11547.212695,-612.876398
579.811688,1850.514855,12583.501014,766.095498
579.812009,3330.926739,10658.965565,919.314598
579.812329,6143.709319,7476.080014,1149.143247
579.812650,7105.977043,8216.285956,1532.190996
579.812971,4959.379811,7994.224174,1072.533697
579.813291,1258.350101,6809.894666,-2298.286494
579.813612,1702.473667,5847.626942,-2145.067394
579.813932,3997.112087,6809.894666,689.485948
579.814253,6661.853478,5995.668130,1915.238745
579.814573,7031.956449,6365.771101,1608.800546
579.814894,4811.338623,7846.182985,383.047749
579.815215,3330.926739,8882.471304,-689.485948
579.815535,4367.215058,9252.574275,-1072.533697
579.815856,5181.441594,7254.018232,-2757.943793
579.816176,7550.100608,7624.121203,-3064.381992
579.816497,7994.224174,8216.285956,-1532.190996
579.816817,5699.585753,9178.553681,-1302.362347
579.817138,4811.338623,8068.244768,-995.924147
579.817459,5625.565159,7624.121203,0.000000
579.817779,6513.812290,7698.141797,689.485948
579.818100,4737.318029,6365.771101,1225.752797
579.818420,5625.565159,7328.038826,689.485948
579.818741,6217.729913,8216.285956,689.485948
579.819061,3552.988522,6883.915261,536.266849
579.819382,3627.009116,6291.750507,-153.219100
579.819703,5625.565159,5995.668130,-1149.143247
579.820023,6069.688724,6883.915261,0.000000
579.820344,5995.668130,7920.203579,1149.143247
579.820664,6513.812290,7846.182985,459.657299
579.820985,5551.544565,8660.409521,-306.438199
579.821305,5403.503377,11917.315666,1225.752797
579.821626,6217.729913,11621.233289,995.924147
579.821947,5403.503377,8586.388927,-1762.019645
579.822267,7402.059420,8142.265362,-3064.381992
579.822588,6365.771101,9474.636058,-3217.601092
579.822908,3182.885551,9400.615463,-3524.039291
579.823229,3627.009116,8364.327145,-1378.971896
579.823549,4663.297435,8068.244768,1455.581446
579.823870,4219.173869,8068.244768,3524.039291
579.824191,3108.864956,9622.677246,3447.429741
579.824511,2516.700203,10807.006753,383.047749
579.824832,1258.350101,9548.656652,-383.047749
579.825152,3923.091493,8734.430116,1072.533697
579.825473,4589.276840,6809.894666,766.095498
579.825793,4367.215058,6513.812290,153.219100
579.826114,4885.359217,7994.224174,-689.485948
579.826435,4145.153275,10658.965565,-1915.238745
579.826755,4293.194464,11251.130318,-2604.724693
579.827076,8216.285956,11991.336260,0.000000
579.827396,8290.306550,10658.965565,1838.629195
579.827717,4737.318029,7624.121203,919.314598
579.828037,4959.379811,4737.318029,76.609550
579.828358,3923.091493,4441.235652,-1378.971896
579.828679,5107.421000,4737.318029,-2145.067394
579.828999,7402.059420,5921.647536,-1608.800546
579.829320,6291.750507,5921.647536,-2451.505594
579.829640,6587.832884,7105.977043,-306.438199
579.829961,7402.059420,8808.450710,3524.039291
579.830281,6069.688724,7698.141797,2757.943793
579.830602,4737.318029,5551.544565,0.000000
579.830923,4293.194464,5773.606348,-1685.410096
579.831243,4367.215058,6439.791695,-1455.581446
579.831564,5181.441594,7179.997637,0.000000
579.831884,6661.853478,8808.450710,-1302.362347
579.832205,5921.647536,9770.718434,-4519.963438
579.832525,3108.864956,7179.997637,-4366.744339
579.832846,2368.659014,7031.956449,-1915.238745
579.833167,3108.864956,8808.450710,919.314598
579.833487,1702.473667,9992.780217,2145.067394
579.833808,3552.988522,11843.295072,919.314598
579.834128,4515.256246,13323.706956,459.657299
579.834449,2294.638420,11695.253884,153.219100
579.834769,3552.988522,8808.450710,-536.266849
579.835090,2220.617826,5847.626942,1378.971896
579.835411,2368.659014,5181.441594,2451.505594
579.835731,4145.153275,5699.585753,2221.676944
579.836052,3701.029710,6957.935855,-689.485948
579.836372,5699.585753,6661.853478,-2451.505594
579.836693,8660.409521,8882.471304,-612.876398
579.837013,6735.874072,10214.842000,1302.362347
579.837334,6587.832884,9622.677246,-76.609550
579.837655,8586.388927,8512.368333,-1838.629195
579.837975,7105.977043,8216.285956,-3753.867940
579.838296,7179.997637,9474.636058,-1991.848295
579.838616,6513.812290,10955.047942,-1455.581446
579.838937,6365.771101,9104.533087,-4366.744339
579.839257,5847.626942,7920.203579,-2068.457845
579.839578,6513.812290,6365.771101,2068.457845
579.839899,4589.276840,7402.059420,2451.505594
579.840219,2590.720797,7402.059420,2068.457845
579.840540,2812.782580,7624.121203,0.000000
579.840860,5033.400406,7476.080014,-1149.143247
579.841181,4885.359217,5847.626942,612.876398
579.841501,5699.585753,6587.832884,1608.800546
579.841822,4663.297435,8290.306550,919.314598
579.842143,2516.700203,10066.800811,-766.095498
579.842463,3627.009116,11251.130318,-1762.019645
579.842784,5033.400406,8068.244768,-2374.896044
579.843104,8438.347739,7624.121203,-766.095498
579.843425,7328.038826,6883.915261,919.314598
579.843745,2146.597232,6291.750507,229.828649
579.844066,2294.638420,7179.997637,0.000000
579.844387,5255.462188,7476.080014,0.000000
579.844707,3849.070898,6587.832884,-1838.629195
579.845028,7698.141797,6143.709319,-1991.848295
579.845348,7254.018232,7698.141797,-459.657299
579.845669,4663.297435,10881.027347,229.828649
579.845989,4441.235652,10436.903782,1225.752797
579.846310,6365.771101,7402.059420,612.876398
579.846631,6439.791695,4663.297435,-766.095498
579.846951,5107.421000,5255.462188,-153.219100
579.847272,4737.318029,8290.306550,-306.438199
579.847592,5033.400406,10881.027347,-2757.943793
579.847913,3478.967927,11177.109724,-306.438199
579.848234,5403.503377,8364.327145,1762.019645
579.848554,5773.606348,5329.482782,2374.896044
579.848875,3478.967927,5995.668130,153.219100
579.849195,3330.926739,8660.409521,-1685.410096
579.849516,2738.761985,9178.553681,-2145.067394
579.849836,4811.338623,8438.347739,-1072.533697
579.850157,8068.244768,9696.697840,1685.410096
579.850478,4145.153275,7476.080014,2604.724693
579.850798,3478.967927,8660.409521,153.219100
579.851119,4219.173869,11621.233289,-689.485948
579.851439,1110.308913,9400.615463,-2451.505594
579.851760,5995.668130,7105.977043,-1378.971896
579.852080,10288.862594,6143.709319,2987.772442
579.852401,4145.153275,8290.306550,2911.162892
579.852722,4367.215058,11029.068536,1915.238745
579.853042,2738.761985,7772.162391,-1762.019645
579.853363,2368.659014,4219.173869,-4290.134789
579.853683,6809.894666,4219.173869,919.314598
579.854004,7994.224174,7179.997637,3907.087040
579.854324,6069.688724,10510.924376,842.705048
579.854645,5255.462188,11399.171507,-1225.752797
579.854966,5995.668130,8216.285956,-2834.553343
579.855286,6809.894666,3775.050304,-2451.505594
579.855607,3997.112087,1628.453072,-1149.143247
579.855927,5551.544565,5995.668130,-766.095498
579.856248,5329.482782,9992.780217,-1225.752797
579.856568,4589.276840,10362.883188,-1685.410096
579.856889,7105.977043,8290.306550,-2298.286494
579.857210,5551.544565,5551.544565,-2221.676944
579.857530,2738.761985,8068.244768,-1149.143247
579.857851,3701.029710,11251.130318,76.609550
579.858171,2738.761985,8956.491898,-1378.971896
579.858492,5625.565159,5995.668130,-919.314598
579.858812,6439.791695,7550.100608,1838.629195
579.859133,4293.194464,10732.986159,2374.896044
579.859454,1998.556043,13175.665768,0.000000
579.859774,2072.576638,12509.480420,-2068.457845
579.860095,4219.173869,6957.935855,-1225.752797
579.860415,7476.080014,3256.906145,2757.943793
579.860736,5181.441594,3552.988522,3294.210641
579.861056,3775.050304,7179.997637,0.000000
579.861377,2368.659014,10066.800811,-1762.019645
579.861698,3182.885551,10584.944971,-3830.477490
579.862018,7772.162391,9696.697840,-1685.410096
579.862339,9030.512492,9918.759623,2298.286494
579.862659,7105.977043,10140.821405,2068.457845
579.862980,8216.285956,12065.356855,0.000000
579.863300,6291.750507,10584.944971,-1838.629195
579.863621,5255.462188,7550.100608,-3294.210641
579.863942,7772.162391,2738.761985,-612.876398
579.864262,8512.368333,4959.379811,2834.553343
579.864583,6217.729913,9474.636058,3140.991542
579.864903,4367.215058,8216.285956,459.657299
579.865224,6291.750507,5699.585753,-3064.381992
579.865544,6957.935855,5255.462188,-2451.505594
579.865865,6143.709319,7328.038826,1302.362347
579.866186,6661.853478,7550.100608,919.314598
579.866506,5181.441594,7550.100608,-3217.601092
579.866827,4219.173869,7846.182985,-2834.553343
579.867147,6735.874072,9918.759623,153.219100
579.867468,5551.544565,8882.471304,1838.629195
579.867788,4441.235652,8734.430116,1455.581446
579.868109,5329.482782,9326.594869,1302.362347
579.868430,2590.720797,8142.265362,0.000000
579.868750,2738.761985,5181.441594,-842.705048
579.869071,5477.523971,3997.112087,1608.800546
579.869391,3997.112087,2590.720797,1302.362347
579.869712,5181.441594,4959.379811,1149.143247
579.870032,4145.153275,7624.121203,-1302.362347
579.870353,4219.173869,9104.533087,-3753.867940
579.870674,5551.544565,10584.944971,-612.876398
579.870994,6513.812290,12065.356855,1915.238745
579.871315,5551.544565,11917.315666,1149.143247
579.871635,5699.585753,10955.047942,995.924147
579.871956,2442.679609,9326.594869,-1762.019645
579.872276,2294.638420,8882.471304,-2221.676944
579.872597,1480.411884,5477.523971,1072.533697
579.872918,3108.864956,4515.256246,1685.410096
579.873238,3775.050304,5403.503377,995.924147
579.873559,3775.050304,6143.709319,0.000000
579.873879,3997.112087,8512.368333,-1149.143247
579.874200,5107.421000,8882.471304,0.000000
579.874520,5551.544565,8586.388927,2145.067394
579.874841,9178.553681,7920.203579,2757.943793
579.875162,7920.203579,7772.162391,306.438199
579.875482,6735.874072,9252.574275,-2068.457845
579.875803,6735.874072,9696.697840,-2681.334243
579.876123,8364.327145,8808.450710,-2757.943793
579.876444,8216.285956,8956.491898,-1838.629195
579.876764,7105.977043,9770.718434,-1762.019645
579.877085,5181.441594,9400.615463,-1225.752797
579.877406,3627.009116,8438.347739,1149.143247
579.877726,5329.482782,8364.327145,4673.182538
579.878047,5403.503377,7846.182985,5286.058936
579.878367,4737.318029,6439.791695,3677.258390
579.878688,3182.885551,4441.235652,919.314598
579.879008,2738.761985,4515.256246,0.000000
579.879329,2516.700203,7105.977043,536.266849
579.879650,4367.215058,8734.430116,306.438199
579.879970,6809.894666,9474.636058,-2221.676944
579.880291,7550.100608,10732.986159,-3140.991542
579.880611,2960.823768,8882.471304,-1455.581446
579.880932,3404.947333,7105.977043,-383.047749
579.881252,5625.565159,7105.977043,2068.457845
579.881573,5403.503377,8882.471304,612.876398
579.881894,6291.750507,10881.027347,-2221.676944
579.882214,5995.668130,10732.986159,-4366.744339
579.882535,4663.297435,8290.306550,-3140.991542
579.882855,6217.729913,6587.832884,2221.676944
579.883176,5625.565159,6513.812290,4443.353888
579.883496,5699.585753,5995.668130,1532.190996
579.883817,3330.926739,3849.070898,-1838.629195
579.884138,4367.215058,4441.235652,-1532.190996
579.884458,6365.771101,6069.688724,2145.067394
579.884779,4811.338623,8216.285956,3217.601092
579.885099,3775.050304,9474.636058,536.266849
579.885420,4959.379811,8660.409521,-2528.115143
579.885740,4663.297435,6069.688724,-3753.867940
579.886061,6217.729913,6513.812290,-2604.724693
579.886382,6291.750507,8290.306550,-2451.505594
579.886702,5107.421000,11103.089130,-3830.477490
579.887023,6809.894666,13323.706956,-2451.505594
579.887343,6143.709319,10732.986159,1225.752797
579.887664,7105.977043,8956.491898,3370.820191
579.887984,5477.523971,7476.080014,3907.087040
579.888305,1554.432478,6883.915261,1378.971896
579.888626,1776.494261,7920.203579,-536.266849
579.888946,4663.297435,7920.203579,-306.438199
579.889267,6291.750507,4737.318029,1685.410096
579.889587,4515.256246,3034.844362,2221.676944
579.889908,3108.864956,5773.606348,842.705048
579.890228,2368.659014,11769.274478,-1225.752797
579.890549,4071.132681,15248.242405,-1838.629195
579.890870,6883.915261,14359.995275,-842.705048
579.891190,10362.883188,12361.439231,766.095498
579.891511,4367.215058,7624.121203,1685.410096
579.891831,1702.473667,5255.462188,76.609550
579.892152,2294.638420,6143.709319,-1455.581446
579.892472,3552.988522,6439.791695,-3140.991542
579.892793,6291.750507,7328.038826,-3064.381992
579.893114,9696.697840,7698.141797,-1149.143247
579.893434,7624.121203,9696.697840,689.485948
579.893755,5773.606348,11251.130318,2298.286494
579.894075,4367.215058,9548.656652,2528.115143
579.894396,5699.585753,6661.853478,229.828649
579.894716,6735.874072,4441.235652,2528.115143
579.895037,4811.338623,4219.173869,2145.067394
579.895358,4367.215058,5551.544565,-1149.143247
579.895678,2368.659014,8512.368333,-3370.820191
579.895999,2738.761985,9252.574275,-3064.381992
579.896319,4811.338623,8956.491898,-1762.019645
579.896640,5921.647536,8290.306550,-306.438199
579.896960,5995.668130,10955.047942,1149.143247
579.897281,5551.544565,11473.192101,1991.848295
579.897602,1924.535449,8660.409521,1072.533697
579.897922,4145.153275,5033.400406,842.705048
579.898243,6069.688724,5107.421000,2145.067394
579.898563,5773.606348,7254.018232,536.266849
579.898884,3701.029710,7328.038826,-3064.381992
579.899204,3775.050304,6735.874072,-3907.087040
579.899525,4959.379811,6587.832884,-2451.505594
579.899846,6291.750507,6439.791695,1302.362347
579.900166,6809.894666,7254.018232,4136.915689
579.900487,7402.059420,9474.636058,3600.648841
579.900807,3923.091493,11103.089130,1072.533697
579.901128,3330.926739,8956.491898,-2145.067394
579.901448,5107.421000,8142.265362,-3600.648841
579.901769,5477.523971,7328.038826,-1762.019645
579.902090,6143.709319,7698.141797,-459.657299
579.902410,7920.203579,9178.553681,-1378.971896
579.902731,4145.153275,10362.883188,-3830.477490
579.903051,3330.926739,10436.903782,-1608.800546
579.903372,3404.947333,10658.965565,2451.505594
579.903692,3997.112087,9474.636058,4366.744339
579.904013,5403.503377,8882.471304,5056.230287
579.904334,4737.318029,7846.182985,2604.724693
579.904654,1036.288319,7846.182985,-2374.896044
579.904975,2368.659014,7698.141797,-3217.601092
579.905295,2442.679609,6217.729913,-536.266849
579.905616,5921.647536,5921.647536,1149.143247
579.905936,7698.141797,5625.565159,3600.648841
579.906257,6069.688724,8586.388927,689.485948
579.906577,4959.379811,11029.068536,-1608.800546
579.906898,4737.318029,11843.295072,-1149.143247
579.907219,8438.347739,9178.553681,-1072.533697
579.907539,8660.409521,4737.318029,-1838.629195
579.907860,7624.121203,4071.132681,-2757.943793
579.908180,5551.544565,6513.812290,-4366.744339
579.908501,3404.947333,8438.347739,-3677.258390
579.908821,5773.606348,9474.636058,-995.924147
579.909142,7550.100608,10214.842000,612.876398
579.909462,6217.729913,8364.327145,995.924147
579.909783,6291.750507,8142.265362,1915.238745
579.910103,3256.906145,8290.306550,2528.115143
579.910424,148.041188,7624.121203,1378.971896
579.910744,2146.597232,5847.626942,1991.848295
579.911065,4589.276840,6217.729913,689.485948
579.911386,5255.462188,9474.636058,-229.828649
579.911706,3478.967927,11029.068536,0.000000
579.912027,1184.329507,7994.224174,-842.705048
579.912347,962.267725,6069.688724,-306.438199
579.912668,2146.597232,7476.080014,1225.752797
579.912988,4219.173869,10362.883188,229.828649
579.913309,3701.029710,10807.006753,-2298.286494
579.913629,5255.462188,10807.006753,-2604.724693
579.913950,5181.441594,9474.636058,-766.095498
579.914270,3849.070898,9178.553681,459.657299
579.914591,5181.441594,7772.162391,919.314598
579.914911,6661.853478,8586.388927,229.828649
579.915232,6809.894666,6439.791695,-1302.362347
579.915553,6661.853478,6143.709319,0.000000
579.915873,5329.482782,5181.441594,153.219100
579.916194,3997.112087,6069.688724,-766.095498
579.916514,3923.091493,9326.594869,1378.971896
579.916835,7550.100608,9326.594869,459.657299
579.917155,8660.409521,9030.512492,-536.266849
579.917476,4811.338623,7328.038826,-1455.581446
579.917796,4293.194464,7105.977043,-3140.991542
579.918117,3404.947333,6439.791695,-2681.334243
579.918437,2664.741391,7772.162391,-612.876398
579.918758,7105.977043,11399.171507,1149.143247
579.919078,6513.812290,11029.068536,383.047749
579.919399,3182.885551,9992.780217,-1762.019645
579.919720,4145.153275,9548.656652,229.828649
579.920040,3627.009116,6069.688724,2374.896044
579.920361,4589.276840,3923.091493,2757.943793
579.920681,6217.729913,3108.864956,2374.896044
579.921002,4663.297435,4589.276840,-612.876398
579.921322,3775.050304,7846.182985,-1532.190996
579.921643,4959.379811,10066.800811,-1608.800546
579.921963,6365.771101,8808.450710,-3140.991542
579.922284,7105.977043,9104.533087,-2757.943793
579.922604,7994.224174,9548.656652,-842.705048
579.922925,3997.112087,8808.450710,-1225.752797
579.923245,4145.153275,9104.533087,-1608.800546
579.923566,4885.359217,7920.203579,-1302.362347
579.923887,5329.482782,8142.265362,-1762.019645
579.924207,5181.441594,7179.997637,-766.095498
579.924528,4737.318029,8586.388927,612.876398
579.924848,4737.318029,9696.697840,1149.143247
579.925169,3108.864956,9400.615463,1608.800546
579.925489,4589.276840,7698.141797,612.876398
579.925810,5477.523971,7328.038826,689.485948
579.926130,4515.256246,9178.553681,612.876398
579.926451,4367.215058,8512.368333,-612.876398
579.926771,2590.720797,7328.038826,-689.485948
579.927092,4885.359217,8216.285956,-153.219100
579.927412,3701.029710,7698.141797,-306.438199
579.927733,3997.112087,8808.450710,-2528.115143
579.928054,4219.173869,9622.677246,-2681.334243
579.928374,5773.606348,13027.624579,919.314598
579.928695,3627.009116,11251.130318,1915.238745
579.929015,5847.626942,8586.388927,1378.971896
579.929336,6069.688724,6069.688724,919.314598
579.929656,7254.018232,7031.956449,612.876398
579.929977,5181.441594,8586.388927,689.485948
579.930297,3478.967927,6587.832884,-1225.752797
579.930618,6513.812290,5773.606348,-1149.143247
579.930938,5773.606348,5403.503377,1532.190996
579.931259,4293.194464,5773.606348,1149.143247
579.931579,7624.121203,7179.997637,-689.485948
579.931900,5255.462188,9400.615463,-3447.429741
579.932221,4293.194464,12435.459826,-2987.772442
579.932541,5255.462188,9770.718434,-842.705048
579.932862,6069.688724,7772.162391,536.266849
579.933182,6291.750507,9474.636058,1991.848295
579.933503,3256.906145,8882.471304,1838.629195
579.933823,2442.679609,7920.203579,-1378.971896
579.934144,4367.215058,7624.121203,-1532.190996
579.934464,5107.421000,7254.018232,2068.457845
579.934785,6143.709319,5181.441594,4213.525239
579.935105,4367.215058,3034.844362,3447.429741
579.935426,2812.782580,2072.576638,1762.019645
579.935746,4293.194464,6513.812290,-459.657299
579.936067,4293.194464,8216.285956,-536.266849
579.936388,5699.585753,7846.182985,-3753.867940
579.936708,10214.842000,8808.450710,-3140.991542
579.937029,8290.306550,10140.821405,-1072.533697
579.937349,6069.688724,10436.903782,-612.876398
579.937670,5625.565159,11251.130318,-842.705048
579.937990,5847.626942,11695.253884,-2221.676944
579.938311,5181.441594,9104.533087,-2145.067394
579.938631,5699.585753,6143.709319,-306.438199
579.938952,3775.050304,6217.729913,-153.219100
579.939272,1332.370696,7402.059420,2374.896044
579.939593,148.041188,7550.100608,3753.867940
579.939913,3627.009116,8142.265362,2298.286494
579.940234,3108.864956,7920.203579,1762.019645
579.940555,3923.091493,8364.327145,229.828649
579.940875,4811.338623,8290.306550,-1378.971896
579.941196,1332.370696,8068.244768,-1225.752797
579.941516,5699.585753,9622.677246,459.657299
579.941837,6809.894666,10214.842000,0.000000
579.942157,5995.668130,9918.759623,-2451.505594
579.942478,8364.327145,11473.192101,-2298.286494
579.942798,7105.977043,11769.274478,-2068.457845
579.943119,4663.297435,9400.615463,-1302.362347
579.943439,8068.244768,5403.503377,1225.752797
579.943760,8512.368333,4367.215058,1915.238745
579.944080,7994.224174,6069.688724,1378.971896
579.944401,4885.359217,5773.606348,1302.362347
579.944722,3404.947333,4071.132681,-1762.019645
579.945042,5477.523971,3923.091493,-1149.143247
579.945363,7550.100608,7105.977043,2528.115143
579.945683,7624.121203,11177.109724,1532.190996
579.946004,7105.977043,11473.192101,0.000000
579.946324,5107.421000,10732.986159,-2604.724693
579.946645,5033.400406,8216.285956,-4290.134789
579.946965,2442.679609,4737.318029,-2757.943793
579.947286,2072.576638,5181.441594,-1455.581446
579.947606,3701.029710,9770.718434,-1685.410096
579.947927,2072.576638,10140.821405,0.000000
579.948247,4589.276840,11399.171507,76.609550
579.948568,7698.141797,12805.562797,919.314598
579.948889,666.185348,10362.883188,766.095498
579.949209,-740.205942,7105.977043,0.000000
579.949530,2738.761985,3330.926739,2145.067394
579.949850,5255.462188,2812.782580,5592.497135
579.950171,5403.503377,6957.935855,4749.792088
579.950491,5033.400406,8364.327145,-1991.848295
579.950812,3627.009116,11177.109724,-6894.859482
579.951132,4959.379811,11843.295072,-2987.772442
579.951453,5847.626942,9400.615463,2757.943793
579.951773,9030.512492,6069.688724,3294.210641
579.952094,7698.141797,6291.750507,1072.533697
579.952414,2738.761985,8660.409521,-2681.334243
579.952735,1332.370696,7920.203579,-4673.182538
579.953056,5255.462188,6439.791695,-3294.210641
579.953376,7920.203579,7476.080014,-1149.143247
579.953697,7105.977043,10510.924376,1685.410096
579.954017,5255.462188,10732.986159,766.095498
579.954338,5699.585753,11177.109724,-1149.143247
579.954658,5625.565159,9992.780217,842.705048
579.954979,3330.926739,7105.977043,2451.505594
579.955299,6069.688724,6143.709319,2681.334243
579.955620,4811.338623,5477.523971,3217.601092
579.955940,2368.659014,6661.853478,3064.381992
579.956261,4145.153275,5625.565159,153.219100
579.956581,4441.235652,5255.462188,-3140.991542
579.956902,4589.276840,7105.977043,-4213.525239
579.957223,5625.565159,9178.553681,-2834.553343
579.957543,6217.729913,10066.800811,-1991.848295
579.957864,7550.100608,10066.800811,0.000000
579.958184,6809.894666,8586.388927,2451.505594
579.958505,6735.874072,8660.409521,1838.629195
579.958825,4885.359217,8734.430116,-1302.362347
579.959146,3330.926739,6291.750507,-3524.039291
579.959466,4737.318029,7105.977043,-1378.971896
579.959787,5921.647536,7920.203579,1608.800546
579.960107,3775.050304,6217.729913,2834.553343
579.960428,6217.729913,6587.832884,842.705048
579.960748,5403.503377,7031.956449,-1225.752797
579.961069,3627.009116,7846.182985,-1762.019645
579.961390,3997.112087,6143.709319,995.924147
579.961710,6291.750507,5773.606348,1915.238745
579.962031,6291.750507,7179.997637,1608.800546
579.962351,4071.132681,8882.471304,-76.609550
579.962672,4367.215058,8956.491898,-4519.963438
579.962992,5329.482782,10362.883188,-6818.249932
579.963313,4885.359217,12657.521608,-3370.820191
579.963633,5403.503377,11399.171507,-1072.533697
579.963954,7105.977043,8882.471304,1225.752797
579.964274,5255.462188,8512.368333,2911.162892
579.964595,2960.823768,8586.388927,3524.039291
579.964915,1850.514855,7105.977043,2068.457845
579.965236,3701.029710,5699.585753,0.000000
579.965557,5033.400406,7254.018232,0.000000
579.965877,4737.318029,7179.997637,1378.971896
579.966198,5625.565159,8142.265362,229.828649
579.966518,4737.318029,7772.162391,153.219100
579.966839,4145.153275,6365.771101,306.438199
579.967159,6069.688724,7550.100608,-383.047749
579.967480,6439.791695,9474.636058,-766.095498
579.967800,4959.379811,11547.212695,-1072.533697
579.968121,6069.688724,11695.253884,1455.581446
579.968441,5995.668130,10140.821405,919.314598
579.968762,5181.441594,9252.574275,-1378.971896
579.969082,4663.297435,7994.224174,-2528.115143
579.969403,4663.297435,8512.368333,-3677.258390
579.969724,5107.421000,8216.285956,-1455.581446
579.970044,5551.544565,5329.482782,1762.019645
579.970365,7031.956449,4515.256246,3983.696590
579.970685,6661.853478,5773.606348,3524.039291
579.971006,3775.050304,9548.656652,1532.190996
579.971326,1258.350101,10066.800811,-766.095498
579.971647,5107.421000,7402.059420,-1072.533697
579.971967,9400.615463,4737.318029,919.314598
579.972288,7328.038826,4367.215058,1225.752797
579.972608,4589.276840,4737.318029,-1225.752797
579.972929,4071.132681,7550.100608,-3753.867940
579.973250,6217.729913,9918.759623,-2604.724693
579.973570,8290.306550,10362.883188,0.000000
579.973891,7772.162391,9474.636058,459.657299
579.974211,6365.771101,7920.203579,-1532.190996
579.974532,4145.153275,7254.018232,-995.924147
579.974852,3849.070898,5995.668130,0.000000
579.975173,4515.256246,3923.091493,-612.876398
579.975493,4811.338623,4737.318029,459.657299
579.975814,3775.050304,7328.038826,76.609550
579.976134,4737.318029,10881.027347,153.219100
579.976455,3478.967927,9622.677246,766.095498
579.976775,4293.194464,7698.141797,-766.095498
579.977096,4589.276840,5625.565159,536.266849
579.977417,4959.379811,5699.585753,995.924147
579.977737,4441.235652,8216.285956,919.314598
579.978058,5995.668130,10732.986159,-1378.971896
579.978378,5921.647536,11695.253884,-3983.696590
579.978699,6217.729913,11473.192101,-2528.115143
579.979019,4293.194464,8290.306550,0.000000
579.979340,6143.709319,7772.162391,1762.019645
579.979660,6439.791695,7772.162391,2298.286494
579.979981,4219.173869,9178.553681,-306.438199
579.980301,2072.576638,9400.615463,-3677.258390
579.980622,2442.679609,8882.471304,-2987.772442
579.980942,4589.276840,10436.903782,919.314598
579.981263,8068.244768,10881.027347,5056.230287
579.981584,5625.565159,9548.656652,3677.258390
579.981904,1924.535449,8512.368333,-612.876398
579.982225,1776.494261,9104.533087,-1072.533697
579.982545,1184.329507,7328.038826,2374.896044
579.982866,1924.535449,6439.791695,2757.943793
579.983186,7624.121203,6883.915261,2145.067394
579.983507,6291.750507,9696.697840,-995.924147
579.983827,3923.091493,11029.068536,-2911.162892
579.984148,3775.050304,8660.409521,-2834.553343
579.984468,6957.935855,5995.668130,-1991.848295
579.984789,7846.182985,6365.771101,0.000000
579.985109,7105.977043,8660.409521,1149.143247
579.985430,5699.585753,8586.388927,-2145.067394
579.985751,5995.668130,9474.636058,-3370.820191
579.986071,4589.276840,8956.491898,76.609550
579.986392,5847.626942,7624.121203,1455.581446
579.986712,4219.173869,3034.844362,1072.533697
579.987033,2886.803174,2886.803174,-995.924147
579.987353,3627.009116,7994.224174,-153.219100
579.987674,2960.823768,9548.656652,1838.629195
579.987994,4515.256246,8068.244768,919.314598
579.988315,7105.977043,6439.791695,459.657299
579.988635,4219.173869,6069.688724,-153.219100
579.988956,4811.338623,7846.182985,229.828649
579.989276,5403.503377,9030.512492,1532.190996
579.989597,4219.173869,9178.553681,-229.828649
579.989918,5329.482782,8364.327145,-1455.581446
579.990238,6587.832884,4959.379811,-3217.601092
579.990559,5995.668130,4885.359217,-4673.182538
579.990879,5847.626942,7105.977043,-1072.533697
579.991200,5699.585753,8068.244768,995.924147
579.991520,5995.668130,8882.471304,-306.438199
579.991841,7254.018232,9326.594869,689.485948
579.992161,6439.791695,7624.121203,1072.533697
579.992482,5107.421000,7254.018232,2068.457845
579.992802,6143.709319,8068.244768,3064.381992
579.993123,3701.029710,7179.997637,919.314598
579.993443,2664.741391,4663.297435,-1149.143247
579.993764,4589.276840,7328.038826,-1455.581446
579.994085,4737.318029,11103.089130,229.828649
579.994405,1776.494261,9400.615463,-842.705048
579.994726,6069.688724,7105.977043,-2221.676944
579.995046,7550.100608,7550.100608,-1378.971896
579.995367,3775.050304,9696.697840,229.828649
579.995687,3034.844362,12139.377449,1532.190996
579.996008,4071.132681,12287.418637,-536.266849
579.996328,4367.215058,11251.130318,-2374.896044
579.996649,5033.400406,10140.821405,-919.314598
579.996969,3034.844362,7179.997637,-2451.505594
579.997290,1406.391290,5699.585753,-2451.505594
579.997610,2294.638420,9178.553681,2068.457845
579.997931,3256.906145,10807.006753,3753.867940
579.998252,4811.338623,10510.924376,3370.820191
579.998572,3552.988522,9548.656652,1532.190996
579.998893,1702.473667,7772.162391,689.485948
579.999213,814.226536,6439.791695,1762.019645
579.999534,4441.235652,6439.791695,995.924147
579.999854,6217.729913,5847.626942,-2681.334243
580.000175,6735.874072,5181.441594,-3677.258390
580.000495,6883.915261,8290.306550,-3677.258390
580.000816,6661.853478,11843.295072,-1608.800546
580.001136,4811.338623,11029.068536,612.876398
580.001457,7328.038826,9992.780217,459.657299
580.001777,9622.677246,8586.388927,-536.266849
580.002098,5847.626942,5477.523971,-536.266849
580.002419,3849.070898,3182.885551,-459.657299
580.002739,5477.523971,2072.576638,-1762.019645
580.003060,5921.647536,4367.215058,-1532.190996
580.003380,6217.729913,7846.182985,-842.705048
580.003701,6365.771101,10584.944971,-1608.800546
580.004021,4959.379811,8956.491898,229.828649
580.004342,5995.668130,7328.038826,3370.820191
580.004662,5551.544565,6513.812290,3524.039291
580.004983,4219.173869,6365.771101,229.828649
580.005303,2960.823768,7772.162391,-3217.601092
580.005624,3627.009116,11547.212695,-3830.477490
580.005944,3552.988522,10140.821405,-383.047749
580.006265,5107.421000,8734.430116,2221.676944
580.006585,8142.265362,8882.471304,1149.143247
580.006905,2886.803174,10362.883188,-919.314598
580.007226,-740.205942,10436.903782,-2451.505594
580.007546,1998.556043,8808.450710,536.266849
580.007867,4071.132681,6439.791695,4673.182538
580.008187,5773.606348,5625.565159,5822.325785
580.008508,5403.503377,8290.306550,1608.800546
580.008828,2220.617826,9696.697840,-6052.154434
580.009149,3108.864956,10732.986159,-5745.716235
580.009469,6957.935855,9178.553681,383.047749
580.009790,9252.574275,6513.812290,3064.381992
580.010110,9474.636058,6957.935855,5439.278036
580.010430,5995.668130,8512.368333,1608.800546
580.010751,2960.823768,8882.471304,-3370.820191
580.011071,5551.544565,5847.626942,-4366.744339
580.011392,9030.512492,4441.235652,-2987.772442
580.011712,10658.965565,6143.709319,-1072.533697
580.012033,9104.533087,8068.244768,0.000000
580.012353,6217.729913,8956.491898,-1225.752797
580.012674,6661.853478,7846.182985,-995.924147
580.012994,7846.182985,8438.347739,1838.629195
580.013315,5551.544565,5033.400406,2374.896044
580.013635,6365.771101,3478.967927,0.000000
580.013955,8438.347739,5033.400406,-766.095498
580.014276,5995.668130,6957.935855,-459.657299
580.014596,6069.688724,6217.729913,-842.705048
580.014917,7476.080014,5995.668130,-1378.971896
580.015237,6735.874072,6809.894666,-2681.334243
580.015558,5921.647536,7105.977043,-1762.019645
580.015878,7105.977043,5921.647536,0.000000
580.016199,7179.997637,5107.421000,0.000000
580.016519,7254.018232,7105.977043,1685.410096
580.016839,6513.812290,9770.718434,536.266849
580.017160,5033.400406,10140.821405,-3830.477490
580.017480,5995.668130,8438.347739,-4366.744339
580.017801,9844.739029,7846.182985,0.000000
580.018121,9178.553681,8142.265362,1915.238745
580.018442,6143.709319,5921.647536,1072.533697
580.018762,4737.318029,4885.359217,0.000000
580.019083,4219.173869,3775.050304,459.657299
580.019403,8734.430116,4663.297435,2298.286494
580.019724,9696.697840,7179.997637,3294.210641
580.020044,8364.327145,6217.729913,-2145.067394
580.020364,9178.553681,5107.421000,-2681.334243
580.020685,10955.047942,5403.503377,-612.876398
580.021005,9770.718434,4145.153275,0.000000
580.021326,12583.501014,5033.400406,306.438199
580.021646,12435.459826,7105.977043,-1915.238745
580.021967,10955.047942,9918.759623,-4060.306139
580.022287,10140.821405,9104.533087,-2451.505594
580.022608,11177.109724,5921.647536,-383.047749
580.022928,11991.336260,4737.318029,766.095498
580.023249,10288.862594,5625.565159,2068.457845
580.023569,7328.038826,5995.668130,536.266849
580.023889,4959.379811,3034.844362,-1532.190996
580.024210,7328.038826,888.247130,995.924147
580.024530,9474.636058,2886.803174,4136.915689
580.024851,8808.450710,4959.379811,3370.820191
580.025171,9400.615463,6883.915261,1685.410096
580.025492,9992.780217,6365.771101,-153.219100
580.025812,9918.759623,3627.009116,-383.047749
580.026133,12879.583391,2442.679609,842.705048
580.026453,12213.398043,2960.823768,0.000000
580.026773,11473.192101,4663.297435,-3370.820191
580.027094,12287.418637,5403.503377,-3907.087040
580.027414,12953.603985,4737.318029,-3217.601092
580.027735,13027.624579,3627.009116,-1149.143247
580.028055,11251.130318,3997.112087,1608.800546
580.028376,9400.615463,5329.482782,536.266849
580.028696,8142.265362,5403.503377,-1532.190996
580.029017,9252.574275,4367.215058,-842.705048
580.029337,10436.903782,3256.906145,842.705048
580.029658,8586.388927,3775.050304,1915.238745
580.029978,4811.338623,4589.276840,1455.581446
580.030298,4737.318029,7105.977043,-1302.362347
580.030619,5625.565159,8068.244768,-689.485948
580.030939,7402.059420,7698.141797,1225.752797
580.031260,10214.842000,7772.162391,3370.820191
580.031580,7476.080014,6809.894666,1532.190996
580.031901,5551.544565,6439.791695,-1225.752797
580.032221,6513.812290,5329.482782,-306.438199
580.032542,8364.327145,3849.070898,-1378.971896
580.032862,10214.842000,5181.441594,-1302.362347
580.033183,11251.130318,6735.874072,-229.828649
580.033503,9844.739029,6883.915261,-766.095498
580.033823,12509.480420,7624.121203,383.047749
580.034144,12435.459826,7994.224174,1302.362347
580.034464,10436.903782,5699.585753,306.438199
580.034785,8364.327145,3182.885551,153.219100
580.035105,8438.347739,2886.803174,612.876398
580.035426,8438.347739,5329.482782,842.705048
580.035746,8438.347739,7105.977043,383.047749
580.036067,8956.491898,8660.409521,-2834.553343
580.036387,8882.471304,8734.430116,-2834.553343
580.036707,7698.141797,7402.059420,306.438199
580.037028,8068.244768,5551.544565,2145.067394
580.037348,7328.038826,3997.112087,1072.533697
580.037669,7846.182985,5107.421000,459.657299
580.037989,7920.203579,6661.853478,306.438199
580.038310,7624.121203,5625.565159,-1149.143247
580.038630,9030.512492,4515.256246,-2068.457845
580.038951,10066.800811,4367.215058,536.266849
580.039271,9918.759623,5699.585753,689.485948
580.039592,9326.594869,6217.729913,153.219100
580.039912,8808.450710,5181.441594,-995.924147
580.040232,11547.212695,4145.153275,0.000000
580.040553,12213.398043,4589.276840,2145.067394
580.040873,10807.006753,4293.194464,1608.800546
580.041194,10510.924376,4515.256246,-536.266849
580.041514,11991.336260,4663.297435,-1302.362347
580.041835,11769.274478,3108.864956,-766.095498
580.042155,11843.295072,1480.411884,0.000000
580.042476,12139.377449,1258.350101,-689.485948
580.042796,10955.047942,3775.050304,-2221.676944
580.043117,9474.636058,4885.359217,-2145.067394
580.043437,10658.965565,4441.235652,-1685.410096
580.043757,11103.089130,3701.029710,-459.657299
580.044078,9844.739029,5107.421000,0.000000
580.044398,9548.656652,6883.915261,612.876398
580.044719,8364.327145,7624.121203,-1302.362347
580.045039,7550.100608,6439.791695,-2451.505594
580.045360,8512.368333,6661.853478,-842.705048
580.045680,8882.471304,6809.894666,995.924147
580.046001,7920.203579,7994.224174,1455.581446
580.046321,7105.977043,7402.059420,1225.752797
580.046641,6365.771101,5625.565159,0.000000
580.046962,7624.121203,4589.276840,1455.581446
580.047282,8364.327145,5403.503377,3294.210641
580.047603,7920.203579,6069.688724,3524.039291
580.047923,8512.368333,5329.482782,612.876398
580.048244,10362.883188,5181.441594,-383.047749
580.048564,10066.800811,5107.421000,-1072.533697
580.048885,10658.965565,5033.400406,306.438199
580.049205,11621.233289,5921.647536,536.266849
580.049526,11325.150913,5847.626942,-1072.533697
580.049846,11769.274478,5255.462188,-1072.533697
580.050166,12287.418637,4737.318029,-536.266849
580.050487,12361.439231,5107.421000,-1225.752797
580.050807,10732.986159,6439.791695,-766.095498
580.051128,9400.615463,7031.956449,-1225.752797
580.051448,9104.533087,4737.318029,-1991.848295
580.051769,9474.636058,2368.659014,-383.047749
580.052089,9770.718434,3923.091493,919.314598
580.052410,6809.894666,4959.379811,-153.219100
580.052730,5107.421000,5477.523971,-2145.067394
580.053051,7105.977043,6513.812290,-1991.848295
580.053371,8290.306550,7402.059420,-383.047749
580.053691,8438.347739,8068.244768,1225.752797
580.054012,7698.141797,8512.368333,612.876398
580.054332,6069.688724,7624.121203,-1225.752797
580.054653,6291.750507,6883.915261,229.828649
580.054973,7772.162391,5403.503377,1991.848295
580.055294,8142.265362,4071.132681,919.314598
580.055614,8142.265362,4737.318029,919.314598
580.055935,8290.306550,5181.441594,919.314598
580.056255,8660.409521,4515.256246,383.047749
580.056575,11399.171507,3701.029710,1532.190996
580.056896,12731.542202,3552.988522,919.314598
580.057216,11695.253884,3923.091493,-459.657299
580.057537,12213.398043,3849.070898,-612.876398
580.057857,13249.686362,3775.050304,229.828649
580.058178,14508.036463,3478.967927,0.000000
580.058498,14952.160028,4145.153275,-1608.800546
580.058819,13175.665768,5773.606348,-3600.648841
580.059139,11769.274478,6365.771101,-3217.601092
580.059460,12435.459826,6069.688724,-229.828649
580.059780,12879.583391,3478.967927,1838.629195
580.060100,11769.274478,2220.617826,536.266849
580.060421,9844.739029,3256.906145,-766.095498
580.060741,7254.018232,5551.544565,-1608.800546
580.061062,7105.977043,5995.668130,-153.219100
580.061382,9326.594869,5329.482782,1838.629195
580.061703,9770.718434,5551.544565,1532.190996
580.062023,7179.997637,7698.141797,995.924147
580.062344,5255.462188,9178.553681,0.000000
580.062664,4737.318029,8956.491898,-459.657299
580.062985,5403.503377,6513.812290,459.657299
580.063305,6957.935855,5107.421000,2221.676944
580.063625,7328.038826,5255.462188,2451.505594
580.063946,6069.688724,5995.668130,766.095498
580.064266,5847.626942,6957.935855,-995.924147
580.064587,8290.306550,6661.853478,-229.828649
580.064907,9992.780217,6143.709319,0.000000
580.065228,11177.109724,5107.421000,1915.238745
580.065548,11695.253884,5107.421000,1455.581446
580.065869,10732.986159,4885.359217,-306.438199
580.066189,10584.944971,3478.967927,-1378.971896
580.066509,10807.006753,1776.494261,-1915.238745
580.066830,12065.356855,2368.659014,-1608.800546
580.067150,13027.624579,5625.565159,-1149.143247
580.067471,11473.192101,7624.121203,-1608.800546
580.067791,10807.006753,6587.832884,-2451.505594
580.068112,11251.130318,4663.297435,-766.095498
580.068432,9400.615463,3182.885551,153.219100
580.068753,7846.182985,2886.803174,-766.095498
580.069073,8438.347739,4145.153275,-1915.238745
580.069394,8660.409521,7105.977043,-1838.629195
580.069714,8586.388927,8882.471304,-536.266849
580.070034,8216.285956,9326.594869,766.095498
580.070355,6883.915261,8216.285956,153.219100
580.070675,5773.606348,6809.894666,383.047749
580.070996,5773.606348,5625.565159,2221.676944
580.071316,5773.606348,4737.318029,1915.238745
580.071637,6365.771101,4071.132681,919.314598
580.071957,7476.080014,4589.276840,766.095498
580.072278,9030.512492,6809.894666,536.266849
580.072598,9474.636058,7698.141797,689.485948
580.072919,10140.821405,7179.997637,0.000000
580.073239,11325.150913,5107.421000,-306.438199
580.073559,11251.130318,3701.029710,76.609550
580.073880,10955.047942,3923.091493,689.485948
580.074200,11177.109724,4515.256246,-153.219100
580.074521,11843.295072,4663.297435,-1685.410096
580.074841,12435.459826,5403.503377,-2374.896044
580.075162,12139.377449,6365.771101,-2374.896044
580.075482,12139.377449,6735.874072,-1915.238745
580.075803,11029.068536,6069.688724,153.219100
580.076123,9622.677246,4589.276840,842.705048
580.076443,8808.450710,3552.988522,306.438199
580.076764,8068.244768,4071.132681,-383.047749
580.077084,7772.162391,4959.379811,153.219100
580.077405,8068.244768,5403.503377,-612.876398
580.077725,7920.203579,5847.626942,-766.095498
580.078046,8068.244768,6439.791695,0.000000
580.078366,7920.203579,6439.791695,0.000000
580.078687,7402.059420,6809.894666,1455.581446
580.079007,7402.059420,6513.812290,1838.629195
580.079328,7105.977043,5773.606348,1225.752797
580.079648,7772.162391,5033.400406,153.219100
580.079968,8512.368333,5403.503377,0.000000
580.080289,8956.491898,5107.421000,0.000000
580.080609,9548.656652,4885.359217,-842.705048
580.080930,9326.594869,3701.029710,-306.438199
580.081250,9548.656652,3552.988522,-459.657299
580.081571,10140.821405,4367.215058,612.876398
580.081891,10066.800811,5995.668130,459.657299
580.082212,9992.780217,6439.791695,153.219100
580.082532,10584.944971,5699.585753,-689.485948
580.082853,10362.883188,4885.359217,-842.705048
580.083173,9474.636058,5181.441594,-689.485948
580.083493,9104.533087,5921.647536,-919.314598
580.083814,9178.553681,7105.977043,-1378.971896
580.084134,9104.533087,7179.997637,-1302.362347
580.084455,9030.512492,6291.750507,-306.438199
580.084775,8956.491898,4885.359217,0.000000
580.085096,7920.203579,4367.215058,612.876398
580.085416,7994.224174,3701.029710,383.047749
580.085737,9030.512492,3997.112087,76.609550
580.086057,9696.697840,4737.318029,-536.266849
580.086377,9992.780217,6439.791695,-766.095498
580.086698,10066.800811,7772.162391,-536.266849
580.087018,9844.739029,8586.388927,-383.047749
580.087339,9696.697840,8364.327145,229.828649
580.087659,9622.677246,8216.285956,0.000000
580.087980,8956.491898,6957.935855,0.000000
580.088300,7846.182985,5847.626942,536.266849
580.088621,7772.162391,4663.297435,1991.848295
580.088941,7550.100608,4071.132681,2604.724693
580.089262,7698.141797,4293.194464,2298.286494
580.089582,7846.182985,4885.359217,1225.752797
580.089902,7920.203579,5329.482782,76.609550
580.090223,8216.285956,5107.421000,-689.485948
580.090543,8882.471304,4737.318029,-459.657299
580.090864,9844.739029,5033.400406,-842.705048
580.091184,10288.862594,6587.832884,-1532.190996
580.091505,10658.965565,7550.100608,-2451.505594
580.091825,10510.924376,8216.285956,-2298.286494
580.092146,10658.965565,7254.018232,-1072.533697
580.092466,10807.006753,5847.626942,229.828649
580.092787,10066.800811,4663.297435,689.485948
580.093107,9030.512492,3701.029710,229.828649
580.093427,8734.430116,2886.803174,689.485948
580.093748,8956.491898,1998.556043,536.266849
580.094068,9474.636058,1924.535449,536.266849
580.094389,9992.780217,3108.864956,995.924147
580.094709,9844.739029,5995.668130,-306.438199
580.095030,9548.656652,7994.224174,-153.219100
580.095350,9474.636058,9178.553681,536.266849
580.095671,8586.388927,8808.450710,919.314598
580.095991,7402.059420,8068.244768,1685.410096
580.096311,5699.585753,7624.121203,689.485948
580.096632,4145.153275,7105.977043,-229.828649
580.096952,3923.091493,6217.729913,-536.266849
580.097273,4441.235652,5551.544565,0.000000
580.097593,4737.318029,5847.626942,919.314598
580.097914,4219.173869,6809.894666,1378.971896
580.098234,4737.318029,9030.512492,2145.067394
580.098555,5255.462188,10732.986159,2681.334243
580.098875,6365.771101,10881.027347,3370.820191
580.099196,7105.977043,10288.862594,3753.867940
580.099516,6735.874072,9400.615463,2681.334243
580.099836,5921.647536,8660.409521,3064.381992
580.100157,5477.523971,8734.430116,2451.505594
580.100477,5625.565159,9400.615463,2221.676944
580.100798,6439.791695,9400.615463,2834.553343
580.101118,6513.812290,8734.430116,3140.991542
580.101439,5921.647536,8734.430116,4519.963438
580.101759,5995.668130,8512.368333,4903.011187
580.102080,5773.606348,8808.450710,5209.449386
580.102400,6439.791695,7994.224174,5056.230287
580.102721,7031.956449,8290.306550,5056.230287
580.103041,6957.935855,8882.471304,5822.325785
580.103361,6661.853478,9474.636058,6511.811733
580.103682,5921.647536,9918.759623,7277.907231
580.104002,5625.565159,9030.512492,7354.516781
580.104323,5699.585753,8586.388927,7201.297681
580.104643,5033.400406,7402.059420,6894.859482
580.104964,4515.256246,6069.688724,6128.763984
580.105284,4589.276840,4811.338623,6971.469032
580.105605,4441.235652,4811.338623,6818.249932
580.105925,4885.359217,6291.750507,6358.592633
580.106246,5403.503377,7698.141797,5822.325785
580.106566,5329.482782,8364.327145,5669.106685
580.106886,5847.626942,8734.430116,6128.763984
580.107207,5847.626942,7550.100608,7048.078582
580.107527,5033.400406,6957.935855,7660.954980
580.107848,4367.215058,6217.729913,7048.078582
580.108168,3775.050304,6069.688724,7201.297681
580.108489,3701.029710,6291.750507,6128.763984
580.108810,3478.967927,5847.626942,5669.106685
580.109130,3330.926739,4663.297435,6205.373534
580.109451,3552.988522,4367.215058,6588.421283
580.109771,3256.906145,5329.482782,6588.421283
580.110092,3108.864956,6143.709319,6052.154434
580.110412,3478.967927,7105.977043,5975.544884
580.110733,4441.235652,7994.224174,6205.373534
580.111053,5255.462188,8808.450710,6205.373534
580.111374,4737.318029,8808.450710,5822.325785
580.111694,4515.256246,7994.224174,5286.058936
580.112015,4663.297435,7179.997637,5209.449386
580.112335,3552.988522,5995.668130,5439.278036
580.112656,3627.009116,4811.338623,4443.353888
580.112976,3330.926739,4663.297435,3830.477490
580.113297,3701.029710,5255.462188,3294.210641
580.113617,4811.338623,6809.894666,3524.039291
580.113938,5551.544565,7624.121203,3294.210641
580.114258,6143.709319,8438.347739,2987.772442
580.114579,6513.812290,10140.821405,3140.991542
580.114899,6957.935855,11399.171507,3753.867940
580.115220,6735.874072,11473.192101,4366.744339
580.115540,6735.874072,11103.089130,5592.497135
580.115861,6143.709319,10881.027347,6665.030833
580.116181,5033.400406,10955.047942,6281.983084
580.116502,3627.009116,9326.594869,5592.497135
580.116822,2220.617826,6143.709319,3907.087040
580.117143,2146.597232,2960.823768,2298.286494
580.117463,2738.761985,2072.576638,2374.896044
580.117784,4737.318029,4145.153275,1838.629195
580.118105,6217.729913,8882.471304,306.438199
580.118425,7772.162391,13767.830521,-612.876398
580.118746,9696.697840,17024.736666,-689.485948
580.119066,10362.883188,17246.798449,1685.410096
580.119387,9326.594869,15766.386565,3983.696590
580.119707,7920.203579,11695.253884,5362.668486
580.120028,6069.688724,7476.080014,6052.154434
580.120348,5995.668130,5847.626942,6665.030833
580.120669,3182.885551,5551.544565,6971.469032
580.120989,1776.494261,6143.709319,4979.620737
580.121310,1702.473667,6143.709319,2987.772442
580.121630,3478.967927,5921.647536,2681.334243
580.121951,3849.070898,5255.462188,2987.772442
580.122271,6513.812290,6291.750507,4596.572988
580.122592,7624.121203,9474.636058,3600.648841
580.122912,6439.791695,13471.748144,2451.505594
580.123233,6217.729913,14582.057057,1762.019645
580.123553,8512.368333,14211.954086,1532.190996
580.123874,9252.574275,12509.480420,2757.943793
580.124194,6735.874072,9030.512492,4443.353888
580.124515,5033.400406,5625.565159,5745.716235
580.124835,3849.070898,4145.153275,7048.078582
580.125156,1924.535449,4737.318029,6281.983084
580.125476,3330.926739,5329.482782,4213.525239
580.125797,5477.523971,6809.894666,3064.381992
580.126117,4145.153275,6513.812290,4903.011187
580.126438,5033.400406,6217.729913,7584.345430
580.126758,6809.894666,7105.977043,9039.926876
580.127079,5921.647536,10510.924376,7967.393179
580.127400,3256.906145,11621.233289,6358.592633
580.127720,3182.885551,10288.862594,4366.744339
580.128041,5625.565159,8808.450710,4060.306139
580.128361,4589.276840,7105.977043,7201.297681
580.128682,4959.379811,7698.141797,9193.145976
580.129002,3997.112087,8808.450710,9652.803275
580.129323,1406.391290,8216.285956,6358.592633
580.129643,1036.288319,5255.462188,5132.839837
580.129964,3627.009116,3552.988522,5132.839837
580.130284,3256.906145,2220.617826,6818.249932
580.130605,5033.400406,3849.070898,7890.783629
580.130925,7698.141797,8882.471304,7507.735880
580.131246,7105.977043,13101.645173,4903.011187
580.131566,3182.885551,10881.027347,2911.162892
580.131887,4515.256246,6957.935855,4519.963438
580.132207,5329.482782,5033.400406,6588.421283
580.132528,2664.741391,4441.235652,8350.440928
580.132848,3701.029710,5329.482782,8427.050478
580.133169,5773.606348,8586.388927,7660.954980
580.133489,3182.885551,11843.295072,5592.497135
580.133810,2590.720797,11843.295072,4979.620737
580.134130,4515.256246,9178.553681,3524.039291
580.134451,3701.029710,5699.585753,3524.039291
580.134771,3404.947333,3034.844362,7201.297681
580.135092,5921.647536,3330.926739,9806.022374
580.135412,6365.771101,5847.626942,7890.783629
580.135733,2738.761985,7550.100608,5056.230287
580.136053,3552.988522,7994.224174,2681.334243
580.136374,7105.977043,8808.450710,3753.867940
580.136695,5181.441594,9696.697840,7124.688131
580.137015,5329.482782,9844.739029,7814.174080
580.137336,8068.244768,9696.697840,5056.230287
580.137656,6957.935855,9104.533087,1762.019645
580.137977,3478.967927,6661.853478,229.828649
580.138297,5403.503377,5477.523971,612.876398
580.138618,7846.182985,6439.791695,3600.648841
580.138938,5329.482782,8660.409521,6052.154434
580.139259,5255.462188,10140.821405,6358.592633
580.139579,6957.935855,11843.295072,4673.182538
580.139900,5773.606348,12287.418637,4136.915689
580.140220,4145.153275,10436.903782,4979.620737
580.140541,4145.153275,8512.368333,4519.963438
580.140861,3849.070898,7476.080014,4903.011187
580.141182,3923.091493,8290.306550,5745.716235
580.141502,4959.379811,8512.368333,5822.325785
580.141823,4959.379811,9474.636058,3600.648841
580.142143,3182.885551,10214.842000,2987.772442
580.142464,4219.173869,10584.944971,4596.572988
580.142784,5847.626942,9474.636058,6511.811733
580.143105,6809.894666,8586.388927,6281.983084
580.143425,5921.647536,8808.450710,4136.915689
580.143746,5255.462188,9326.594869,2681.334243
580.144066,5699.585753,8512.368333,3370.820191
580.144387,6957.935855,7254.018232,5592.497135
580.144707,7254.018232,6957.935855,4979.620737
580.145028,6513.812290,7698.141797,3064.381992
580.145348,5403.503377,8586.388927,2757.943793
580.145669,5847.626942,8882.471304,3753.867940
580.145990,6217.729913,7402.059420,4903.011187
580.146310,6291.750507,4885.359217,4443.353888
580.146631,6513.812290,5033.400406,3677.258390
580.146951,4737.318029,7624.121203,3907.087040
580.147272,2220.617826,9030.512492,4290.134789
580.147592,3849.070898,9030.512492,4826.401637
580.147913,5329.482782,8808.450710,4903.011187
580.148233,4367.215058,7920.203579,5592.497135
580.148554,3997.112087,8586.388927,5439.278036
580.148874,2960.823768,10140.821405,4519.963438
580.149195,666.185348,9696.697840,4596.572988
580.149515,1480.411884,7031.956449,6358.592633
580.149836,4959.379811,5921.647536,7277.907231
580.150156,4811.338623,7179.997637,7277.907231
580.150477,2886.803174,9178.553681,6052.154434
580.150797,3256.906145,9622.677246,3983.696590
580.151118,4663.297435,8586.388927,4136.915689
580.151438,4811.338623,6143.709319,6818.249932
580.151759,6217.729913,5477.523971,7584.345430
580.152079,7105.977043,7328.038826,6435.202183
580.152400,4515.256246,9326.594869,5209.449386
580.152720,3775.050304,7772.162391,4060.306139
580.153041,6587.832884,4441.235652,4366.744339
580.153361,8068.244768,4737.318029,5898.935335
580.153682,7328.038826,6957.935855,6511.811733
580.154002,5847.626942,8956.491898,4979.620737
580.154323,4737.318029,8882.471304,2528.115143
580.154643,5773.606348,8290.306550,3524.039291
580.154964,6291.750507,7550.100608,5286.058936
580.155284,5995.668130,7624.121203,6052.154434
580.155605,3330.926739,7698.141797,5439.278036
580.155926,2072.576638,7550.100608,3753.867940
580.156246,3108.864956,6809.894666,2987.772442
580.156567,3701.029710,7846.182985,2987.772442
580.156887,4663.297435,10955.047942,3907.087040
580.157208,3627.009116,12287.418637,4903.011187
580.157528,3108.864956,10807.006753,5056.230287
580.157849,4071.132681,10140.821405,5822.325785
580.158169,3552.988522,8734.430116,7890.783629
580.158490,3034.844362,7550.100608,8273.831378
580.158810,4293.194464,8660.409521,7277.907231
580.159131,3330.926739,9474.636058,4979.620737
580.159451,4145.153275,8586.388927,3677.258390
580.159772,5773.606348,5921.647536,4673.182538
580.160092,6217.729913,5551.544565,5286.058936
580.160413,3627.009116,5921.647536,5669.106685
580.160733,5477.523971,7994.224174,2987.772442
580.161054,7105.977043,8290.306550,995.924147
580.161374,7846.182985,8068.244768,2451.505594
580.161695,8216.285956,8882.471304,4519.963438
580.162015,8290.306550,10436.903782,3677.258390
580.162336,5551.544565,8216.285956,2528.115143
580.162656,6957.935855,6587.832884,2757.943793
580.162977,9178.553681,7402.059420,2911.162892
580.163297,6291.750507,8586.388927,3447.429741
580.163618,3330.926739,8142.265362,4060.306139
580.163938,5107.421000,6809.894666,4366.744339
580.164259,4737.318029,6883.915261,5362.668486
580.164579,3775.050304,7476.080014,5975.544884
580.164900,3256.906145,7254.018232,2604.724693
580.165221,2886.803174,7105.977043,1302.362347
580.165541,3404.947333,9326.594869,4366.744339
580.165862,4589.276840,10288.862594,6128.763984
580.166182,4737.318029,10214.842000,4136.915689
580.166503,3627.009116,9918.759623,3677.258390
580.166823,3997.112087,11029.068536,4443.353888
580.167144,5625.565159,11029.068536,5209.449386
580.167464,4737.318029,8882.471304,5515.887586
580.167785,5551.544565,7624.121203,5132.839837
580.168105,5699.585753,6957.935855,5209.449386
580.168426,4071.132681,5847.626942,5898.935335
580.168746,4071.132681,5403.503377,5515.887586
580.169067,7328.038826,6217.729913,3907.087040
580.169387,7179.997637,7476.080014,2911.162892
580.169708,5403.503377,5921.647536,2834.553343
580.170028,7328.038826,6735.874072,4366.744339
580.170349,8216.285956,7846.182985,5669.106685
580.170669,6143.709319,8068.244768,3753.867940
580.170990,6291.750507,8586.388927,0.000000
580.171310,7031.956449,9252.574275,153.219100
580.171631,6735.874072,10140.821405,3677.258390
580.171951,6587.832884,10066.800811,6128.763984
580.172272,5329.482782,9548.656652,4903.011187
580.172592,2812.782580,8142.265362,3677.258390
580.172913,1406.391290,6143.709319,4826.401637
580.173233,1924.535449,5699.585753,4903.011187
580.173554,3034.844362,6957.935855,5056.230287
580.173874,1776.494261,7846.182985,5209.449386
580.174195,1924.535449,9326.594869,4596.572988
580.174516,4145.153275,10584.944971,6052.154434
580.174836,4589.276840,10584.944971,6358.592633
580.175157,3034.844362,7624.121203,4596.572988
580.175477,2886.803174,5477.523971,4596.572988
580.175798,3923.091493,7328.038826,5439.278036
580.176118,5551.544565,10140.821405,6052.154434
580.176439,6661.853478,11473.192101,4136.915689
580.176759,4811.338623,8512.368333,306.438199
580.177080,5181.441594,5551.544565,383.047749
580.177400,3849.070898,4737.318029,3524.039291
580.177721,3701.029710,5625.565159,4443.353888
580.178041,5107.421000,5995.668130,2681.334243
580.178362,7105.977043,7772.162391,842.705048
580.178682,5773.606348,9770.718434,766.095498
580.179003,5625.565159,8512.368333,1608.800546
580.179323,6217.729913,8216.285956,1991.848295
580.179644,5773.606348,6365.771101,2374.896044
580.179964,3627.009116,6217.729913,2987.772442
580.180285,5847.626942,7698.141797,1455.581446
580.180605,7846.182985,10288.862594,2068.457845
580.180926,4737.318029,10362.883188,2374.896044
580.181246,4515.256246,8882.471304,689.485948
580.181567,5551.544565,6069.688724,612.876398
580.181887,4293.194464,4071.132681,3370.820191
580.182208,3404.947333,2442.679609,4290.134789
580.182528,5995.668130,5625.565159,1149.143247
580.182849,2664.741391,6439.791695,-1838.629195
580.183169,3997.112087,9030.512492,-1991.848295
580.183490,8660.409521,11473.192101,-306.438199
580.183811,8586.388927,13619.789333,1378.971896
580.184131,6365.771101,13027.624579,2451.505594
580.184452,5329.482782,11251.130318,1991.848295
580.184772,2886.803174,8882.471304,1225.752797
580.185093,962.267725,4663.297435,2298.286494
580.185413,4293.194464,4145.153275,1225.752797
580.185734,3404.947333,4885.359217,-153.219100
580.186054,4737.318029,7328.038826,-383.047749
580.186375,5847.626942,9104.533087,-919.314598
580.186695,4663.297435,8068.244768,-3140.991542
580.187016,4737.318029,7179.997637,-689.485948
580.187336,9178.553681,8142.265362,1685.410096
580.187657,8142.265362,9696.697840,153.219100
580.187977,7698.141797,11621.233289,-2451.505594
580.188298,7920.203579,12361.439231,-3830.477490
580.188618,6735.874072,10881.027347,-3294.210641
580.188939,6735.874072,8660.409521,383.047749
580.189259,6069.688724,8512.368333,1225.752797
580.189580,2812.782580,8512.368333,-1608.800546
580.189900,3034.844362,7550.100608,-1532.190996
580.190221,2220.617826,6587.832884,536.266849
580.190541,2886.803174,6513.812290,2298.286494
580.190862,5033.400406,8734.430116,3600.648841
580.191182,4367.215058,10362.883188,1302.362347
580.191503,1776.494261,8512.368333,-1532.190996
580.191823,4219.173869,6957.935855,0.000000
580.192144,7179.997637,9474.636058,2298.286494
580.192464,3552.988522,8290.306550,1149.143247
580.192785,5107.421000,8216.285956,-1302.362347
580.193106,6735.874072,8956.491898,-2528.115143
580.193426,5551.544565,9548.656652,-1991.848295
580.193747,6883.915261,8660.409521,383.047749
580.194067,7846.182985,8068.244768,-766.095498
580.194388,5255.462188,6587.832884,-1915.238745
580.194708,5107.421000,6883.915261,383.047749
580.195029,8512.368333,7994.224174,1072.533697
580.195349,5625.565159,5921.647536,229.828649
580.195670,5477.523971,6291.750507,612.876398
580.195990,6735.874072,9104.533087,-919.314598
580.196311,4071.132681,9696.697840,-995.924147
580.196631,2442.679609,7846.182985,2451.505594
580.196952,6587.832884,7179.997637,2374.896044
580.197272,4293.194464,6587.832884,153.219100
580.197593,-592.164754,5625.565159,-995.924147
580.197913,4367.215058,8512.368333,-995.924147
580.198234,5921.647536,9844.739029,-1838.629195
580.198554,3552.988522,8882.471304,-842.705048
580.198875,5329.482782,9696.697840,-842.705048
580.199195,5995.668130,10732.986159,-995.924147
580.199516,4589.276840,12139.377449,2681.334243
580.199836,4959.379811,10066.800811,3217.601092
580.200157,5921.647536,7105.977043,-766.095498
580.200477,3997.112087,5699.585753,153.219100
580.200798,1258.350101,4367.215058,4366.744339
580.201118,1332.370696,1702.473667,3294.210641
580.201439,4145.153275,3997.112087,459.657299
580.201759,3997.112087,7105.977043,-1532.190996
580.202080,1554.432478,5921.647536,-4213.525239
580.202401,5033.400406,6587.832884,-2681.334243
580.202721,7476.080014,9326.594869,1225.752797
580.203042,4885.359217,10510.924376,-1302.362347
580.203362,6291.750507,10140.821405,-4749.792088
580.203683,6883.915261,11843.295072,-6052.154434
580.204003,5921.647536,12139.377449,-4060.306139
580.204324,6439.791695,9992.780217,153.219100
580.204644,6957.935855,7328.038826,842.705048
580.204965,3108.864956,4293.194464,0.000000
580.205285,4367.215058,6587.832884,1915.238745
580.205606,5773.606348,7476.080014,1685.410096
580.205926,1480.411884,4219.173869,-2068.457845
580.206247,3552.988522,3034.844362,-2068.457845
580.206567,10066.800811,7179.997637,995.924147
580.206888,7920.203579,9992.780217,2604.724693
580.207208,7105.977043,12361.439231,995.924147
580.207529,7994.224174,13471.748144,-3830.477490
580.207850,6809.894666,12583.501014,-4979.620737
580.208170,4515.256246,9400.615463,-229.828649
580.208491,6069.688724,7105.977043,2987.772442
580.208811,7920.203579,7402.059420,2834.553343
580.209132,4589.276840,10881.027347,229.828649
580.209452,2368.659014,9622.677246,-2528.115143
580.209773,2516.700203,6587.832884,-3600.648841
580.210093,5329.482782,6069.688724,306.438199
580.210414,8512.368333,8290.306550,3294.210641
580.210735,7105.977043,9918.759623,1302.362347
580.211055,4811.338623,9770.718434,-919.314598
580.211376,4145.153275,7772.162391,-383.047749
580.211696,3923.091493,6143.709319,-689.485948
580.212017,5847.626942,5625.565159,-229.828649
580.212337,5107.421000,7550.100608,-306.438199
580.212658,6143.709319,11177.109724,-2221.676944
580.212979,6809.894666,14508.036463,-1455.581446
580.213299,3849.070898,11621.233289,76.609550
580.213620,3108.864956,5847.626942,-919.314598
580.213940,1924.535449,2812.782580,-1608.800546
580.214261,1702.473667,3552.988522,-1378.971896
580.214581,4441.235652,7254.018232,-612.876398
580.214902,6069.688724,10140.821405,153.219100
580.215223,3923.091493,8734.430116,1991.848295
580.215543,3997.112087,7476.080014,2374.896044
580.215864,4811.338623,8882.471304,2604.724693
580.216184,3256.906145,10807.006753,1762.019645
580.216505,3627.009116,8734.430116,1455.581446
580.216825,5551.544565,6439.791695,919.314598
580.217146,5107.421000,5403.503377,1149.143247
580.217466,4145.153275,5995.668130,2298.286494
580.217787,2664.741391,5477.523971,-306.438199
580.218108,4959.379811,5995.668130,-2451.505594
580.218428,6217.729913,6661.853478,-2145.067394
580.218749,6439.791695,8364.327145,-1225.752797
580.219069,8068.244768,8512.368333,-459.657299
580.219390,8216.285956,9992.780217,383.047749
580.219710,6217.729913,10732.986159,689.485948
580.220031,5921.647536,7994.224174,842.705048
580.220352,6883.915261,6587.832884,306.438199
580.220672,6143.709319,5847.626942,1685.410096
580.220993,3182.885551,6735.874072,2298.286494
580.221313,3256.906145,8068.244768,76.609550
580.221634,2738.761985,9474.636058,-1762.019645
580.221954,1406.391290,6069.688724,-153.219100
580.222275,4071.132681,4071.132681,306.438199
580.222596,6883.915261,6661.853478,1455.581446
580.222916,1776.494261,10140.821405,-306.438199
580.223237,1332.370696,11103.089130,-3753.867940
580.223557,4663.297435,10214.842000,-3294.210641
580.223878,8068.244768,11029.068536,459.657299
580.224198,6365.771101,9030.512492,3140.991542
580.224519,6513.812290,9400.615463,-229.828649
580.224839,3182.885551,8586.388927,-4443.353888
580.225160,1628.453072,6809.894666,-3217.601092
580.225481,4737.318029,5403.503377,229.828649
580.225801,7698.141797,3330.926739,919.314598
580.226122,6513.812290,3997.112087,536.266849
580.226442,6365.771101,6735.874072,-1455.581446
580.226763,3923.091493,8068.244768,-4290.134789
580.227083,3775.050304,6661.853478,-4213.525239
580.227404,7920.203579,7105.977043,-2911.162892
580.227725,10140.821405,9622.677246,-1608.800546
580.228045,7254.018232,11991.336260,-1455.581446
580.228366,6661.853478,14063.912898,-1455.581446
580.228686,4663.297435,12139.377449,-2298.286494
580.229007,4441.235652,10362.883188,-766.095498
580.229327,3182.885551,7624.121203,459.657299
580.229648,3404.947333,6217.729913,-306.438199
580.229969,1850.514855,5847.626942,-1302.362347
580.230289,4145.153275,7105.977043,-229.828649
580.230610,5181.441594,8216.285956,766.095498
580.230930,3552.988522,8808.450710,536.266849
580.231251,4885.359217,10362.883188,229.828649
580.231571,5033.400406,9844.739029,-306.438199
580.231892,3997.112087,7402.059420,-1838.629195
580.232212,7994.224174,7105.977043,-1225.752797
580.232533,7328.038826,8882.471304,-1378.971896
580.232854,6291.750507,11325.150913,-1225.752797
580.233174,5921.647536,14063.912898,-536.266849
580.233495,6513.812290,14656.077652,-766.095498
580.233815,5921.647536,11251.130318,76.609550
580.234136,5181.441594,6439.791695,1072.533697
580.234456,3997.112087,2072.576638,-153.219100
580.234777,2960.823768,2368.659014,2528.115143
580.235098,2220.617826,5255.462188,2681.334243
580.235418,2664.741391,6587.832884,842.705048
580.235739,4737.318029,8512.368333,612.876398
580.236059,6735.874072,12213.398043,1915.238745
580.236380,4293.194464,12731.542202,842.705048
580.236700,3108.864956,8660.409521,-1072.533697
580.237021,4367.215058,4441.235652,-995.924147
580.237342,5181.441594,3182.885551,842.705048
580.237662,3330.926739,5921.647536,3524.039291
580.237983,4367.215058,9400.615463,459.657299
580.238303,5033.400406,12953.603985,-3294.210641
580.238624,5107.421000,12879.583391,-3524.039291
580.238944,5551.544565,7772.162391,-383.047749
580.239265,7105.977043,2738.761985,2834.553343
580.239585,7402.059420,3182.885551,5209.449386
580.239906,3478.967927,4071.132681,4213.525239
580.240227,1406.391290,3627.009116,229.828649
580.240547,3330.926739,4885.359217,-1991.848295
580.240868,6661.853478,7254.018232,-536.266849
580.241188,7328.038826,8290.306550,1762.019645
580.241509,7402.059420,7105.977043,229.828649
580.241829,5995.668130,6661.853478,-2145.067394
580.242150,3849.070898,5625.565159,-1991.848295
580.242471,4515.256246,6069.688724,-383.047749
580.242791,6957.935855,8290.306550,842.705048
580.243112,4663.297435,11325.150913,-995.924147
580.243432,5995.668130,12583.501014,-2681.334243
580.243753,4811.338623,9992.780217,-3370.820191
580.244073,4367.215058,6735.874072,-612.876398
580.244394,3701.029710,5625.565159,3830.477490
580.244715,3849.070898,7698.141797,2834.553343
580.245035,888.247130,9474.636058,-536.266849
580.245356,222.061783,9252.574275,-1378.971896
580.245676,3108.864956,8660.409521,689.485948
580.245997,5329.482782,7846.182985,3447.429741
580.246317,3775.050304,8068.244768,2451.505594
580.246638,3775.050304,8586.388927,-3447.429741
580.246958,3478.967927,9548.656652,-6511.811733
580.247279,4441.235652,10881.027347,-2987.772442
580.247600,7402.059420,12213.398043,2374.896044
580.247920,8216.285956,11843.295072,2221.676944
580.248241,6365.771101,9918.759623,-536.266849
580.248561,7254.018232,10140.821405,-2987.772442
580.248882,5921.647536,8216.285956,-3524.039291
580.249202,3775.050304,5551.544565,-689.485948
580.249523,5255.462188,4367.215058,1915.238745
580.249844,7105.977043,5773.606348,1149.143247
580.250164,5847.626942,9992.780217,0.000000
580.250485,5033.400406,10288.862594,-536.266849
580.250805,5995.668130,8660.409521,-2068.457845
580.251126,5995.668130,6661.853478,-1072.533697
580.251446,6217.729913,5773.606348,766.095498
580.251767,5995.668130,6365.771101,-1991.848295
580.252088,6069.688724,9622.677246,-4903.011187
580.252408,5773.606348,13841.851115,-2145.067394
580.252729,7328.038826,14137.933492,76.609550
580.253049,7105.977043,11547.212695,-536.266849
580.253370,6661.853478,9548.656652,-153.219100
580.253690,3552.988522,8438.347739,76.609550
580.254011,1406.391290,4885.359217,1685.410096
580.254331,666.185348,2368.659014,3140.991542
580.254652,2294.638420,1776.494261,1915.238745
580.254973,4367.215058,4885.359217,-153.219100
580.255293,5255.462188,8660.409521,-1302.362347
580.255614,3182.885551,9474.636058,-1378.971896
580.255934,4663.297435,9696.697840,1685.410096
580.256255,7846.182985,9992.780217,3294.210641
580.256575,6809.894666,7772.162391,1455.581446
580.256896,4589.276840,6291.750507,-1838.629195
580.257217,5625.565159,7772.162391,-2757.943793
580.257537,5921.647536,9992.780217,-2604.724693
580.257858,4589.276840,8290.306550,-766.095498
580.258178,4589.276840,6217.729913,612.876398
580.258499,6957.935855,7550.100608,-536.266849
580.258819,2590.720797,6291.750507,-995.924147
580.259140,2072.576638,4885.359217,-919.314598
580.259461,4219.173869,3478.967927,-1608.800546
580.259781,4663.297435,4885.359217,0.000000
580.260102,6661.853478,9104.533087,2528.115143
580.260422,7402.059420,12805.562797,1762.019645
580.260743,5847.626942,13471.748144,-306.438199
580.261063,4515.256246,11843.295072,612.876398
580.261384,4811.338623,8882.471304,2451.505594
580.261704,3108.864956,6217.729913,3447.429741
580.262025,3849.070898,7920.203579,4826.401637
580.262346,4589.276840,9918.759623,2681.334243
580.262666,2590.720797,9548.656652,-1455.581446
580.262987,1184.329507,7254.018232,-1455.581446
580.263307,3478.967927,5773.606348,1302.362347
580.263628,6143.709319,5181.441594,2834.553343
580.263948,7105.977043,7179.997637,2681.334243
580.264269,5477.523971,10288.862594,-383.047749
580.264590,6587.832884,11103.089130,-1762.019645
580.264910,6809.894666,8956.491898,536.266849
580.265231,8512.368333,6809.894666,2834.553343
580.265551,7846.182985,6143.709319,1762.019645
580.265872,7550.100608,8512.368333,-1149.143247
580.266192,6365.771101,9696.697840,-3983.696590
580.266513,4663.297435,7328.038826,-3370.820191
580.266834,4589.276840,4959.379811,229.828649
580.267154,7328.038826,4589.276840,1838.629195
580.267475,6365.771101,7254.018232,689.485948
580.267795,2960.823768,7698.141797,-1302.362347
580.268116,2072.576638,7105.977043,-3140.991542
580.268436,5477.523971,5921.647536,-2451.505594
580.268757,4737.318029,5625.565159,153.219100
580.269077,4293.194464,7624.121203,76.609550
580.269398,6143.709319,11621.233289,-2298.286494
580.269719,2368.659014,13249.686362,-2374.896044
580.270039,1036.288319,10584.944971,-229.828649
580.270360,5699.585753,8512.368333,1378.971896
580.270680,5107.421000,7476.080014,1915.238745
580.271001,1184.329507,6587.832884,1072.533697
580.271321,1110.308913,5477.523971,-1149.143247
580.271642,1258.350101,5403.503377,-2528.115143
580.271963,3627.009116,7031.956449,1072.533697
580.272283,4589.276840,7031.956449,2374.896044
580.272604,6957.935855,10066.800811,-1915.238745
580.272924,4737.318029,13915.871710,-2681.334243
580.273245,4811.338623,11769.274478,-2681.334243
580.273565,6587.832884,6143.709319,-2604.724693
580.273886,9474.636058,6365.771101,1455.581446
580.274207,7031.956449,9992.780217,3600.648841
580.274527,5995.668130,12657.521608,-2221.676944
580.274848,5329.482782,11399.171507,-4903.011187
580.275168,6809.894666,8734.430116,-1608.800546
580.275489,8882.471304,7328.038826,3140.991542
580.275809,8512.368333,6735.874072,3217.601092
580.276130,4515.256246,5477.523971,-536.266849
580.276450,3552.988522,5847.626942,-1378.971896
580.276771,6735.874072,7550.100608,383.047749
580.277092,6365.771101,6883.915261,306.438199
580.277412,5255.462188,7328.038826,-306.438199
580.277733,6883.915261,10955.047942,0.000000
580.278053,6957.935855,12065.356855,-612.876398
580.278374,3552.988522,9030.512492,-1455.581446
580.278694,4515.256246,8364.327145,-1378.971896
580.279015,4811.338623,9992.780217,842.705048
580.279336,3404.947333,12287.418637,2451.505594
580.279656,1628.453072,10881.027347,1608.800546
580.279977,2368.659014,7476.080014,-2374.896044
580.280297,2146.597232,3923.091493,-306.438199
580.280618,1110.308913,2072.576638,4519.963438
580.280938,1554.432478,1406.391290,4979.620737
580.281259,2516.700203,4737.318029,153.219100
580.281580,2812.782580,7846.182985,-4366.744339
580.281900,6439.791695,9104.533087,-5056.230287
580.282221,7772.162391,9104.533087,-2451.505594
580.282541,7624.121203,8808.450710,383.047749
580.282862,6883.915261,7328.038826,-383.047749
580.283182,6957.935855,6513.812290,-3907.087040
580.283503,5329.482782,5477.523971,-4596.572988
580.283823,5847.626942,8290.306550,-1991.848295
580.284144,9326.594869,12805.562797,1608.800546
580.284465,6587.832884,12213.398043,1685.410096
580.284785,4219.173869,7846.182985,0.000000
580.285106,4071.132681,3997.112087,-229.828649
580.285426,3256.906145,2960.823768,2145.067394
580.285747,2368.659014,5329.482782,4519.963438
580.286067,1036.288319,5329.482782,1991.848295
580.286388,2442.679609,5329.482782,-2068.457845
580.286709,5773.606348,9992.780217,-919.314598
580.287029,5107.421000,12065.356855,1532.190996
580.287350,4663.297435,11917.315666,1608.800546
580.287670,7476.080014,12731.542202,-383.047749
580.287991,4441.235652,12657.521608,-2221.676944
580.288311,3108.864956,9252.574275,-689.485948
580.288632,6143.709319,7105.977043,1302.362347
580.288953,7105.977043,7772.162391,153.219100
580.289273,4737.318029,10510.924376,-766.095498
580.289594,5699.585753,10658.965565,-1532.190996
580.289914,5329.482782,8216.285956,-1532.190996
580.290235,4737.318029,4737.318029,2298.286494
580.290555,6439.791695,4663.297435,5745.716235
580.290876,6217.729913,6217.729913,3447.429741
580.291196,3182.885551,8068.244768,0.000000
580.291517,4145.153275,9104.533087,-3753.867940
580.291838,5033.400406,7254.018232,-5592.497135
580.292158,5995.668130,7031.956449,-3140.991542
580.292479,5403.503377,7476.080014,1149.143247
580.292799,6069.688724,9030.512492,-919.314598
580.293120,5255.462188,12583.501014,-3983.696590
580.293440,4071.132681,14285.974681,-4290.134789
580.293761,4367.215058,10510.924376,-1302.362347
580.294082,6957.935855,6735.874072,2757.943793
580.294402,4737.318029,4589.276840,4213.525239
580.294723,1036.288319,1332.370696,1302.362347
580.295043,2294.638420,2812.782580,-2604.724693
580.295364,3478.967927,6069.688724,-3217.601092
580.295684,3701.029710,7105.977043,-459.657299
580.296005,7772.162391,8586.388927,842.705048
580.296326,7550.100608,7550.100608,-766.095498
580.296646,3552.988522,6735.874072,-1302.362347
580.296967,7031.956449,9474.636058,-1072.533697
580.297287,6957.935855,10362.883188,-2604.724693
580.297608,5403.503377,9918.759623,-3600.648841
580.297928,7328.038826,9474.636058,-1838.629195
580.298249,8216.285956,10658.965565,459.657299
580.298569,4811.338623,9474.636058,1762.019645
580.298890,4737.318029,8438.347739,1532.190996
580.299211,4219.173869,7179.997637,-1608.800546
580.299531,3108.864956,5329.482782,-2221.676944
580.299852,4441.235652,5773.606348,612.876398
580.300172,5921.647536,6809.894666,1608.800546
580.300493,5181.441594,8586.388927,2374.896044
580.300813,5181.441594,10732.986159,1608.800546
580.301134,4367.215058,11325.150913,-306.438199
580.301455,4145.153275,9474.636058,-612.876398
580.301775,5329.482782,6883.915261,-1072.533697
580.302096,3997.112087,7105.977043,-1915.238745
580.302416,4737.318029,10510.924376,-1532.190996
580.302737,5625.565159,13027.624579,0.000000
580.303057,3404.947333,11621.233289,-153.219100
580.303378,3997.112087,8734.430116,-842.705048
580.303699,4441.235652,6735.874072,-459.657299
580.304019,4737.318029,6365.771101,-689.485948
580.304340,4515.256246,6661.853478,1532.190996
580.304660,5847.626942,7550.100608,1302.362347
580.304981,5551.544565,7328.038826,-612.876398
580.305301,6883.915261,8882.471304,153.219100
580.305622,4737.318029,7105.977043,1225.752797
580.305943,3701.029710,4589.276840,459.657299
580.306263,6587.832884,5921.647536,-995.924147
580.306584,5995.668130,6735.874072,-3064.381992
580.306904,4219.173869,6513.812290,-4290.134789
580.307225,7772.162391,7772.162391,-919.314598
580.307546,8142.265362,12287.418637,1838.629195
580.307866,4589.276840,11843.295072,995.924147
580.308187,4737.318029,9474.636058,-2451.505594
580.308508,5107.421000,6291.750507,-2221.676944
580.308828,5255.462188,5625.565159,2221.676944
580.309149,7179.997637,7031.956449,4903.011187
580.309470,3997.112087,6439.791695,995.924147
580.309790,2516.700203,6143.709319,-1302.362347
580.310111,6365.771101,9548.656652,995.924147
580.310432,5107.421000,10288.862594,2298.286494
580.310752,2812.782580,7994.224174,1762.019645
580.311073,7031.956449,7031.956449,1225.752797
580.311394,6143.709319,6069.688724,-919.314598
580.311714,2886.803174,5773.606348,-459.657299
580.312035,5255.462188,8734.430116,306.438199
580.312355,4737.318029,10658.965565,-1455.581446
580.312676,4219.173869,11843.295072,-306.438199
580.312997,6291.750507,11695.253884,1072.533697
580.313317,5181.441594,8808.450710,-1378.971896
580.313638,4737.318029,7328.038826,-383.047749
580.313959,4515.256246,6735.874072,3524.039291
580.314279,3478.967927,5625.565159,1149.143247
580.314600,3330.926739,6069.688724,-1149.143247
580.314921,3256.906145,8512.368333,-689.485948
580.315241,4071.132681,7550.100608,-689.485948
580.315562,5625.565159,7179.997637,842.705048
580.315883,5551.544565,7328.038826,229.828649
580.316203,2072.576638,5699.585753,-1685.410096
580.316524,4441.235652,5255.462188,-995.924147
580.316845,5551.544565,8142.265362,-612.876398
580.317165,4589.276840,11473.192101,-689.485948
580.317486,7179.997637,14434.015869,-689.485948
580.317806,8290.306550,14730.098246,-1455.581446
580.318127,4663.297435,8216.285956,-612.876398
580.318448,3997.112087,2664.741391,1838.629195
580.318768,4441.235652,2516.700203,2374.896044
580.319089,2368.659014,4293.194464,383.047749
580.319410,3404.947333,7550.100608,-306.438199
580.319730,6809.894666,10658.965565,-2221.676944
580.320051,6957.935855,9474.636058,-1762.019645
580.320372,6069.688724,6513.812290,1455.581446
580.320692,6809.894666,6069.688724,1762.019645
580.321013,4959.379811,6291.750507,-1378.971896
580.321334,2516.700203,5329.482782,-4366.744339
580.321654,4293.194464,6957.935855,-5056.230287
580.321975,8216.285956,9548.656652,-2681.334243
580.322296,7624.121203,14137.933492,1532.190996
580.322616,7105.977043,15692.365970,383.047749
580.322937,5255.462188,13249.686362,-3140.991542
580.323257,3849.070898,8068.244768,-2145.067394
580.323578,2590.720797,3849.070898,2604.724693
580.323899,3034.844362,2664.741391,3983.696590
580.324219,1628.453072,2442.679609,995.924147
580.324540,1702.473667,6513.812290,-2911.162892
580.324861,6143.709319,10066.800811,-3753.867940
580.325181,5773.606348,10140.821405,-3217.601092
580.325502,4959.379811,9252.574275,-1915.238745
580.325823,6365.771101,9178.553681,76.609550
580.326143,7105.977043,10510.924376,995.924147
580.326464,6513.812290,9622.677246,-459.657299
580.326785,7698.141797,9548.656652,-2221.676944
580.327105,7254.018232,10288.862594,-2757.943793
580.327426,5847.626942,9326.594869,-1532.190996
580.327747,5329.482782,7624.121203,766.095498
580.328067,5551.544565,6291.750507,306.438199
580.328388,6143.709319,8438.347739,-842.705048
580.328708,4071.132681,8216.285956,-1149.143247
580.329029,2294.638420,4959.379811,-612.876398
580.329350,4441.235652,4663.297435,2068.457845
580.329670,6587.832884,6809.894666,3064.381992
580.329991,4441.235652,7179.997637,919.314598
580.330312,5255.462188,9770.718434,-2451.505594
580.330632,7105.977043,14434.015869,-2221.676944
580.330953,6143.709319,14137.933492,-612.876398
580.331274,6365.771101,9474.636058,995.924147
580.331594,8882.471304,8512.368333,2221.676944
580.331915,4737.318029,8882.471304,2604.724693
580.332236,1110.308913,8290.306550,2757.943793
580.332556,3256.906145,8068.244768,919.314598
580.332877,5551.544565,8068.244768,229.828649
580.333198,5699.585753,7476.080014,2834.553343
580.333518,3627.009116,4293.194464,2374.896044
580.333839,888.247130,1036.288319,0.000000
580.334160,2368.659014,4071.132681,1378.971896
580.334480,5329.482782,7772.162391,4443.353888
580.334801,4737.318029,8142.265362,689.485948
580.335121,5403.503377,8512.368333,-2834.553343
580.335442,5255.462188,9992.780217,-2374.896044
580.335763,6291.750507,7772.162391,-919.314598
580.336083,7624.121203,5477.523971,766.095498
580.336404,7772.162391,8734.430116,153.219100
580.336725,6587.832884,11103.089130,-2834.553343
580.337045,5773.606348,9474.636058,-3753.867940
580.337366,3182.885551,5033.400406,-612.876398
580.337687,4737.318029,4589.276840,4749.792088
580.338007,5847.626942,7402.059420,7124.688131
580.338328,2146.597232,7772.162391,1685.410096
580.338649,222.061783,5255.462188,-3140.991542
580.338969,3997.112087,6365.771101,-1225.752797
580.339290,4441.235652,8734.430116,1378.971896
580.339611,2442.679609,7179.997637,3217.601092
580.339931,2590.720797,7698.141797,2987.772442
580.340252,3627.009116,11621.233289,766.095498
580.340572,2442.679609,10732.986159,-536.266849
580.340893,3923.091493,8956.491898,-1378.971896
580.341214,6143.709319,10288.862594,-1532.190996
580.341534,3108.864956,9622.677246,0.000000
580.341855,3182.885551,7624.121203,-536.266849
580.342176,6513.812290,7624.121203,-1455.581446
580.342496,5773.606348,7328.038826,-689.485948
580.342817,5403.503377,6587.832884,0.000000
580.343138,5773.606348,6587.832884,-689.485948
580.343458,4737.318029,6735.874072,-1149.143247
580.343779,6957.935855,7846.182985,766.095498
580.344100,9474.636058,8512.368333,1455.581446
580.344420,7105.977043,8956.491898,-383.047749
580.344741,4737.318029,9696.697840,-995.924147
580.345062,4515.256246,8216.285956,-3447.429741
580.345382,7031.956449,7328.038826,-6128.763984
580.345703,8142.265362,8068.244768,-2987.772442
580.346023,7624.121203,10066.800811,-766.095498
580.346344,8438.347739,12953.603985,-459.657299
580.346665,4589.276840,13471.748144,-842.705048
580.346985,1110.308913,8734.430116,-842.705048
580.347306,5181.441594,5181.441594,1532.190996
580.347627,6587.832884,4515.256246,2681.334243
580.347947,2812.782580,6439.791695,1455.581446
580.348268,3478.967927,7550.100608,-1838.629195
580.348589,4811.338623,8142.265362,-2451.505594
580.348909,4145.153275,7698.141797,-1072.533697
580.349230,6957.935855,8142.265362,1991.848295
580.349551,9178.553681,9548.656652,-306.438199
580.349871,4737.318029,10362.883188,-1378.971896
580.350192,2886.803174,10436.903782,1685.410096
580.350513,6143.709319,10214.842000,1762.019645
580.350833,5403.503377,9030.512492,536.266849
580.351154,3404.947333,8660.409521,-76.609550
580.351474,5477.523971,10658.965565,-2681.334243
580.351795,4219.173869,10436.903782,-4673.182538
580.352116,592.164754,6291.750507,-1455.581446
580.352436,3849.070898,2960.823768,1991.848295
580.352757,5477.523971,4885.359217,3524.039291
580.353078,2960.823768,9474.636058,4443.353888
580.353398,3330.926739,13323.706956,1532.190996
580.353719,4737.318029,12953.603985,-1762.019645
580.354040,5477.523971,9992.780217,1532.190996
580.354360,6143.709319,4367.215058,4290.134789
580.354681,4737.318029,2146.597232,1991.848295
580.355002,4811.338623,6365.771101,995.924147
580.355322,3034.844362,7772.162391,76.609550
580.355643,4885.359217,7254.018232,-3294.210641
580.355964,8290.306550,7402.059420,-2145.067394
580.356284,7254.018232,8068.244768,3907.087040
580.356605,7179.997637,7772.162391,5209.449386
580.356926,7920.203579,7105.977043,2451.505594
580.357246,3627.009116,4959.379811,-1762.019645
580.357567,3997.112087,2738.761985,-2834.553343
580.357887,8882.471304,4367.215058,-536.266849
580.358208,7254.018232,4737.318029,0.000000
580.358529,3182.885551,5921.647536,-1915.238745
580.358849,5625.565159,8808.450710,-3600.648841
580.359170,6143.709319,9326.594869,-2145.067394
580.359491,3552.988522,7031.956449,2298.286494
580.359811,6069.688724,9770.718434,3140.991542
580.360132,6069.688724,13841.851115,-536.266849
580.360453,-888.247130,10955.047942,-2681.334243
580.360773,1998.556043,7328.038826,-689.485948
580.361094,5921.647536,4959.379811,2681.334243
580.361415,0.000000,3404.947333,4366.744339
580.361735,370.102971,6365.771101,2145.067394
580.362056,1332.370696,9252.574275,-3600.648841
580.362377,-1332.370696,9992.780217,-4519.963438
580.362697,4737.318029,11177.109724,2145.067394
580.363018,8882.471304,10732.986159,3983.696590
580.363338,5181.441594,8216.285956,2451.505594
580.363659,4663.297435,8586.388927,306.438199
580.363980,5847.626942,9844.739029,-4749.792088
580.364300,4293.194464,9326.594869,-5898.935335
580.364621,7402.059420,7846.182985,842.705048
580.364942,10732.986159,7772.162391,1915.238745
580.365262,9918.759623,10066.800811,-1838.629195
580.365583,7105.977043,12583.501014,-2221.676944
580.365904,4589.276840,9696.697840,-2528.115143
580.366224,6365.771101,5551.544565,229.828649
580.366545,7550.100608,5181.441594,5286.058936
580.366866,2738.761985,3552.988522,1608.800546
580.367186,4811.338623,5699.585753,-5132.839837
580.367507,9400.615463,12065.356855,-4673.182538
580.367828,7031.956449,13841.851115,-2145.067394
580.368148,6957.935855,10807.006753,-919.314598
580.368469,8290.306550,7328.038826,-1608.800546
580.368789,4219.173869,5477.523971,0.000000
580.369110,3108.864956,6143.709319,2757.943793
580.369431,6661.853478,9992.780217,1915.238745
580.369751,6365.771101,10955.047942,-3064.381992
580.370072,3478.967927,9622.677246,-4366.744339
580.370393,5403.503377,8438.347739,-2451.505594
580.370713,4441.235652,5625.565159,-76.609550
580.371034,2294.638420,4811.338623,3064.381992
580.371355,2664.741391,7624.121203,2145.067394
580.371675,2072.576638,8586.388927,-2068.457845
580.371996,1776.494261,7624.121203,-2298.286494
580.372317,6217.729913,8142.265362,1149.143247
580.372637,5625.565159,8808.450710,2145.067394
580.372958,2664.741391,8216.285956,153.219100
580.373279,1184.329507,6661.853478,-3753.867940
580.373599,1184.329507,5773.606348,-5898.935335
580.373920,4737.318029,8290.306550,-536.266849
580.374240,5847.626942,9104.533087,2757.943793
580.374561,4737.318029,8512.368333,-2298.286494
580.374882,3627.009116,9696.697840,-4673.182538
580.375202,3256.906145,10140.821405,-1225.752797
580.375523,5921.647536,7846.182985,1302.362347
580.375844,7402.059420,5477.523971,766.095498
580.376164,3997.112087,4367.215058,-1302.362347
580.376485,3552.988522,7179.997637,-1378.971896
580.376806,6735.874072,9622.677246,919.314598
580.377126,7105.977043,9770.718434,2298.286494
580.377447,7031.956449,7328.038826,2834.553343
580.377768,6217.729913,5477.523971,842.705048
580.378088,4737.318029,4737.318029,-689.485948
580.378409,2960.823768,5551.544565,-306.438199
580.378730,5773.606348,7698.141797,0.000000
580.379050,9474.636058,9696.697840,-1532.190996
580.379371,8808.450710,11325.150913,-1762.019645
580.379691,6957.935855,12213.398043,-995.924147
580.380012,6365.771101,11621.233289,-612.876398
580.380333,5625.565159,9622.677246,612.876398
580.380653,4737.318029,8808.450710,2145.067394
580.380974,5403.503377,7994.224174,1455.581446
580.381295,2664.741391,6735.874072,-153.219100
580.381615,2664.741391,6809.894666,459.657299
580.381936,4737.318029,8364.327145,2374.896044
580.382257,2886.803174,8660.409521,1685.410096
580.382577,2146.597232,8438.347739,766.095498
580.382898,3256.906145,7698.141797,1149.143247
580.383219,3923.091493,7846.182985,1302.362347
580.383539,4145.153275,7476.080014,1608.800546
580.383860,5181.441594,9104.533087,1072.533697
580.384181,4737.318029,11547.212695,-1532.190996
580.384501,4589.276840,12065.356855,-3524.039291
580.384822,2368.659014,8808.450710,-2604.724693
580.385143,5403.503377,5847.626942,919.314598
580.385463,6069.688724,6365.771101,4060.306139
580.385784,4737.318029,7105.977043,1302.362347
580.386104,2368.659014,6883.915261,-4366.744339
580.386425,4293.194464,7402.059420,-3830.477490
580.386746,7402.059420,5403.503377,1685.410096
580.387066,7698.141797,2294.638420,5209.449386
580.387387,5847.626942,2960.823768,2451.505594
580.387708,4219.173869,6587.832884,-3677.258390
580.388028,4737.318029,9770.718434,-4903.011187
580.388349,7402.059420,9844.739029,0.000000
580.388670,9844.739029,8438.347739,2068.457845
580.388990,8808.450710,7698.141797,536.266849
580.389311,5699.585753,8660.409521,-1532.190996
580.389632,2368.659014,7105.977043,-1838.629195
580.389952,3923.091493,6809.894666,-1072.533697
580.390273,5403.503377,7179.997637,-306.438199
580.390594,4219.173869,6513.812290,-1991.848295
580.390914,4959.379811,7846.182985,-2221.676944
580.391235,5995.668130,11325.150913,229.828649
580.391555,3182.885551,9178.553681,1685.410096
580.391876,3775.050304,6661.853478,306.438199
580.392197,5699.585753,7105.977043,-689.485948
580.392517,2368.659014,7994.224174,-383.047749
580.392838,2664.741391,8808.450710,306.438199
580.393159,5181.441594,8734.430116,-306.438199
580.393479,3034.844362,8660.409521,-1838.629195
580.393800,4737.318029,9474.636058,-2374.896044
580.394121,5773.606348,10140.821405,-3830.477490
580.394441,3478.967927,10658.965565,-2681.334243
580.394762,5329.482782,9548.656652,306.438199
580.395083,6365.771101,7698.141797,-995.924147
580.395403,4885.359217,7254.018232,-2298.286494
580.395724,4663.297435,11399.171507,-76.609550
580.396045,5181.441594,12583.501014,229.828649
580.396365,5107.421000,8142.265362,-1991.848295
580.396686,4959.379811,3552.988522,-842.705048
580.397006,5773.606348,5255.462188,612.876398
580.397327,3701.029710,8290.306550,1302.362347
580.397648,2294.638420,8882.471304,-612.876398
580.397968,5033.400406,10140.821405,-4673.182538
580.398289,6587.832884,10214.842000,-4060.306139
580.398610,7328.038826,11325.150913,0.000000
580.398930,6513.812290,11917.315666,1991.848295
580.399251,5107.421000,12065.356855,0.000000
580.399572,5921.647536,11917.315666,-842.705048
580.399892,4071.132681,8808.450710,76.609550
580.400213,3034.844362,5181.441594,1762.019645
580.400534,6217.729913,5329.482782,3677.258390
580.400854,4811.338623,6587.832884,2528.115143
580.401175,3478.967927,7105.977043,76.609550
580.401496,5921.647536,7254.018232,0.000000
580.401816,6143.709319,7105.977043,0.000000
580.402137,3404.947333,5995.668130,919.314598
580.402457,5699.585753,5551.544565,1378.971896
580.402778,8216.285956,7846.182985,612.876398
580.403099,7254.018232,8956.491898,383.047749
580.403419,6883.915261,8364.327145,-2221.676944
580.403740,6661.853478,5995.668130,-4519.963438
580.404061,3701.029710,4959.379811,-1838.629195
580.404381,7105.977043,5921.647536,2987.772442
580.404702,7254.018232,7179.997637,1455.581446
580.405023,4959.379811,6661.853478,-3217.601092
580.405343,3701.029710,5255.462188,-2834.553343
580.405664,6365.771101,6883.915261,612.876398
580.405984,4293.194464,5033.400406,2911.162892
580.406305,3108.864956,4589.276840,2068.457845
580.406626,4589.276840,6439.791695,-2068.457845
580.406946,3034.844362,7994.224174,-2451.505594
580.407267,1776.494261,7698.141797,2298.286494
580.407587,4293.194464,8142.265362,2757.943793
580.407908,4367.215058,10288.862594,689.485948
580.408228,1628.453072,11029.068536,-1378.971896
580.408549,1184.329507,8808.450710,-1685.410096
580.408869,1924.535449,7105.977043,0.000000
580.409190,2664.741391,6365.771101,2145.067394
580.409510,4737.318029,8290.306550,1991.848295
580.409831,4441.235652,10140.821405,-1838.629195
580.410152,5107.421000,13841.851115,-2451.505594
580.410472,6957.935855,12805.562797,2451.505594
580.410793,6143.709319,7402.059420,4903.011187
580.411113,7179.997637,6439.791695,4290.134789
580.411434,6513.812290,7031.956449,3600.648841
580.411754,4515.256246,7402.059420,-612.876398
580.412075,4811.338623,6069.688724,-2987.772442
580.412395,9104.533087,7179.997637,-1915.238745
580.412716,6809.894666,7994.224174,0.000000
580.413037,7550.100608,7254.018232,689.485948
580.413357,8290.306550,9844.739029,-1532.190996
580.413678,5921.647536,11399.171507,-3983.696590
580.413998,6513.812290,9622.677246,-1378.971896
580.414319,8808.450710,7031.956449,153.219100
580.414639,7994.224174,6661.853478,-1838.629195
580.414960,5773.606348,9992.780217,-995.924147
580.415280,5625.565159,10436.903782,-229.828649
580.415601,6069.688724,9104.533087,-1685.410096
580.415922,2368.659014,6069.688724,0.000000
580.416242,3034.844362,5477.523971,2068.457845
580.416563,4071.132681,5625.565159,459.657299
580.416883,74.020594,4811.338623,-1532.190996
580.417204,1184.329507,6291.750507,-689.485948
580.417524,4515.256246,8142.265362,-1225.752797
580.417845,2220.617826,7550.100608,-2145.067394
580.418165,2368.659014,6513.812290,-2681.334243
580.418486,4811.338623,9104.533087,-3447.429741
580.418806,4959.379811,11917.315666,-2681.334243
580.419127,4663.297435,11103.089130,-1149.143247
580.419448,5625.565159,9400.615463,-2604.724693
580.419768,5847.626942,8290.306550,-3140.991542
580.420089,5699.585753,8438.347739,229.828649
580.420409,4589.276840,7994.224174,-919.314598
580.420730,4811.338623,7994.224174,-2145.067394
580.421050,5181.441594,6735.874072,689.485948
580.421371,5181.441594,5403.503377,1532.190996
580.421691,6217.729913,7254.018232,2604.724693
580.422012,6883.915261,9918.759623,3447.429741
580.422333,4885.359217,10584.944971,229.828649
580.422653,5329.482782,8290.306550,-1532.190996
580.422974,6291.750507,6735.874072,459.657299
580.423294,6957.935855,7105.977043,1608.800546
580.423615,6291.750507,9178.553681,1072.533697
580.423935,4441.235652,12805.562797,-612.876398
580.424256,4589.276840,14285.974681,-1991.848295
580.424576,4811.338623,13545.768739,-689.485948
580.424897,6883.915261,10584.944971,1838.629195
580.425218,4663.297435,7550.100608,3907.087040
580.425538,3034.844362,8734.430116,5056.230287
580.425859,1258.350101,7698.141797,3447.429741
580.426179,1036.288319,4885.359217,229.828649
580.426500,3923.091493,2886.803174,-766.095498
580.426820,6957.935855,4737.318029,2068.457845
580.427141,4885.359217,7328.038826,3370.820191
580.427461,3997.112087,9178.553681,689.485948
580.427782,6291.750507,10288.862594,-2298.286494
580.428102,7105.977043,9178.553681,-1838.629195
580.428423,8364.327145,7550.100608,1072.533697
580.428744,7994.224174,6735.874072,2068.457845
580.429064,6143.709319,6809.894666,0.000000
580.429385,4441.235652,6217.729913,-2145.067394
580.429705,4293.194464,4737.318029,-1685.410096
580.430026,5699.585753,3701.029710,1072.533697
580.430346,5995.668130,5033.400406,2221.676944
580.430667,3552.988522,5995.668130,842.705048
580.430987,2664.741391,4515.256246,-1991.848295
580.431308,3849.070898,2516.700203,-2681.334243
580.431629,5181.441594,3552.988522,766.095498
580.431949,6217.729913,7476.080014,2604.724693
580.432270,3627.009116,9474.636058,-306.438199
580.432590,3182.885551,11547.212695,-4443.353888
580.432911,3923.091493,11399.171507,-3294.210641
580.433231,5107.421000,9918.759623,1608.800546
580.433552,5329.482782,7105.977043,3370.820191
580.433872,3997.112087,5625.565159,459.657299
580.434193,1776.494261,7476.080014,-2757.943793
580.434514,666.185348,7994.224174,-1991.848295
580.434834,5181.441594,8438.347739,229.828649
580.435155,5773.606348,7105.977043,1149.143247
580.435475,7254.018232,10288.862594,306.438199
580.435796,5551.544565,11103.089130,-842.705048
580.436116,4293.194464,9400.615463,-2987.772442
580.436437,5773.606348,7105.977043,0.000000
580.436757,8364.327145,7550.100608,3370.820191
580.437078,8142.265362,8882.471304,1838.629195
580.437398,5551.544565,10584.944971,-2757.943793
580.437719,5773.606348,12657.521608,-4519.963438
580.438040,6513.812290,9770.718434,-2834.553343
580.438360,7550.100608,5847.626942,306.438199
580.438681,6291.750507,4219.173869,-689.485948
580.439001,7105.977043,7772.162391,-2757.943793
580.439322,6143.709319,13323.706956,-2451.505594
580.439642,5551.544565,12065.356855,-1225.752797
580.439963,5477.523971,9178.553681,-383.047749
580.440283,7994.224174,10658.965565,306.438199
580.440604,4737.318029,9844.739029,689.485948
580.440925,2590.720797,7402.059420,-1149.143247
580.441245,4737.318029,9178.553681,-1762.019645
580.441566,4737.318029,11843.295072,306.438199
580.441886,2368.659014,10732.986159,2221.676944
580.442207,3478.967927,10510.924376,1225.752797
580.442527,2294.638420,10510.924376,1072.533697
580.442848,1406.391290,8586.388927,2298.286494
580.443168,4589.276840,5551.544565,2681.334243
580.443489,4441.235652,3478.967927,0.000000
580.443810,3627.009116,6439.791695,-536.266849
580.444130,4441.235652,10881.027347,689.485948
580.444451,4959.379811,10881.027347,-612.876398
580.444771,5773.606348,8290.306550,1455.581446
580.445092,8290.306550,7846.182985,3677.258390
580.445412,7994.224174,7624.121203,1608.800546
580.445733,4441.235652,5773.606348,-1378.971896
580.446053,4071.132681,6291.750507,-2145.067394
580.446374,6439.791695,7105.977043,-306.438199
580.446694,6069.688724,6069.688724,1532.190996
580.447015,4737.318029,5773.606348,536.266849
580.447336,3923.091493,5699.585753,-1225.752797
580.447656,5921.647536,6439.791695,-612.876398
580.447977,4589.276840,7179.997637,1762.019645
580.448297,4145.153275,7179.997637,1072.533697
580.448618,4663.297435,6365.771101,995.924147
580.448938,3775.050304,6439.791695,2145.067394
580.449259,1554.432478,5181.441594,2681.334243
580.449579,3256.906145,5847.626942,-612.876398
580.449900,2886.803174,6587.832884,-3064.381992
580.450221,3849.070898,7179.997637,-3907.087040
580.450541,4811.338623,7624.121203,-1915.238745
580.450862,3849.070898,7550.100608,766.095498
580.451182,3849.070898,7105.977043,1915.238745
580.451503,4219.173869,6735.874072,919.314598
580.451823,1554.432478,5403.503377,-1991.848295
580.452144,2368.659014,4885.359217,-2911.162892
580.452464,7179.997637,6513.812290,-2374.896044
580.452785,6735.874072,7772.162391,-1991.848295
580.453105,5625.565159,8512.368333,-1455.581446
580.453426,6439.791695,8956.491898,-2374.896044
580.453747,3775.050304,8438.347739,-4749.792088
580.454067,4145.153275,7402.059420,-3370.820191
580.454388,7476.080014,6809.894666,-1608.800546
580.454708,6439.791695,7254.018232,-3140.991542
580.455029,5551.544565,8438.347739,-4290.134789
580.455349,5181.441594,9548.656652,-5822.325785
580.455670,3404.947333,9252.574275,-6894.859482
580.455990,3478.967927,7402.059420,-4826.401637
580.456311,6143.709319,6735.874072,-4903.011187
580.456632,6513.812290,8142.265362,-7660.954980
580.456952,5699.585753,10510.924376,-6511.811733
580.457273,7328.038826,13027.624579,-4443.353888
580.457593,7920.203579,13323.706956,-3907.087040
580.457914,6143.709319,10955.047942,-3217.601092
