#time,accel_x,accel_y,accel_z
126.525280,5033.400406,8290.306550,0.000000
126.525600,5033.400406,7846.182985,0.000000
126.525921,4885.359217,8364.327145,-383.047749
126.526242,4737.318029,8216.285956,-383.047749
126.526562,4959.379811,8142.265362,0.000000
126.526883,4959.379811,8216.285956,-153.219100
126.527204,4959.379811,8068.244768,0.000000
126.527524,4885.359217,8142.265362,-153.219100
126.527845,5033.400406,7920.203579,-229.828649
126.528165,5181.441594,7994.224174,0.000000
126.528486,4959.379811,8068.244768,-229.828649
126.528807,5033.400406,7846.182985,0.000000
126.529127,4811.338623,7846.182985,-153.219100
126.529448,5107.421000,7994.224174,229.828649
126.529769,4959.379811,8142.265362,-383.047749
126.530089,4811.338623,8290.306550,76.609550
126.530410,5255.462188,8216.285956,-612.876398
126.530730,4959.379811,8068.244768,-383.047749
126.531051,4885.359217,8216.285956,-229.828649
126.531372,4811.338623,8364.327145,229.828649
126.531692,5033.400406,7994.224174,-306.438199
126.532013,4959.379811,8068.244768,-306.438199
126.532334,4959.379811,8068.244768,-153.219100
126.532654,5033.400406,8290.306550,-306.438199
126.532975,5181.441594,7920.203579,0.000000
126.533295,5107.421000,8068.244768,-383.047749
126.533616,4885.359217,7772.162391,-306.438199
126.533937,4885.359217,7994.224174,76.609550
126.534257,4811.338623,7920.203579,-153.219100
126.534578,5329.482782,8068.244768,383.047749
126.534899,4811.338623,7920.203579,0.000000
126.535219,4663.297435,7550.100608,-76.609550
126.535540,4219.173869,7179.997637,-153.219100
126.535860,4145.153275,7624.121203,0.000000
126.536181,4515.256246,8438.347739,-536.266849
126.536502,4737.318029,9696.697840,-1149.143247
126.536822,4737.318029,9696.697840,-1149.143247
126.537143,4589.276840,9696.697840,-995.924147
126.537464,4145.153275,8956.491898,-306.438199
126.537784,3552.988522,8882.471304,383.047749
126.538105,3256.906145,8734.430116,919.314598
126.538425,2812.782580,9178.553681,612.876398
126.538746,2738.761985,8808.450710,-459.657299
126.539067,2886.803174,7994.224174,-1225.752797
126.539387,3330.926739,8512.368333,-383.047749
126.539708,3404.947333,9326.594869,0.000000
126.540029,2812.782580,9400.615463,76.609550
126.540349,2368.659014,8882.471304,306.438199
126.540670,2368.659014,9178.553681,-306.438199
126.540990,2294.638420,10288.862594,-383.047749
126.541311,1998.556043,11547.212695,-919.314598
126.541632,1850.514855,12213.398043,-1302.362347
126.541952,1628.453072,11991.336260,-919.314598
126.542273,888.247130,11177.109724,-459.657299
126.542594,-370.102971,11103.089130,-1225.752797
126.542914,-1036.288319,11621.233289,-1455.581446
126.543235,-1480.411884,12361.439231,-306.438199
126.543555,-1628.453072,12583.501014,536.266849
126.543876,-1554.432478,12213.398043,842.705048
126.544197,-888.247130,12657.521608,1608.800546
126.544517,-1702.473667,13101.645173,1915.238745
126.544838,-2368.659014,13027.624579,1532.190996
126.545159,-2664.741391,11547.212695,229.828649
126.545479,-1776.494261,10510.924376,-612.876398
126.545800,-1258.350101,10140.821405,0.000000
126.546120,-1258.350101,10140.821405,612.876398
126.546441,-962.267725,10436.903782,459.657299
126.546762,0.000000,10658.965565,-612.876398
126.547082,444.123565,11325.150913,-1608.800546
126.547403,1628.453072,11325.150913,-1149.143247
126.547724,2368.659014,10658.965565,-229.828649
126.548044,3034.844362,11029.068536,689.485948
126.548365,2738.761985,10584.944971,-229.828649
126.548685,2220.617826,9844.739029,-2221.676944
126.549006,1850.514855,9030.512492,-2374.896044
126.549327,1998.556043,9326.594869,-1225.752797
126.549647,2368.659014,9696.697840,-383.047749
126.549968,2220.617826,10066.800811,-536.266849
126.550289,1406.391290,10584.944971,-995.924147
126.550609,888.247130,10732.986159,0.000000
126.550930,148.041188,11029.068536,919.314598
126.551250,-370.102971,10288.862594,995.924147
126.551571,-518.144159,9548.656652,612.876398
126.551892,-296.082377,9400.615463,689.485948
126.552212,-666.185348,9992.780217,766.095498
126.552533,-444.123565,10658.965565,1072.533697
126.552854,148.041188,11473.192101,1378.971896
126.553174,1110.308913,11547.212695,919.314598
126.553495,1036.288319,11177.109724,0.000000
126.553815,1184.329507,10807.006753,0.000000
126.554136,1184.329507,9992.780217,-842.705048
126.554457,1776.494261,9400.615463,-536.266849
126.554777,1850.514855,8734.430116,0.000000
126.555098,1998.556043,8216.285956,0.000000
126.555419,2516.700203,8882.471304,-306.438199
126.555739,2516.700203,9992.780217,-306.438199
126.556060,2886.803174,11177.109724,-536.266849
126.556380,2960.823768,11399.171507,-766.095498
126.556701,3478.967927,10584.944971,-1225.752797
126.557022,3034.844362,9400.615463,-995.924147
126.557342,3108.864956,9326.594869,-536.266849
126.557663,2516.700203,9992.780217,-459.657299
126.557984,1702.473667,10658.965565,-842.705048
126.558304,888.247130,10881.027347,-459.657299
126.558625,1850.514855,11769.274478,-229.828649
126.558945,962.267725,11177.109724,-612.876398
126.559266,-592.164754,10362.883188,-1302.362347
126.559587,-1332.370696,9474.636058,-1072.533697
126.559907,-1850.514855,8882.471304,0.000000
126.560228,-1554.432478,9622.677246,1149.143247
126.560549,-1110.308913,10955.047942,1685.410096
126.560869,-296.082377,13101.645173,1455.581446
126.561190,370.102971,14582.057057,1302.362347
126.561510,592.164754,14730.098246,689.485948
126.561831,1036.288319,13175.665768,-842.705048
126.562152,1258.350101,11177.109724,-766.095498
126.562472,740.205942,9474.636058,229.828649
126.562793,0.000000,9030.512492,-153.219100
126.563114,-592.164754,9326.594869,-842.705048
126.563434,-1480.411884,9326.594869,-2068.457845
126.563755,-1332.370696,10510.924376,-2145.067394
126.564075,-592.164754,12065.356855,-612.876398
126.564396,148.041188,12879.583391,0.000000
126.564717,518.144159,13101.645173,0.000000
126.565037,962.267725,13471.748144,0.000000
126.565358,444.123565,13545.768739,-229.828649
126.565679,-74.020594,12361.439231,-306.438199
126.565999,814.226536,10510.924376,-1225.752797
126.566320,1480.411884,8512.368333,-1225.752797
126.566640,2146.597232,8512.368333,-306.438199
126.566961,1702.473667,9400.615463,383.047749
126.567282,0.000000,10214.842000,842.705048
126.567602,-740.205942,9918.759623,1149.143247
126.567923,0.000000,9030.512492,1072.533697
126.568244,888.247130,8068.244768,1225.752797
126.568564,1332.370696,8586.388927,459.657299
126.568885,2072.576638,11177.109724,-306.438199
126.569205,1554.432478,13101.645173,-1608.800546
126.569526,1628.453072,13693.809927,-2604.724693
126.569847,2368.659014,12953.603985,-2145.067394
126.570167,2442.679609,11843.295072,-842.705048
126.570488,2442.679609,10362.883188,1072.533697
126.570809,1924.535449,8956.491898,1915.238745
126.571129,2960.823768,8438.347739,2221.676944
126.571450,2294.638420,7846.182985,2068.457845
126.571770,2664.741391,6809.894666,1838.629195
126.572091,2516.700203,5847.626942,766.095498
126.572412,2368.659014,4589.276840,-76.609550
126.572732,3552.988522,4737.318029,-612.876398
126.573053,4367.215058,7328.038826,-536.266849
126.573374,5921.647536,11325.150913,-1072.533697
126.573694,6365.771101,12805.562797,-1915.238745
126.574015,6217.729913,12361.439231,-2681.334243
126.574335,5699.585753,9178.553681,-2451.505594
126.574656,3997.112087,6513.812290,-1608.800546
126.574977,4885.359217,5921.647536,1149.143247
126.575297,4515.256246,8882.471304,1608.800546
126.575618,1998.556043,11251.130318,-995.924147
126.575939,2220.617826,11547.212695,-2451.505594
126.576259,2886.803174,10955.047942,-2145.067394
126.576580,2294.638420,8586.388927,0.000000
126.576900,1702.473667,5995.668130,1149.143247
126.577221,2590.720797,5699.585753,1685.410096
126.577542,2294.638420,8142.265362,1532.190996
126.577862,2146.597232,10140.821405,2604.724693
126.578183,3034.844362,9696.697840,1838.629195
126.578504,5551.544565,10362.883188,1149.143247
126.578824,5181.441594,11621.233289,612.876398
126.579145,5329.482782,10584.944971,-612.876398
126.579465,5551.544565,8216.285956,-1991.848295
126.579786,5921.647536,6069.688724,-2298.286494
126.580107,5847.626942,4737.318029,-2068.457845
126.580427,6513.812290,4219.173869,-995.924147
126.580748,7254.018232,6069.688724,0.000000
126.581069,7328.038826,10214.842000,766.095498
126.581389,8290.306550,11547.212695,1149.143247
126.581710,8660.409521,10362.883188,-1302.362347
126.582030,7179.997637,7994.224174,-2451.505594
126.582351,6069.688724,6217.729913,-2987.772442
126.582672,5921.647536,5921.647536,-1991.848295
126.582992,4663.297435,5773.606348,-1762.019645
126.583313,3256.906145,7846.182985,-153.219100
126.583634,3552.988522,9474.636058,1762.019645
126.583954,2960.823768,10881.027347,2374.896044
126.584275,1924.535449,11029.068536,1072.533697
126.584595,2368.659014,9918.759623,536.266849
126.584916,4071.132681,8660.409521,-153.219100
126.585237,3701.029710,7846.182985,0.000000
126.585557,2886.803174,7105.977043,383.047749
126.585878,3552.988522,6957.935855,1149.143247
126.586199,3627.009116,7105.977043,1302.362347
126.586519,4219.173869,8142.265362,1225.752797
126.586840,5255.462188,9400.615463,536.266849
126.587161,5995.668130,9104.533087,-689.485948
126.587481,7254.018232,7698.141797,-1149.143247
126.587802,8068.244768,7846.182985,383.047749
126.588123,7105.977043,6365.771101,919.314598
126.588443,6439.791695,5181.441594,-536.266849
126.588764,6439.791695,4959.379811,-1072.533697
126.589085,5847.626942,5477.523971,-1149.143247
126.589405,7105.977043,6809.894666,-612.876398
126.589726,7772.162391,8142.265362,-1225.752797
126.590047,7105.977043,9400.615463,-2068.457845
126.590367,6291.750507,9400.615463,-1915.238745
126.590688,4959.379811,8586.388927,-1149.143247
126.591009,4737.318029,7476.080014,153.219100
126.591329,3552.988522,6735.874072,536.266849
126.591650,2886.803174,7179.997637,-306.438199
126.591971,3404.947333,7846.182985,-612.876398
126.592291,4145.153275,8364.327145,1072.533697
126.592612,4145.153275,9030.512492,1072.533697
126.592933,3552.988522,9548.656652,842.705048
126.593253,2812.782580,9770.718434,0.000000
126.593574,2664.741391,9400.615463,-459.657299
126.593895,2812.782580,8068.244768,459.657299
126.594215,4663.297435,7031.956449,153.219100
126.594536,5625.565159,7550.100608,1225.752797
126.594857,4293.194464,9770.718434,919.314598
126.595177,3478.967927,11251.130318,0.000000
126.595498,3404.947333,10955.047942,0.000000
126.595819,3775.050304,9030.512492,-919.314598
126.596139,5255.462188,7624.121203,153.219100
126.596460,5403.503377,7105.977043,76.609550
126.596781,5477.523971,7994.224174,-766.095498
126.597101,5625.565159,9474.636058,-1225.752797
126.597422,4811.338623,9252.574275,-689.485948
126.597743,5255.462188,8882.471304,-383.047749
126.598063,6143.709319,8364.327145,766.095498
126.598384,5181.441594,9030.512492,0.000000
126.598704,5477.523971,8290.306550,-1915.238745
126.599025,5329.482782,7105.977043,-2604.724693
126.599346,5847.626942,7105.977043,-1455.581446
126.599666,5033.400406,7402.059420,689.485948
126.599987,4589.276840,8364.327145,1149.143247
126.600308,4219.173869,9178.553681,-229.828649
126.600628,3701.029710,9474.636058,-766.095498
126.600949,4663.297435,8142.265362,-1072.533697
126.601270,5033.400406,7254.018232,-76.609550
126.601590,5995.668130,7698.141797,1149.143247
126.601911,5847.626942,8216.285956,1685.410096
126.602232,4737.318029,7698.141797,536.266849
126.602552,3627.009116,6735.874072,-306.438199
126.602873,4515.256246,6513.812290,-383.047749
126.603194,5033.400406,6513.812290,0.000000
126.603514,6143.709319,6809.894666,-612.876398
126.603835,7550.100608,6957.935855,-919.314598
126.604156,7105.977043,7624.121203,-229.828649
126.604476,6069.688724,7846.182985,689.485948
126.604797,5625.565159,7920.203579,842.705048
126.605118,5403.503377,7624.121203,76.609550
126.605438,6365.771101,7550.100608,-1378.971896
126.605759,6957.935855,7179.997637,-2068.457845
126.606080,7550.100608,6957.935855,-1915.238745
126.606400,8142.265362,7328.038826,-459.657299
126.606721,6587.832884,7772.162391,1378.971896
126.607042,5403.503377,7994.224174,842.705048
126.607362,5255.462188,7624.121203,76.609550
126.607683,4885.359217,7402.059420,-536.266849
126.608004,5477.523971,6217.729913,0.000000
126.608324,6365.771101,6365.771101,536.266849
126.608645,6513.812290,6661.853478,612.876398
126.608966,4885.359217,7402.059420,229.828649
126.609286,3997.112087,9178.553681,842.705048
126.609607,3701.029710,10066.800811,842.705048
126.609928,4071.132681,9252.574275,766.095498
126.610248,4811.338623,8512.368333,459.657299
126.610569,4959.379811,8142.265362,-1072.533697
126.610890,4663.297435,7624.121203,-919.314598
126.611210,4589.276840,8216.285956,229.828649
126.611531,3923.091493,8882.471304,1225.752797
126.611852,3330.926739,9400.615463,919.314598
126.612172,3627.009116,9326.594869,-536.266849
126.612493,3627.009116,8438.347739,-1225.752797
126.612814,4737.318029,7402.059420,-919.314598
126.613134,5921.647536,6809.894666,76.609550
126.613455,5551.544565,5921.647536,76.609550
126.613776,3997.112087,7105.977043,306.438199
126.614096,4145.153275,8808.450710,842.705048
126.614417,4293.194464,9918.759623,-229.828649
126.614738,4737.318029,8882.471304,-1149.143247
126.615058,6809.894666,7624.121203,-1455.581446
126.615379,7179.997637,6809.894666,-1455.581446
126.615700,5995.668130,6661.853478,-689.485948
126.616020,5847.626942,7402.059420,536.266849
126.616341,5181.441594,8068.244768,383.047749
126.616662,4663.297435,8216.285956,76.609550
126.616982,5181.441594,7994.224174,-153.219100
126.617303,5995.668130,7846.182985,-1302.362347
126.617624,6217.729913,7105.977043,-1762.019645
126.617944,6439.791695,7105.977043,-612.876398
126.618265,5995.668130,7105.977043,612.876398
126.618585,4367.215058,7920.203579,1608.800546
126.618906,4071.132681,7698.141797,919.314598
126.619227,4145.153275,8808.450710,-612.876398
126.619547,4737.318029,8438.347739,-612.876398
126.619868,5625.565159,8734.430116,-919.314598
126.620189,6513.812290,7920.203579,-766.095498
126.620509,5773.606348,7550.100608,-383.047749
126.620830,5551.544565,8290.306550,995.924147
126.621151,4071.132681,8660.409521,919.314598
126.621471,4589.276840,8956.491898,0.000000
126.621792,5403.503377,9326.594869,0.000000
126.622113,6143.709319,7772.162391,-1225.752797
126.622433,6809.894666,6661.853478,-766.095498
126.622754,7550.100608,5995.668130,536.266849
126.623075,5625.565159,6513.812290,612.876398
126.623395,4737.318029,6735.874072,612.876398
126.623716,4515.256246,6809.894666,0.000000
126.624037,5181.441594,7920.203579,-1072.533697
126.624357,5995.668130,8882.471304,-1225.752797
126.624678,6365.771101,8438.347739,-1915.238745
126.624999,6809.894666,7698.141797,-1838.629195
126.625319,6439.791695,7476.080014,-306.438199
126.625640,5477.523971,7476.080014,842.705048
126.625961,4441.235652,7624.121203,0.000000
126.626281,4293.194464,8142.265362,-842.705048
126.626602,4959.379811,8882.471304,-1378.971896
126.626923,6365.771101,8216.285956,-1302.362347
126.627243,6957.935855,7031.956449,-842.705048
126.627564,6291.750507,6957.935855,153.219100
126.627885,4367.215058,7624.121203,1225.752797
126.628205,3034.844362,7328.038826,1532.190996
126.628526,2738.761985,6513.812290,153.219100
126.628847,4293.194464,6809.894666,0.000000
126.629167,5773.606348,8512.368333,-612.876398
126.629488,6291.750507,9104.533087,-1072.533697
126.629809,6143.709319,9030.512492,-1072.533697
126.630129,5625.565159,9030.512492,0.000000
126.630450,4219.173869,8586.388927,536.266849
126.630771,4145.153275,8290.306550,689.485948
126.631091,4589.276840,9030.512492,0.000000
126.631412,4737.318029,9252.574275,-1149.143247
126.631733,5699.585753,9030.512492,-1149.143247
126.632053,6143.709319,7994.224174,-459.657299
126.632374,5403.503377,7698.141797,995.924147
126.632695,3997.112087,8438.347739,2068.457845
126.633015,3256.906145,8956.491898,842.705048
126.633336,3330.926739,8586.388927,-76.609550
126.633657,4663.297435,7920.203579,-459.657299
126.633977,5921.647536,7254.018232,-383.047749
126.634298,6217.729913,7698.141797,0.000000
126.634619,6513.812290,8512.368333,995.924147
126.634939,5181.441594,9178.553681,689.485948
126.635260,3627.009116,8586.388927,0.000000
126.635581,4441.235652,8068.244768,0.000000
126.635901,4885.359217,7920.203579,-229.828649
126.636222,4737.318029,7328.038826,-689.485948
126.636543,6365.771101,7105.977043,-1072.533697
126.636863,6291.750507,6661.853478,-306.438199
126.637184,5107.421000,6809.894666,689.485948
126.637505,4293.194464,6957.935855,1072.533697
126.637825,3997.112087,7550.100608,306.438199
126.638146,3997.112087,7254.018232,-689.485948
126.638467,5551.544565,7254.018232,-919.314598
126.638787,6217.729913,7105.977043,-1149.143247
126.639108,6217.729913,7105.977043,-1072.533697
126.639428,5773.606348,7476.080014,0.000000
126.639749,4811.338623,8216.285956,153.219100
126.640070,3997.112087,9030.512492,0.000000
126.640390,4737.318029,8290.306550,-842.705048
126.640711,4885.359217,7402.059420,-1532.190996
126.641032,5625.565159,6957.935855,-306.438199
126.641352,6587.832884,7179.997637,612.876398
126.641673,5403.503377,6661.853478,0.000000
126.641994,4293.194464,6957.935855,-842.705048
126.642314,5033.400406,7402.059420,0.000000
126.642635,4515.256246,8660.409521,0.000000
126.642956,5255.462188,8734.430116,-612.876398
126.643276,6439.791695,9030.512492,-383.047749
126.643597,5995.668130,9326.594869,-1685.410096
126.643918,5699.585753,8882.471304,-612.876398
126.644238,4885.359217,8956.491898,612.876398
126.644559,3627.009116,9400.615463,-459.657299
126.644880,3775.050304,9918.759623,-766.095498
126.645200,3478.967927,10066.800811,-766.095498
126.645521,3923.091493,9474.636058,-1532.190996
126.645842,4589.276840,8068.244768,0.000000
126.646162,4737.318029,7994.224174,459.657299
126.646483,3923.091493,8956.491898,1149.143247
126.646804,2368.659014,9622.677246,1302.362347
126.647124,2960.823768,9992.780217,306.438199
126.647445,3552.988522,9918.759623,-306.438199
126.647766,4145.153275,8734.430116,-919.314598
126.648086,4959.379811,8882.471304,-1149.143247
126.648407,4663.297435,8586.388927,-1225.752797
126.648728,4663.297435,9178.553681,-689.485948
126.649048,4737.318029,9696.697840,-383.047749
126.649369,4737.318029,9030.512492,0.000000
126.649690,3997.112087,8512.368333,153.219100
126.650010,3775.050304,8586.388927,0.000000
126.650331,4589.276840,7402.059420,-459.657299
126.650652,5477.523971,6143.709319,-383.047749
126.650972,5181.441594,5699.585753,-229.828649
126.651293,5255.462188,7105.977043,536.266849
126.651614,4071.132681,8142.265362,76.609550
126.651934,3404.947333,8808.450710,-153.219100
126.652255,4737.318029,8290.306550,0.000000
126.652576,6143.709319,6809.894666,-76.609550
126.652896,6809.894666,6069.688724,-919.314598
126.653217,6291.750507,6809.894666,-995.924147
126.653538,5699.585753,8142.265362,-1532.190996
126.653858,5255.462188,8734.430116,-842.705048
126.654179,5625.565159,8290.306550,-306.438199
126.654500,5847.626942,7698.141797,229.828649
126.654820,5847.626942,7550.100608,-229.828649
126.655141,5699.585753,7031.956449,-306.438199
126.655462,4515.256246,7254.018232,-306.438199
126.655782,4219.173869,6365.771101,766.095498
126.656103,4663.297435,6439.791695,1378.971896
126.656424,4885.359217,7698.141797,1915.238745
126.656744,4441.235652,8734.430116,1532.190996
126.657065,4293.194464,8882.471304,-153.219100
126.657386,4811.338623,7994.224174,-1302.362347
126.657706,5921.647536,7550.100608,-766.095498
126.658027,6143.709319,7698.141797,536.266849
126.658348,5625.565159,7994.224174,1532.190996
126.658668,4663.297435,8808.450710,1225.752797
126.658989,3775.050304,9770.718434,-1149.143247
126.659309,3701.029710,9770.718434,-1532.190996
126.659630,4145.153275,9696.697840,-1608.800546
126.659951,4959.379811,8882.471304,-995.924147
126.660271,5107.421000,8438.347739,0.000000
126.660592,4737.318029,8956.491898,1072.533697
126.660913,3256.906145,8364.327145,1072.533697
126.661233,2738.761985,7994.224174,536.266849
126.661554,3256.906145,7920.203579,229.828649
126.661875,4515.256246,8068.244768,-306.438199
126.662195,5847.626942,8216.285956,-919.314598
126.662516,5625.565159,8364.327145,-1302.362347
126.662837,5255.462188,8364.327145,-459.657299
126.663157,4367.215058,8734.430116,306.438199
126.663478,3627.009116,8438.347739,0.000000
126.663799,3997.112087,8364.327145,-536.266849
126.664119,4441.235652,9252.574275,-1532.190996
126.664440,5107.421000,9030.512492,-1991.848295
126.664761,5699.585753,8956.491898,-1378.971896
126.665081,5773.606348,7994.224174,-1072.533697
126.665402,4441.235652,7920.203579,76.609550
126.665723,3404.947333,7994.224174,766.095498
126.666043,3108.864956,8438.347739,76.609550
126.666364,3701.029710,8438.347739,-842.705048
126.666685,4589.276840,8068.244768,-1302.362347
126.667005,5921.647536,7994.224174,-1149.143247
126.667326,5773.606348,7994.224174,-229.828649
126.667647,5181.441594,7920.203579,459.657299
126.667967,4145.153275,7772.162391,306.438199
126.668288,4293.194464,8438.347739,612.876398
126.668609,4589.276840,9252.574275,383.047749
126.668929,4293.194464,8660.409521,-1455.581446
126.669250,6291.750507,7698.141797,-2374.896044
126.669571,7624.121203,7994.224174,-1762.019645
126.669891,6291.750507,8512.368333,536.266849
126.670212,5403.503377,8364.327145,842.705048
126.670533,4219.173869,8216.285956,459.657299
126.670853,4219.173869,7846.182985,306.438199
126.671174,4737.318029,7550.100608,0.000000
126.671495,5329.482782,7994.224174,-689.485948
126.671815,5403.503377,8290.306550,-1608.800546
126.672136,5995.668130,8734.430116,-612.876398
126.672457,5921.647536,8512.368333,842.705048
126.672777,4737.318029,8586.388927,1302.362347
126.673098,4071.132681,8290.306550,842.705048
126.673419,3478.967927,7772.162391,-842.705048
126.673739,3923.091493,7920.203579,-1225.752797
126.674060,5477.523971,7105.977043,-306.438199
126.674381,6365.771101,7402.059420,0.000000
126.674701,5329.482782,8068.244768,536.266849
126.675022,3997.112087,8290.306550,995.924147
126.675343,3256.906145,8438.347739,689.485948
126.675663,3849.070898,7994.224174,-383.047749
126.675984,5477.523971,7994.224174,-1072.533697
126.676305,6735.874072,8068.244768,-1149.143247
126.676625,6661.853478,8216.285956,-995.924147
126.676946,5477.523971,8882.471304,-229.828649
126.677267,4811.338623,9030.512492,842.705048
126.677587,3627.009116,7624.121203,306.438199
126.677908,3849.070898,7254.018232,0.000000
126.678229,4293.194464,7476.080014,-459.657299
126.678549,4367.215058,8290.306550,-995.924147
126.678870,4885.359217,8364.327145,-689.485948
126.679191,5033.400406,7698.141797,536.266849
126.679511,4515.256246,7476.080014,2068.457845
126.679832,3701.029710,7994.224174,2451.505594
126.680152,3701.029710,8512.368333,306.438199
126.680473,3701.029710,8142.265362,-1838.629195
126.680794,5477.523971,8808.450710,-1608.800546
126.681114,6513.812290,8586.388927,-842.705048
126.681435,6883.915261,7920.203579,0.000000
126.681756,6661.853478,8364.327145,766.095498
126.682076,4737.318029,9474.636058,766.095498
126.682397,3108.864956,8808.450710,306.438199
126.682718,3256.906145,7624.121203,-153.219100
126.683038,4663.297435,7031.956449,-306.438199
126.683359,6143.709319,6587.832884,-229.828649
126.683680,6513.812290,7698.141797,536.266849
126.684000,5625.565159,8068.244768,153.219100
126.684321,4589.276840,9252.574275,306.438199
126.684642,3997.112087,8734.430116,383.047749
126.684963,4885.359217,7920.203579,612.876398
126.685283,5847.626942,7624.121203,689.485948
126.685604,5921.647536,7994.224174,-612.876398
126.685925,6143.709319,7254.018232,-1991.848295
126.686246,6069.688724,7105.977043,-1378.971896
126.686567,5477.523971,7476.080014,0.000000
126.686888,4737.318029,7920.203579,689.485948
126.687208,5033.400406,7698.141797,1072.533697
126.687529,5329.482782,7994.224174,-229.828649
126.687850,5551.544565,8068.244768,-995.924147
126.688171,6365.771101,7550.100608,-1225.752797
126.688492,6957.935855,7179.997637,-1302.362347
126.688813,5921.647536,7179.997637,0.000000
126.689133,5255.462188,7550.100608,1149.143247
126.689454,4959.379811,7550.100608,459.657299
126.689775,5107.421000,7254.018232,-459.657299
126.690096,5699.585753,7846.182985,-995.924147
126.690417,5773.606348,7994.224174,-1838.629195
126.690738,5699.585753,7105.977043,-842.705048
126.691058,5921.647536,7328.038826,229.828649
126.691379,5181.441594,8512.368333,1225.752797
126.691700,4071.132681,9622.677246,995.924147
126.692021,3775.050304,9474.636058,-536.266849
126.692342,3997.112087,8290.306550,-2451.505594
126.692662,4367.215058,7328.038826,-1991.848295
126.692983,5625.565159,7994.224174,-229.828649
126.693304,5033.400406,8734.430116,1072.533697
126.693625,3404.947333,9474.636058,612.876398
126.693946,3552.988522,9918.759623,689.485948
126.694267,2886.803174,9696.697840,76.609550
126.694587,3997.112087,8068.244768,-383.047749
126.694908,4811.338623,7772.162391,-306.438199
126.695229,4811.338623,7476.080014,-459.657299
126.695550,5181.441594,8290.306550,0.000000
126.695871,5699.585753,9104.533087,536.266849
126.696192,4663.297435,8956.491898,-153.219100
126.696512,4737.318029,9252.574275,-229.828649
126.696833,4441.235652,8660.409521,153.219100
126.697154,4441.235652,7476.080014,-919.314598
126.697475,6217.729913,6513.812290,-536.266849
126.697796,6957.935855,6365.771101,0.000000
126.698117,6291.750507,6143.709319,689.485948
126.698437,6439.791695,7105.977043,383.047749
126.698758,5033.400406,8142.265362,-459.657299
126.699079,5033.400406,8142.265362,-766.095498
126.699400,7105.977043,7624.121203,0.000000
126.699721,8216.285956,7105.977043,-229.828649
126.700042,7105.977043,6661.853478,-612.876398
126.700362,6291.750507,5921.647536,-1378.971896
126.700683,5625.565159,7550.100608,-1225.752797
126.701004,4589.276840,8290.306550,306.438199
126.701325,5403.503377,8216.285956,919.314598
126.701646,5477.523971,7328.038826,0.000000
126.701967,4737.318029,6809.894666,-459.657299
126.702287,4959.379811,6957.935855,0.000000
126.702608,4589.276840,6957.935855,229.828649
126.702929,4959.379811,7105.977043,919.314598
126.703250,5033.400406,7698.141797,1378.971896
126.703571,5107.421000,8068.244768,919.314598
126.703892,4737.318029,7920.203579,0.000000
126.704212,4811.338623,8364.327145,-1072.533697
126.704533,4885.359217,7994.224174,-1608.800546
126.704854,6217.729913,7476.080014,-842.705048
126.705175,6143.709319,7105.977043,689.485948
126.705496,5181.441594,8216.285956,1225.752797
126.705817,4441.235652,9844.739029,1455.581446
126.706137,3923.091493,9696.697840,-766.095498
126.706458,4441.235652,8438.347739,-2298.286494
126.706779,6143.709319,7105.977043,-1532.190996
126.707100,7031.956449,5995.668130,-689.485948
126.707421,6069.688724,7031.956449,229.828649
126.707741,4441.235652,8512.368333,383.047749
126.708062,4367.215058,9474.636058,766.095498
126.708383,4737.318029,8808.450710,153.219100
126.708704,5773.606348,7624.121203,-306.438199
126.709025,6513.812290,7402.059420,-1378.971896
126.709346,6587.832884,7328.038826,-1762.019645
126.709666,5699.585753,7550.100608,-1838.629195
126.709987,5995.668130,8068.244768,229.828649
126.710308,5477.523971,8290.306550,1455.581446
126.710629,4737.318029,8438.347739,1302.362347
126.710950,4811.338623,8734.430116,-383.047749
126.711271,4219.173869,8734.430116,-1915.238745
126.711591,5181.441594,7920.203579,-2068.457845
126.711912,6291.750507,6735.874072,-1225.752797
126.712233,6217.729913,6587.832884,153.219100
126.712554,5033.400406,8364.327145,1149.143247
126.712875,3182.885551,9178.553681,1225.752797
126.713196,3108.864956,9622.677246,0.000000
126.713516,4219.173869,9252.574275,-1762.019645
126.713837,5033.400406,8438.347739,-1685.410096
126.714158,6291.750507,7624.121203,-919.314598
126.714479,5699.585753,7772.162391,383.047749
126.714800,4367.215058,8438.347739,1072.533697
126.715121,3256.906145,8364.327145,766.095498
126.715441,2886.803174,8734.430116,0.000000
126.715762,3404.947333,8734.430116,-153.219100
126.716083,4737.318029,8068.244768,-536.266849
126.716404,6217.729913,7402.059420,-459.657299
126.716725,6439.791695,7328.038826,0.000000
126.717046,5625.565159,7772.162391,689.485948
126.717366,4367.215058,8882.471304,536.266849
126.717687,3552.988522,8882.471304,459.657299
126.718008,4515.256246,8142.265362,-229.828649
126.718329,5921.647536,7624.121203,-1149.143247
126.718650,6365.771101,6735.874072,-1762.019645
126.718971,7402.059420,7031.956449,-1838.629195
126.719291,6809.894666,7179.997637,-383.047749
126.719612,4959.379811,7698.141797,1302.362347
126.719933,4589.276840,7550.100608,1532.190996
126.720254,4811.338623,7624.121203,459.657299
126.720575,4589.276840,7105.977043,-536.266849
126.720896,6513.812290,7105.977043,-1608.800546
126.721216,7105.977043,6735.874072,-1378.971896
126.721537,6365.771101,6883.915261,-536.266849
126.721858,5847.626942,7624.121203,842.705048
126.722179,4441.235652,8364.327145,766.095498
126.722500,3775.050304,9252.574275,842.705048
126.722821,4219.173869,8734.430116,153.219100
126.723141,5255.462188,7994.224174,-1378.971896
126.723462,5625.565159,7105.977043,-1991.848295
126.723783,5921.647536,7624.121203,-995.924147
126.724104,4515.256246,8216.285956,459.657299
126.724425,3330.926739,9252.574275,1608.800546
126.724745,2590.720797,8512.368333,919.314598
126.725066,3997.112087,8956.491898,0.000000
126.725387,4219.173869,8882.471304,-1149.143247
126.725708,4959.379811,8734.430116,-1532.190996
126.726029,5699.585753,7994.224174,-612.876398
126.726350,5329.482782,7994.224174,536.266849
126.726670,4367.215058,8808.450710,1532.190996
126.726991,3108.864956,9400.615463,1149.143247
126.727312,2590.720797,9696.697840,-689.485948
126.727633,3775.050304,8808.450710,-1838.629195
126.727954,5551.544565,7624.121203,-919.314598
126.728275,6365.771101,7254.018232,-383.047749
126.728595,6439.791695,7402.059420,383.047749
126.728916,4737.318029,8438.347739,919.314598
126.729237,3034.844362,9326.594869,0.000000
126.729558,3404.947333,8882.471304,-229.828649
126.729879,4293.194464,8290.306550,-919.314598
126.730200,5995.668130,8364.327145,-1149.143247
126.730520,6069.688724,7698.141797,-1225.752797
126.730841,5625.565159,7476.080014,-689.485948
126.731162,4737.318029,7920.203579,459.657299
126.731483,3923.091493,7994.224174,1072.533697
126.731804,3849.070898,8438.347739,229.828649
126.732125,4219.173869,8216.285956,-919.314598
126.732445,5181.441594,7772.162391,-995.924147
126.732766,6735.874072,7179.997637,-1302.362347
126.733087,6735.874072,7105.977043,-536.266849
126.733408,5625.565159,7550.100608,383.047749
126.733729,4737.318029,8660.409521,536.266849
126.734050,4293.194464,9178.553681,306.438199
126.734370,4219.173869,8808.450710,-689.485948
126.734691,5107.421000,8438.347739,-1302.362347
126.735012,6365.771101,7550.100608,-1378.971896
126.735333,5995.668130,7550.100608,-612.876398
126.735654,5551.544565,7179.997637,153.219100
126.735975,4811.338623,8068.244768,1302.362347
126.736295,4145.153275,8734.430116,1302.362347
126.736616,4367.215058,8956.491898,842.705048
126.736937,4663.297435,8808.450710,-536.266849
126.737258,5255.462188,7846.182985,-1532.190996
126.737579,6735.874072,8290.306550,-766.095498
126.737900,5995.668130,8068.244768,-383.047749
126.738220,4663.297435,8882.471304,0.000000
126.738541,4663.297435,9252.574275,689.485948
126.738862,3034.844362,8808.450710,1302.362347
126.739183,3108.864956,8660.409521,229.828649
126.739504,4885.359217,8734.430116,-459.657299
126.739824,5329.482782,8290.306550,-1072.533697
126.740145,5107.421000,7772.162391,-689.485948
126.740466,5181.441594,7846.182985,383.047749
126.740787,3330.926739,8512.368333,842.705048
126.741108,2368.659014,8660.409521,1072.533697
126.741429,3923.091493,8808.450710,459.657299
126.741749,4441.235652,8364.327145,-459.657299
126.742070,4885.359217,7328.038826,-1378.971896
126.742391,5699.585753,7105.977043,-1685.410096
126.742712,5847.626942,7846.182985,-1455.581446
126.743033,5033.400406,8734.430116,0.000000
126.743354,4515.256246,9252.574275,1149.143247
126.743674,4293.194464,8438.347739,229.828649
126.743995,4293.194464,7328.038826,-612.876398
126.744316,4959.379811,6439.791695,-1455.581446
126.744637,5181.441594,6809.894666,-1915.238745
126.744958,5477.523971,6735.874072,-995.924147
126.745279,6513.812290,7105.977043,689.485948
126.745599,4885.359217,8216.285956,1072.533697
126.745920,3923.091493,8808.450710,919.314598
126.746241,4071.132681,9252.574275,76.609550
126.746562,4663.297435,8290.306550,-1838.629195
126.746883,4959.379811,7031.956449,-2068.457845
126.747204,5995.668130,7031.956449,-842.705048
126.747524,5847.626942,8364.327145,459.657299
126.747845,4441.235652,10066.800811,1149.143247
126.748166,3034.844362,9992.780217,76.609550
126.748487,3404.947333,9696.697840,-306.438199
126.748808,4293.194464,8216.285956,-919.314598
126.749129,5329.482782,7698.141797,-383.047749
126.749449,5551.544565,7179.997637,-229.828649
126.749770,5255.462188,7994.224174,76.609550
126.750091,4885.359217,9030.512492,1149.143247
126.750412,4367.215058,9400.615463,1378.971896
126.750733,4145.153275,8660.409521,842.705048
126.751054,4959.379811,7920.203579,0.000000
126.751374,5181.441594,8068.244768,-1225.752797
126.751695,6217.729913,8290.306550,-1608.800546
126.752016,6439.791695,7994.224174,-995.924147
126.752337,6735.874072,8142.265362,229.828649
126.752658,5033.400406,8660.409521,689.485948
126.752979,3997.112087,8660.409521,689.485948
126.753299,4071.132681,8808.450710,153.219100
126.753620,4811.338623,8142.265362,-995.924147
126.753941,5995.668130,7328.038826,-1378.971896
126.754262,6883.915261,7105.977043,-1149.143247
126.754583,5921.647536,7550.100608,459.657299
126.754903,4145.153275,8068.244768,1455.581446
126.755224,3478.967927,7994.224174,1149.143247
126.755545,3034.844362,7328.038826,76.609550
126.755866,4367.215058,7105.977043,-229.828649
126.756187,5847.626942,6809.894666,-995.924147
126.756508,6957.935855,7105.977043,-1915.238745
126.756828,6661.853478,7920.203579,-995.924147
126.757149,5477.523971,8808.450710,536.266849
126.757470,4367.215058,8808.450710,842.705048
126.757791,4367.215058,8290.306550,153.219100
126.758112,4663.297435,8216.285956,-536.266849
126.758433,4737.318029,7624.121203,-2068.457845
126.758753,5477.523971,7624.121203,-2604.724693
126.759074,5847.626942,7698.141797,-919.314598
126.759395,5181.441594,7994.224174,1149.143247
126.759716,4071.132681,8438.347739,2451.505594
126.760037,2886.803174,8808.450710,1685.410096
126.760358,2590.720797,8734.430116,-229.828649
126.760678,3552.988522,8068.244768,-1455.581446
126.760999,5033.400406,7846.182985,-1302.362347
126.761320,6513.812290,7846.182985,0.000000
126.761641,6143.709319,8438.347739,1302.362347
126.761962,4737.318029,9992.780217,1225.752797
126.762283,2812.782580,10066.800811,229.828649
126.762603,3108.864956,9548.656652,0.000000
126.762924,4589.276840,8734.430116,-306.438199
126.763245,5995.668130,7624.121203,-459.657299
126.763566,7031.956449,7328.038826,-306.438199
126.763887,6143.709319,7550.100608,-383.047749
126.764208,4515.256246,7624.121203,1072.533697
126.764528,3997.112087,8216.285956,1915.238745
126.764849,4811.338623,8438.347739,1149.143247
126.765170,5033.400406,7846.182985,-689.485948
126.765491,6957.935855,7179.997637,-1608.800546
126.765812,7254.018232,7031.956449,-1532.190996
126.766133,6439.791695,6587.832884,-383.047749
126.766453,5625.565159,7402.059420,766.095498
126.766774,4737.318029,8068.244768,1532.190996
126.767095,4145.153275,8142.265362,-153.219100
126.767416,5033.400406,8660.409521,-689.485948
126.767737,5329.482782,8808.450710,-1915.238745
126.768058,5181.441594,7994.224174,-1915.238745
126.768378,5847.626942,7328.038826,-766.095498
126.768699,5625.565159,7105.977043,1225.752797
126.769020,4367.215058,7920.203579,1838.629195
126.769341,2886.803174,8364.327145,1225.752797
126.769662,3404.947333,8660.409521,-153.219100
126.769982,3627.009116,8882.471304,-536.266849
126.770303,5181.441594,8512.368333,-919.314598
126.770624,6439.791695,7476.080014,-995.924147
126.770945,5699.585753,6957.935855,-153.219100
126.771266,4219.173869,7920.203579,1378.971896
126.771587,2738.761985,9252.574275,1072.533697
126.771907,2590.720797,9030.512492,-536.266849
126.772228,4367.215058,8586.388927,-1532.190996
126.772549,6587.832884,7698.141797,-1762.019645
126.772870,7328.038826,7105.977043,-1149.143247
126.773191,6291.750507,7328.038826,0.000000
126.773512,4663.297435,8512.368333,459.657299
126.773832,3552.988522,8808.450710,689.485948
126.774153,3627.009116,8512.368333,689.485948
126.774474,5107.421000,7846.182985,459.657299
126.774795,6365.771101,7476.080014,-536.266849
126.775116,6735.874072,7920.203579,-2298.286494
126.775437,6291.750507,8216.285956,-2374.896044
126.775757,6143.709319,7476.080014,-689.485948
126.776078,5773.606348,7698.141797,1455.581446
126.776399,5033.400406,7624.121203,1915.238745
126.776720,4663.297435,7994.224174,383.047749
126.777041,4737.318029,8512.368333,-995.924147
126.777362,5329.482782,7994.224174,-2298.286494
126.777682,6661.853478,6957.935855,-1302.362347
126.778003,7105.977043,6809.894666,536.266849
126.778324,6217.729913,7550.100608,1762.019645
126.778645,4071.132681,8438.347739,1225.752797
126.778966,3256.906145,8438.347739,383.047749
126.779287,4441.235652,7550.100608,-153.219100
126.779607,5847.626942,6957.935855,-919.314598
126.779928,7179.997637,6291.750507,-689.485948
126.780249,7328.038826,6661.853478,-612.876398
126.780570,6439.791695,8068.244768,229.828649
126.780891,4589.276840,9326.594869,536.266849
126.781212,4367.215058,8660.409521,-536.266849
126.781532,4737.318029,8216.285956,-689.485948
126.781853,5329.482782,7846.182985,-536.266849
126.782174,5995.668130,7105.977043,-842.705048
126.782495,5773.606348,7328.038826,-1225.752797
126.782816,5033.400406,7846.182985,-919.314598
126.783137,3923.091493,9030.512492,1378.971896
126.783457,3997.112087,9030.512492,1685.410096
126.783778,4071.132681,8364.327145,995.924147
126.784099,4663.297435,7476.080014,-612.876398
126.784415,4959.379811,7550.100608,-1532.190996
126.784736,5551.544565,7550.100608,-842.705048
126.785057,5699.585753,7994.224174,-306.438199
126.785378,6143.709319,8956.491898,995.924147
126.785699,5033.400406,8956.491898,1225.752797
126.786020,3256.906145,8734.430116,306.438199
126.786341,3552.988522,8512.368333,-229.828649
126.786662,3701.029710,8290.306550,-459.657299
126.786983,5255.462188,7105.977043,-536.266849
126.787304,5995.668130,6957.935855,0.000000
126.787624,4811.338623,7476.080014,842.705048
126.787945,3552.988522,8364.327145,919.314598
126.788266,2812.782580,9104.533087,383.047749
126.788587,4145.153275,9178.553681,-689.485948
126.788908,4811.338623,9030.512492,-919.314598
126.789229,6143.709319,7105.977043,-1532.190996
126.789550,6217.729913,7328.038826,-1072.533697
126.789871,5403.503377,7698.141797,-153.219100
126.790192,4293.194464,8882.471304,1225.752797
126.790513,3923.091493,8586.388927,612.876398
126.790834,4959.379811,7994.224174,0.000000
126.791155,5477.523971,6883.915261,-1072.533697
126.791475,5403.503377,5403.503377,-1455.581446
126.791796,6439.791695,6069.688724,-306.438199
126.792117,6143.709319,7624.121203,536.266849
126.792438,5255.462188,7994.224174,689.485948
126.792759,6365.771101,7624.121203,306.438199
126.793080,5403.503377,7920.203579,0.000000
126.793401,4737.318029,7994.224174,-153.219100
126.793722,5329.482782,7624.121203,-1225.752797
126.794043,5847.626942,7328.038826,-2374.896044
126.794364,6661.853478,7105.977043,-1915.238745
126.794685,7031.956449,8216.285956,612.876398
126.795006,4737.318029,9474.636058,1072.533697
126.795327,2960.823768,9622.677246,-229.828649
126.795647,3182.885551,9030.512492,-459.657299
126.795968,4367.215058,7994.224174,-919.314598
126.796289,5625.565159,7031.956449,-383.047749
126.796610,6439.791695,6809.894666,229.828649
126.796931,5181.441594,7994.224174,0.000000
126.797252,3997.112087,9622.677246,689.485948
126.797573,3256.906145,10214.842000,919.314598
126.797894,4441.235652,9030.512492,536.266849
126.798215,5255.462188,8142.265362,229.828649
126.798536,6365.771101,7920.203579,-766.095498
126.798857,5847.626942,7920.203579,-1149.143247
126.799178,5477.523971,7772.162391,-1762.019645
126.799498,5773.606348,8438.347739,-612.876398
126.799819,5625.565159,8734.430116,842.705048
126.800140,4737.318029,8956.491898,1455.581446
126.800461,5403.503377,8734.430116,229.828649
126.800782,4737.318029,7846.182985,-1608.800546
126.801103,4811.338623,6809.894666,-1915.238745
126.801424,6069.688724,6291.750507,-459.657299
126.801745,5181.441594,7179.997637,1072.533697
126.802066,4219.173869,8512.368333,1302.362347
126.802387,3256.906145,9474.636058,689.485948
126.802708,3330.926739,9178.553681,-1378.971896
126.803029,4589.276840,7920.203579,-1225.752797
126.803349,5403.503377,7105.977043,-995.924147
126.803670,5847.626942,7328.038826,-842.705048
126.803991,5699.585753,7994.224174,76.609550
126.804312,4737.318029,8734.430116,459.657299
126.804633,4441.235652,9104.533087,536.266849
126.804954,4441.235652,9178.553681,-76.609550
126.805275,4589.276840,8142.265362,-842.705048
126.805596,4737.318029,7328.038826,-1762.019645
126.805917,5699.585753,6661.853478,-459.657299
126.806238,5921.647536,7328.038826,459.657299
126.806559,4737.318029,8364.327145,1225.752797
126.806880,3701.029710,9548.656652,995.924147
126.807201,3330.926739,9326.594869,229.828649
126.807521,3997.112087,8734.430116,-229.828649
126.807842,5773.606348,7624.121203,-459.657299
126.808163,6439.791695,6513.812290,-459.657299
126.808484,5921.647536,7105.977043,-995.924147
126.808805,4737.318029,8734.430116,229.828649
126.809126,4219.173869,9622.677246,995.924147
126.809447,3256.906145,9178.553681,536.266849
126.809768,4811.338623,8364.327145,0.000000
126.810089,5033.400406,7698.141797,-689.485948
126.810410,5033.400406,7624.121203,-842.705048
126.810731,5625.565159,7846.182985,-766.095498
126.811052,5477.523971,8142.265362,0.000000
126.811372,5107.421000,8364.327145,995.924147
126.811693,4589.276840,8808.450710,1302.362347
126.812014,3775.050304,8586.388927,459.657299
126.812335,4515.256246,8364.327145,-995.924147
126.812656,5921.647536,8068.244768,-1225.752797
126.812977,5995.668130,7179.997637,-1302.362347
126.813298,5773.606348,5773.606348,-306.438199
126.813619,5699.585753,6587.832884,1302.362347
126.813940,4515.256246,8142.265362,1838.629195
126.814261,4071.132681,8438.347739,766.095498
126.814582,5107.421000,7994.224174,-842.705048
126.814903,5773.606348,7105.977043,-2451.505594
126.815223,7031.956449,7031.956449,-1762.019645
126.815544,7550.100608,7105.977043,-689.485948
126.815865,6291.750507,7994.224174,-306.438199
126.816186,4885.359217,9030.512492,306.438199
126.816507,4219.173869,9400.615463,383.047749
126.816828,3997.112087,8660.409521,-229.828649
126.817149,4589.276840,8142.265362,-995.924147
126.817470,5181.441594,7994.224174,-1072.533697
126.817791,5181.441594,7698.141797,-1072.533697
126.818112,5551.544565,7105.977043,0.000000
126.818433,4663.297435,7994.224174,536.266849
126.818754,2886.803174,8438.347739,842.705048
126.819075,3256.906145,9252.574275,1225.752797
126.819395,3997.112087,9326.594869,-153.219100
126.819716,3997.112087,8512.368333,-1608.800546
126.820037,6439.791695,7476.080014,-1149.143247
126.820358,5995.668130,7994.224174,-383.047749
126.820679,4737.318029,9104.533087,842.705048
126.821000,3404.947333,9844.739029,919.314598
126.821321,3552.988522,9474.636058,229.828649
126.821642,3923.091493,8438.347739,-383.047749
126.821963,5847.626942,8734.430116,-306.438199
126.822284,5477.523971,8808.450710,-919.314598
126.822605,5033.400406,8512.368333,-1608.800546
126.822926,4959.379811,9178.553681,76.609550
126.823246,4515.256246,9178.553681,1225.752797
126.823567,3775.050304,8586.388927,1072.533697
126.823888,3552.988522,7846.182985,153.219100
126.824209,3627.009116,8290.306550,-995.924147
126.824530,3997.112087,8068.244768,-1302.362347
126.824851,4663.297435,7254.018232,-229.828649
126.825172,5921.647536,7476.080014,612.876398
126.825493,4441.235652,8142.265362,1149.143247
126.825814,3034.844362,9178.553681,995.924147
126.826135,3034.844362,8808.450710,-536.266849
126.826456,4145.153275,8068.244768,-1532.190996
126.826777,6735.874072,7328.038826,-1685.410096
126.827098,7476.080014,6809.894666,-1149.143247
126.827418,6809.894666,7402.059420,-1149.143247
126.827739,5847.626942,9474.636058,0.000000
126.828060,4367.215058,9696.697840,1225.752797
126.828381,3701.029710,8290.306550,383.047749
126.828702,4145.153275,6735.874072,153.219100
126.829023,5033.400406,6143.709319,0.000000
126.829344,5107.421000,6365.771101,-689.485948
126.829665,4737.318029,6587.832884,-612.876398
126.829986,4811.338623,7328.038826,-229.828649
126.830307,5329.482782,9104.533087,1608.800546
126.830628,3997.112087,9696.697840,1838.629195
126.830949,4737.318029,8882.471304,612.876398
126.831269,5181.441594,7920.203579,-1149.143247
126.831590,5181.441594,7476.080014,-1225.752797
126.831911,6069.688724,7328.038826,-1608.800546
126.832232,6069.688724,7624.121203,-612.876398
126.832553,5329.482782,8882.471304,536.266849
126.832874,5033.400406,9770.718434,1149.143247
126.833195,3478.967927,9474.636058,0.000000
126.833516,3330.926739,8216.285956,-995.924147
126.833837,4737.318029,7105.977043,-766.095498
126.834158,5625.565159,6439.791695,153.219100
126.834479,6069.688724,7031.956449,383.047749
126.834800,5329.482782,7920.203579,612.876398
126.835120,4663.297435,9548.656652,229.828649
126.835441,3997.112087,9548.656652,306.438199
126.835762,4737.318029,8142.265362,612.876398
126.836083,5625.565159,7476.080014,-1149.143247
126.836404,6365.771101,7105.977043,-1149.143247
126.836725,6217.729913,7846.182985,-1149.143247
126.837046,5773.606348,8142.265362,-612.876398
126.837367,4441.235652,8586.388927,0.000000
126.837688,4441.235652,9326.594869,842.705048
126.838009,4663.297435,8808.450710,-229.828649
126.838330,4737.318029,7920.203579,-689.485948
126.838651,5329.482782,7550.100608,-1072.533697
126.838972,5551.544565,6661.853478,-766.095498
126.839292,4811.338623,6883.915261,-229.828649
126.839613,4885.359217,8660.409521,536.266849
126.839934,3701.029710,9770.718434,689.485948
126.840255,3849.070898,9178.553681,76.609550
126.840576,4737.318029,8364.327145,0.000000
126.840897,5847.626942,7476.080014,-995.924147
126.841218,5403.503377,7254.018232,-766.095498
126.841539,5477.523971,7328.038826,-689.485948
126.841860,5033.400406,8512.368333,-612.876398
126.842181,4145.153275,9474.636058,689.485948
126.842502,3478.967927,9178.553681,689.485948
126.842823,3849.070898,8882.471304,-383.047749
126.843143,5181.441594,8068.244768,-536.266849
126.843464,5181.441594,7476.080014,-536.266849
126.843785,5921.647536,6883.915261,-919.314598
126.844106,5699.585753,7550.100608,-229.828649
126.844427,4663.297435,9104.533087,1378.971896
126.844748,4071.132681,9326.594869,1685.410096
126.845069,4145.153275,9030.512492,536.266849
126.845390,5255.462188,7846.182985,-995.924147
126.845711,5625.565159,7624.121203,-1378.971896
126.846032,5773.606348,7105.977043,-995.924147
126.846353,5921.647536,7402.059420,-306.438199
126.846674,5477.523971,7772.162391,612.876398
126.846995,4663.297435,8364.327145,1302.362347
126.847315,3552.988522,8142.265362,612.876398
126.847636,4367.215058,8808.450710,153.219100
126.847957,4663.297435,8734.430116,-689.485948
126.848278,5255.462188,7179.997637,-1225.752797
126.848599,6217.729913,6587.832884,-919.314598
126.848920,5699.585753,7031.956449,76.609550
126.849241,4441.235652,7994.224174,1302.362347
126.849562,3997.112087,8808.450710,1149.143247
126.849883,3923.091493,8660.409521,-383.047749
126.850204,4885.359217,7698.141797,-1225.752797
126.850525,6439.791695,7179.997637,-1072.533697
126.850846,6291.750507,6661.853478,-766.095498
126.851166,5625.565159,7179.997637,-306.438199
126.851487,4811.338623,8512.368333,536.266849
126.851808,4367.215058,9474.636058,919.314598
126.852129,3849.070898,8438.347739,306.438199
126.852450,5033.400406,7624.121203,-612.876398
126.852771,5625.565159,7624.121203,-536.266849
126.853092,5107.421000,7846.182985,-1072.533697
126.853413,5107.421000,7402.059420,-306.438199
126.853734,4515.256246,7550.100608,689.485948
126.854055,3997.112087,8216.285956,1991.848295
126.854376,3627.009116,8364.327145,1378.971896
126.854697,3849.070898,8142.265362,-229.828649
126.855017,5329.482782,7550.100608,-1838.629195
126.855338,6661.853478,7550.100608,-1762.019645
126.855659,6809.894666,7550.100608,-919.314598
126.855980,6957.935855,9622.677246,306.438199
126.856301,5847.626942,10140.821405,1225.752797
126.856622,4071.132681,9252.574275,0.000000
126.856943,4293.194464,7254.018232,-383.047749
126.857264,4737.318029,6809.894666,-919.314598
126.857585,5551.544565,6513.812290,-306.438199
126.857906,6217.729913,6809.894666,-995.924147
126.858227,6513.812290,7402.059420,-536.266849
126.858548,5181.441594,8068.244768,0.000000
126.858869,4589.276840,7920.203579,459.657299
126.859189,4811.338623,7994.224174,459.657299
126.859510,4885.359217,7550.100608,0.000000
126.859831,5995.668130,7179.997637,-842.705048
126.860152,7402.059420,8216.285956,-1455.581446
126.860473,7254.018232,7846.182985,-1608.800546
126.860794,5847.626942,8734.430116,-459.657299
126.861115,5107.421000,9400.615463,0.000000
126.861436,4219.173869,9030.512492,-153.219100
126.861757,4145.153275,8290.306550,-229.828649
126.862078,5477.523971,7550.100608,-536.266849
126.862399,6143.709319,7105.977043,-919.314598
126.862720,5477.523971,6439.791695,-306.438199
126.863040,5181.441594,7179.997637,459.657299
126.863361,3923.091493,8660.409521,1072.533697
126.863682,2960.823768,9030.512492,1225.752797
126.864003,3849.070898,8586.388927,0.000000
126.864324,5255.462188,9030.512492,-1608.800546
126.864645,5921.647536,9252.574275,-1762.019645
126.864966,5255.462188,8586.388927,-1225.752797
126.865287,5625.565159,7550.100608,-689.485948
126.865608,5033.400406,8660.409521,1149.143247
126.865929,3627.009116,9474.636058,1762.019645
126.866250,2664.741391,9104.533087,229.828649
126.866571,4441.235652,8512.368333,-536.266849
126.866892,5255.462188,8216.285956,-1532.190996
126.867212,5773.606348,7105.977043,-612.876398
126.867533,6217.729913,6587.832884,612.876398
126.867854,5107.421000,8216.285956,1608.800546
126.868175,3478.967927,8882.471304,1762.019645
126.868496,3034.844362,8142.265362,689.485948
126.868817,4737.318029,7846.182985,-536.266849
126.869138,5477.523971,7624.121203,-842.705048
126.869459,6217.729913,7476.080014,-919.314598
126.869780,6143.709319,7624.121203,-842.705048
126.870101,5921.647536,7846.182985,-229.828649
126.870422,4959.379811,8660.409521,919.314598
126.870743,4737.318029,8364.327145,536.266849
126.871063,4441.235652,7846.182985,-919.314598
126.871384,5625.565159,7624.121203,-1532.190996
126.871705,6439.791695,6883.915261,-612.876398
126.872026,7328.038826,5921.647536,153.219100
126.872347,6883.915261,6291.750507,229.828649
126.872668,4663.297435,8068.244768,612.876398
126.872989,3478.967927,8882.471304,459.657299
126.873310,4219.173869,7846.182985,229.828649
126.873631,5181.441594,6883.915261,0.000000
126.873952,7179.997637,6513.812290,0.000000
126.874273,6365.771101,6291.750507,-766.095498
126.874594,5033.400406,7031.956449,-1072.533697
126.874914,5107.421000,8882.471304,0.000000
126.875235,4589.276840,9992.780217,459.657299
126.875556,3997.112087,9104.533087,306.438199
126.875877,5477.523971,8142.265362,-153.219100
126.876198,5255.462188,7846.182985,-612.876398
126.876519,5181.441594,7402.059420,-689.485948
126.876840,5625.565159,6809.894666,-459.657299
126.877161,5255.462188,7402.059420,-229.828649
126.877482,4515.256246,8734.430116,536.266849
126.877803,4145.153275,10140.821405,1225.752797
126.878124,3775.050304,8882.471304,-153.219100
126.878445,4589.276840,8290.306550,-842.705048
126.878766,5181.441594,8586.388927,-153.219100
126.879086,5255.462188,7920.203579,-919.314598
126.879407,4589.276840,8290.306550,-459.657299
126.879728,4219.173869,9474.636058,0.000000
126.880049,3478.967927,11251.130318,306.438199
126.880370,2960.823768,10732.986159,76.609550
126.880691,3552.988522,9992.780217,-689.485948
126.881012,4959.379811,8956.491898,-689.485948
126.881333,4219.173869,7550.100608,0.000000
126.881654,3923.091493,7031.956449,459.657299
126.881975,3701.029710,7698.141797,689.485948
126.882296,3478.967927,9030.512492,1072.533697
126.882617,3775.050304,9622.677246,0.000000
126.882937,4589.276840,8438.347739,-1302.362347
126.883258,5847.626942,8438.347739,-1532.190996
126.883579,6513.812290,7994.224174,-689.485948
126.883900,5551.544565,7254.018232,-995.924147
126.884221,5329.482782,7328.038826,-842.705048
126.884542,5033.400406,8216.285956,153.219100
126.884863,4737.318029,8660.409521,306.438199
126.885184,5181.441594,8512.368333,-689.485948
126.885505,6143.709319,7846.182985,-1532.190996
126.885826,6217.729913,7105.977043,-1991.848295
126.886147,6883.915261,6217.729913,-1302.362347
126.886468,6143.709319,5551.544565,612.876398
126.886789,5255.462188,5847.626942,1455.581446
126.887109,4515.256246,7031.956449,689.485948
126.887430,4737.318029,8438.347739,-612.876398
126.887751,5329.482782,7920.203579,-1378.971896
126.888072,7476.080014,7846.182985,-1762.019645
126.888393,7550.100608,7105.977043,-1378.971896
126.888714,6587.832884,7105.977043,-1149.143247
126.889035,5181.441594,8142.265362,919.314598
126.889356,4663.297435,8808.450710,1225.752797
126.889677,4293.194464,8956.491898,153.219100
126.889997,4663.297435,8438.347739,-612.876398
126.890318,5477.523971,8216.285956,-1608.800546
126.890639,5329.482782,8512.368333,-842.705048
126.890960,5403.503377,7550.100608,766.095498
126.891281,4959.379811,7328.038826,1455.581446
126.891602,3701.029710,7846.182985,1532.190996
126.891923,3627.009116,8438.347739,1455.581446
126.892244,3404.947333,8364.327145,766.095498
126.892565,4367.215058,7994.224174,-459.657299
126.892885,6217.729913,8512.368333,-1072.533697
126.893206,6439.791695,8290.306550,-995.924147
126.893527,5551.544565,8512.368333,-459.657299
126.893848,5625.565159,9104.533087,306.438199
126.894169,4071.132681,9474.636058,306.438199
126.894490,2590.720797,8882.471304,-536.266849
126.894811,4367.215058,8438.347739,-1378.971896
126.895132,5033.400406,8364.327145,-1149.143247
126.895453,5255.462188,8882.471304,-612.876398
126.895774,5107.421000,8956.491898,-536.266849
126.896094,3849.070898,8364.327145,-306.438199
126.896415,2516.700203,7624.121203,766.095498
126.896736,2146.597232,7402.059420,2068.457845
126.897057,3701.029710,7328.038826,1455.581446
126.897378,5033.400406,7624.121203,-612.876398
126.897699,5551.544565,8068.244768,-1762.019645
126.898020,6143.709319,8586.388927,-1991.848295
126.898341,6069.688724,9104.533087,-306.438199
126.898662,4959.379811,9178.553681,459.657299
126.898982,5107.421000,8438.347739,153.219100
126.899303,5403.503377,7624.121203,229.828649
126.899624,4737.318029,7698.141797,-842.705048
126.899945,4811.338623,7476.080014,-1762.019645
126.900266,5847.626942,8068.244768,-1991.848295
126.900587,5551.544565,8438.347739,-536.266849
126.900908,4885.359217,7920.203579,612.876398
126.901229,4589.276840,7476.080014,1532.190996
126.901550,4811.338623,7624.121203,383.047749
126.901871,4737.318029,7105.977043,76.609550
126.902191,5255.462188,7328.038826,-1225.752797
126.902512,5699.585753,6957.935855,-1302.362347
126.902833,6513.812290,8290.306550,-612.876398
126.903154,6217.729913,9622.677246,306.438199
126.903475,4885.359217,9548.656652,766.095498
126.903796,4811.338623,9104.533087,0.000000
126.904117,4071.132681,8438.347739,-842.705048
126.904438,4071.132681,7179.997637,-919.314598
126.904759,5921.647536,6661.853478,0.000000
126.905079,5921.647536,7179.997637,536.266849
126.905400,5181.441594,8364.327145,1225.752797
126.905721,4737.318029,9622.677246,1378.971896
126.906042,2886.803174,8956.491898,-383.047749
126.906363,3627.009116,8586.388927,76.609550
126.906684,5403.503377,7846.182985,766.095498
126.907005,5921.647536,7994.224174,-689.485948
126.907326,5625.565159,7846.182985,-612.876398
126.907647,5033.400406,8142.265362,-612.876398
126.907968,3997.112087,9548.656652,0.000000
126.908288,4071.132681,10066.800811,1302.362347
126.908609,3997.112087,9104.533087,766.095498
126.908930,4367.215058,7624.121203,-842.705048
126.909251,4885.359217,6143.709319,-1378.971896
126.909572,5403.503377,6735.874072,-536.266849
126.909893,4959.379811,7254.018232,-383.047749
126.910214,4959.379811,7994.224174,0.000000
126.910535,5255.462188,8882.471304,0.000000
126.910856,4441.235652,8068.244768,0.000000
126.911176,5033.400406,7994.224174,0.000000
126.911497,4959.379811,8216.285956,-612.876398
126.911818,4589.276840,7254.018232,-919.314598
126.912139,5847.626942,7105.977043,-842.705048
126.912460,5847.626942,7624.121203,-306.438199
126.912781,4737.318029,8290.306550,-229.828649
126.913102,4293.194464,9474.636058,0.000000
126.913423,3701.029710,9400.615463,-612.876398
126.913744,4367.215058,8586.388927,-919.314598
126.914065,5551.544565,7550.100608,-76.609550
126.914385,5033.400406,6661.853478,383.047749
126.914706,4293.194464,7476.080014,306.438199
126.915027,3849.070898,8882.471304,1225.752797
126.915348,3701.029710,9178.553681,842.705048
126.915669,4737.318029,8068.244768,459.657299
126.915990,5551.544565,8142.265362,0.000000
126.916311,6143.709319,9030.512492,-919.314598
126.916632,5033.400406,8512.368333,-995.924147
126.916953,5477.523971,7402.059420,-153.219100
126.917273,6735.874072,7328.038826,766.095498
126.917594,5329.482782,7994.224174,1149.143247
126.917915,5181.441594,7994.224174,-76.609550
126.918236,5403.503377,9178.553681,-995.924147
126.918557,5477.523971,8882.471304,-1149.143247
126.918878,6883.915261,7402.059420,-766.095498
126.919199,7105.977043,6365.771101,-229.828649
126.919520,6069.688724,7105.977043,-536.266849
126.919841,4589.276840,8956.491898,766.095498
126.920161,4293.194464,8956.491898,995.924147
126.920482,4811.338623,7994.224174,-229.828649
126.920803,5625.565159,7476.080014,-1072.533697
126.921124,5921.647536,7031.956449,-919.314598
126.921445,5847.626942,7402.059420,-536.266849
126.921766,5255.462188,7772.162391,0.000000
126.922087,5403.503377,8290.306550,153.219100
126.922408,4811.338623,7772.162391,536.266849
126.922729,4589.276840,7772.162391,0.000000
126.923050,4441.235652,8512.368333,-536.266849
126.923370,4515.256246,8808.450710,-919.314598
126.923691,4737.318029,7994.224174,-1608.800546
126.924012,5921.647536,7105.977043,-459.657299
126.924333,5477.523971,7402.059420,995.924147
126.924654,4737.318029,8882.471304,1455.581446
126.924975,3923.091493,8660.409521,612.876398
126.925296,4071.132681,8364.327145,-612.876398
126.925617,4811.338623,7105.977043,-766.095498
126.925938,6143.709319,7031.956449,-383.047749
126.926258,5921.647536,7105.977043,-306.438199
126.926579,5699.585753,9030.512492,153.219100
126.926900,4885.359217,9104.533087,0.000000
126.927221,3775.050304,8586.388927,-766.095498
126.927542,3404.947333,7772.162391,-459.657299
126.927863,3997.112087,8512.368333,0.000000
126.928184,4663.297435,8512.368333,0.000000
126.928505,4811.338623,7994.224174,-919.314598
126.928826,5181.441594,8142.265362,-766.095498
126.929147,3923.091493,9178.553681,0.000000
126.929467,3182.885551,9622.677246,689.485948
126.929788,3034.844362,9178.553681,153.219100
126.930109,3627.009116,8438.347739,-383.047749
126.930430,4589.276840,7402.059420,153.219100
126.930751,5699.585753,7254.018232,-229.828649
126.931072,4737.318029,7328.038826,-919.314598
126.931393,4663.297435,7920.203579,-229.828649
126.931714,4663.297435,8882.471304,1302.362347
126.932035,4663.297435,8734.430116,919.314598
126.932355,5551.544565,8512.368333,229.828649
126.932676,5477.523971,7402.059420,-995.924147
126.932997,5699.585753,6735.874072,-1991.848295
126.933318,6513.812290,6957.935855,-612.876398
126.933639,6217.729913,7328.038826,153.219100
126.933960,5329.482782,7624.121203,383.047749
126.934281,6291.750507,7550.100608,-229.828649
126.934602,5033.400406,8438.347739,-612.876398
126.934923,4811.338623,8216.285956,-842.705048
126.935244,6439.791695,7550.100608,-919.314598
126.935564,7328.038826,6957.935855,-1072.533697
126.935885,6661.853478,6143.709319,-229.828649
126.936206,6365.771101,7402.059420,919.314598
126.936527,4737.318029,8290.306550,0.000000
126.936848,3701.029710,8586.388927,-1302.362347
126.937169,4811.338623,8734.430116,-995.924147
126.937490,6439.791695,7846.182985,-842.705048
126.937811,7105.977043,6957.935855,0.000000
126.938132,5921.647536,6143.709319,229.828649
126.938452,4219.173869,7105.977043,-229.828649
126.938773,3478.967927,8512.368333,383.047749
126.939094,3775.050304,9400.615463,689.485948
126.939415,4959.379811,8808.450710,0.000000
126.939736,5773.606348,7846.182985,-383.047749
126.940057,5847.626942,8068.244768,-1072.533697
126.940378,4959.379811,8216.285956,-306.438199
126.940699,5033.400406,8586.388927,306.438199
126.941020,5033.400406,9104.533087,536.266849
126.941341,4441.235652,8290.306550,76.609550
126.941661,3552.988522,8734.430116,-383.047749
126.941982,4515.256246,9178.553681,76.609550
126.942303,4515.256246,7994.224174,229.828649
126.942624,5329.482782,6809.894666,0.000000
126.942945,5847.626942,6809.894666,0.000000
126.943266,4515.256246,7698.141797,229.828649
126.943587,3182.885551,9030.512492,229.828649
126.943908,3627.009116,9030.512492,0.000000
126.944229,5403.503377,8734.430116,-766.095498
126.944549,5329.482782,7846.182985,-1149.143247
126.944870,6069.688724,7031.956449,-1149.143247
126.945191,6217.729913,7328.038826,-153.219100
126.945512,5033.400406,7994.224174,383.047749
126.945833,4515.256246,8216.285956,459.657299
126.946154,4737.318029,8142.265362,-306.438199
126.946475,5107.421000,7698.141797,-842.705048
126.946796,5699.585753,8290.306550,-612.876398
126.947117,6143.709319,7624.121203,-689.485948
126.947438,5625.565159,6661.853478,-536.266849
126.947758,5107.421000,6735.874072,306.438199
126.948079,4589.276840,7031.956449,919.314598
126.948400,3997.112087,7550.100608,459.657299
126.948721,4959.379811,8512.368333,0.000000
126.949042,5329.482782,9326.594869,-612.876398
126.949363,5773.606348,8660.409521,-612.876398
126.949684,5995.668130,7179.997637,-612.876398
126.950005,5033.400406,7698.141797,-306.438199
126.950326,4811.338623,8438.347739,612.876398
126.950646,4515.256246,8734.430116,1149.143247
126.950967,4367.215058,8734.430116,0.000000
126.951288,4663.297435,8438.347739,-689.485948
126.951609,5255.462188,7328.038826,-689.485948
126.951930,5995.668130,7105.977043,-306.438199
126.952251,5921.647536,7476.080014,229.828649
126.952572,5107.421000,8438.347739,766.095498
126.952893,4367.215058,8512.368333,153.219100
126.953214,4145.153275,8586.388927,-536.266849
126.953534,5181.441594,8512.368333,76.609550
126.953855,5773.606348,7994.224174,-153.219100
126.954176,5921.647536,6957.935855,-842.705048
126.954497,5773.606348,6957.935855,-1302.362347
126.954818,5329.482782,7550.100608,0.000000
126.955139,4959.379811,8512.368333,689.485948
126.955460,4589.276840,9104.533087,689.485948
126.955781,4885.359217,8586.388927,-536.266849
126.956102,5477.523971,7624.121203,-995.924147
126.956423,5773.606348,6809.894666,-2068.457845
126.956743,5773.606348,6587.832884,-766.095498
126.957064,5995.668130,7328.038826,0.000000
126.957385,5477.523971,8882.471304,689.485948
126.957706,3997.112087,9474.636058,229.828649
126.958027,3627.009116,8438.347739,-766.095498
126.958348,3997.112087,7920.203579,-383.047749
126.958669,4367.215058,7550.100608,0.000000
126.958990,4959.379811,7254.018232,-229.828649
126.959311,6143.709319,7105.977043,-919.314598
126.959631,6291.750507,8734.430116,-1072.533697
126.959952,5477.523971,9030.512492,-612.876398
126.960273,4515.256246,8290.306550,306.438199
126.960594,5477.523971,7772.162391,383.047749
126.960915,6143.709319,8512.368333,153.219100
126.961236,5847.626942,7624.121203,-766.095498
126.961557,5625.565159,6883.915261,-1762.019645
126.961878,6143.709319,7846.182985,-1149.143247
126.962199,4811.338623,9030.512492,-229.828649
126.962520,3997.112087,9326.594869,153.219100
126.962840,5107.421000,8808.450710,-383.047749
126.963161,4885.359217,8290.306550,-995.924147
126.963482,4589.276840,7846.182985,-612.876398
126.963803,4737.318029,7624.121203,-153.219100
126.964124,4293.194464,8586.388927,-306.438199
126.964445,4737.318029,9474.636058,612.876398
126.964766,4145.153275,9918.759623,919.314598
126.965087,4293.194464,8882.471304,-306.438199
126.965408,3775.050304,7846.182985,-306.438199
126.965728,3849.070898,7920.203579,-306.438199
126.966049,4219.173869,7179.997637,-1072.533697
126.966370,4441.235652,7698.141797,-1225.752797
126.966691,4959.379811,8808.450710,153.219100
126.967012,4737.318029,9622.677246,1225.752797
126.967333,3997.112087,9178.553681,919.314598
126.967654,4737.318029,8956.491898,0.000000
126.967975,5181.441594,8142.265362,-1302.362347
126.968296,5773.606348,7105.977043,-1532.190996
126.968617,6735.874072,6365.771101,-842.705048
126.968937,6143.709319,6809.894666,0.000000
126.969258,5329.482782,9178.553681,1302.362347
126.969579,4515.256246,9104.533087,536.266849
126.969900,4071.132681,7920.203579,-459.657299
126.970221,5329.482782,7105.977043,-229.828649
126.970542,6069.688724,6883.915261,229.828649
126.970863,5773.606348,6587.832884,306.438199
126.971184,5255.462188,6809.894666,-459.657299
126.971505,4811.338623,7994.224174,0.000000
126.971825,4589.276840,8364.327145,0.000000
126.972146,4515.256246,8512.368333,76.609550
126.972467,5181.441594,8586.388927,153.219100
126.972788,4959.379811,8068.244768,-229.828649
126.973109,5551.544565,7254.018232,-612.876398
126.973430,6069.688724,7328.038826,76.609550
126.973751,5551.544565,7550.100608,459.657299
126.974072,4589.276840,8808.450710,612.876398
126.974393,4145.153275,9030.512492,76.609550
126.974714,4441.235652,8956.491898,0.000000
126.975034,4959.379811,8216.285956,76.609550
126.975355,6069.688724,6439.791695,-153.219100
126.975676,5995.668130,6661.853478,0.000000
126.975997,5181.441594,7772.162391,536.266849
126.976318,4811.338623,8438.347739,1455.581446
126.976639,4737.318029,9178.553681,766.095498
126.976960,4663.297435,8512.368333,0.000000
126.977281,5181.441594,7846.182985,-153.219100
126.977602,5181.441594,7179.997637,-995.924147
126.977922,5477.523971,7550.100608,-1532.190996
126.978243,5403.503377,8290.306550,-995.924147
126.978564,5181.441594,9252.574275,-536.266849
126.978885,4737.318029,9844.739029,229.828649
126.979206,4071.132681,8956.491898,153.219100
126.979527,3997.112087,8438.347739,229.828649
126.979848,4589.276840,7772.162391,-383.047749
126.980169,5107.421000,7105.977043,-995.924147
126.980490,5033.400406,6365.771101,-536.266849
126.980810,5107.421000,7698.141797,76.609550
126.981131,4441.235652,8734.430116,995.924147
126.981452,3849.070898,8586.388927,536.266849
126.981773,4293.194464,7994.224174,-383.047749
126.982094,5033.400406,7550.100608,-536.266849
126.982415,5255.462188,7476.080014,-995.924147
126.982736,5551.544565,7920.203579,-612.876398
126.983057,5329.482782,8956.491898,-459.657299
126.983378,4885.359217,9770.718434,0.000000
126.983699,4293.194464,9474.636058,-153.219100
126.984019,3775.050304,8734.430116,-153.219100
126.984340,4959.379811,7994.224174,-689.485948
126.984661,4885.359217,7772.162391,-459.657299
126.984982,5625.565159,7105.977043,-919.314598
126.985303,5551.544565,7772.162391,-76.609550
126.985624,4737.318029,8586.388927,612.876398
126.985945,3701.029710,8956.491898,1302.362347
126.986266,3478.967927,8068.244768,612.876398
126.986586,4441.235652,7476.080014,0.000000
126.986907,5033.400406,7105.977043,-536.266849
126.987228,6069.688724,6735.874072,-1225.752797
126.987549,6809.894666,7402.059420,-1685.410096
126.987869,5773.606348,8512.368333,-536.266849
126.988190,5477.523971,9770.718434,612.876398
126.988511,5847.626942,9696.697840,153.219100
126.988832,5329.482782,8142.265362,0.000000
126.989152,6439.791695,6957.935855,0.000000
126.989473,6661.853478,6587.832884,-842.705048
126.989794,5033.400406,6661.853478,-1608.800546
126.990115,5847.626942,7179.997637,-612.876398
126.990435,6069.688724,8290.306550,1072.533697
126.990756,4811.338623,8734.430116,1378.971896
126.991077,4737.318029,8660.409521,995.924147
126.991398,4293.194464,8290.306550,-689.485948
126.991718,4219.173869,7772.162391,-1532.190996
126.992039,5181.441594,7105.977043,-612.876398
126.992360,5477.523971,7105.977043,-383.047749
126.992681,5033.400406,8216.285956,383.047749
126.993001,3404.947333,9326.594869,612.876398
126.993322,2738.761985,10362.883188,306.438199
126.993643,3330.926739,9696.697840,0.000000
126.993964,3849.070898,8512.368333,0.000000
126.994284,4441.235652,7179.997637,-153.219100
126.994605,4145.153275,6513.812290,229.828649
126.994926,4441.235652,8216.285956,383.047749
126.995247,3478.967927,9622.677246,1455.581446
126.995567,2886.803174,9770.718434,383.047749
126.995888,4071.132681,8956.491898,-1072.533697
126.996209,4885.359217,7994.224174,-1378.971896
126.996530,5773.606348,7920.203579,-536.266849
126.996850,6365.771101,7994.224174,76.609550
126.997171,4885.359217,7994.224174,229.828649
126.997492,4515.256246,8216.285956,459.657299
126.997813,4367.215058,8364.327145,612.876398
126.998133,3923.091493,8364.327145,612.876398
126.998454,4589.276840,7920.203579,-76.609550
126.998775,5699.585753,7476.080014,-1149.143247
126.999096,5551.544565,6513.812290,-1915.238745
126.999416,6513.812290,6291.750507,-383.047749
126.999737,5921.647536,7698.141797,2298.286494
127.000058,4441.235652,8660.409521,1455.581446
127.000378,3701.029710,8216.285956,0.000000
127.000699,4737.318029,7920.203579,-842.705048
127.001020,6365.771101,7105.977043,-1072.533697
127.001341,6587.832884,7031.956449,-842.705048
127.001661,7105.977043,7328.038826,-766.095498
127.001982,6809.894666,8364.327145,-689.485948
127.002303,4737.318029,8808.450710,153.219100
127.002624,4219.173869,8142.265362,459.657299
127.002944,4885.359217,7994.224174,0.000000
127.003265,5403.503377,7105.977043,-689.485948
127.003586,6587.832884,7328.038826,-766.095498
127.003907,6957.935855,7328.038826,-689.485948
127.004227,6143.709319,7105.977043,0.000000
127.004548,5255.462188,8290.306550,612.876398
127.004869,4293.194464,8734.430116,536.266849
127.005190,3775.050304,9252.574275,76.609550
127.005510,4441.235652,8290.306550,-229.828649
127.005831,5403.503377,7402.059420,-766.095498
127.006152,6217.729913,7476.080014,-1072.533697
127.006473,5403.503377,7994.224174,-383.047749
127.006793,4515.256246,9400.615463,306.438199
127.007114,4071.132681,10066.800811,229.828649
127.007435,3330.926739,9400.615463,76.609550
127.007756,4441.235652,8586.388927,-995.924147
127.008076,5551.544565,7772.162391,-612.876398
127.008397,5551.544565,8068.244768,-536.266849
127.008718,5033.400406,8216.285956,-536.266849
127.009039,4441.235652,8216.285956,-536.266849
127.009359,4515.256246,8660.409521,536.266849
127.009680,3627.009116,8956.491898,1072.533697
127.010001,3701.029710,8882.471304,689.485948
127.010322,4589.276840,8438.347739,-689.485948
127.010642,5329.482782,7550.100608,-1532.190996
127.010963,5773.606348,7328.038826,-1149.143247
127.011284,6217.729913,7550.100608,0.000000
127.011605,4589.276840,8586.388927,459.657299
127.011925,3923.091493,9474.636058,383.047749
127.012246,4367.215058,9474.636058,0.000000
127.012567,5107.421000,8364.327145,-995.924147
127.012888,5329.482782,6661.853478,-842.705048
127.013208,5773.606348,6217.729913,-459.657299
127.013529,5329.482782,6957.935855,0.000000
127.013850,4441.235652,7920.203579,919.314598
127.014171,4145.153275,9104.533087,1225.752797
127.014491,5255.462188,8808.450710,689.485948
127.014812,5033.400406,7550.100608,-229.828649
127.015133,5329.482782,5773.606348,-612.876398
127.015454,6439.791695,5477.523971,-459.657299
127.015774,6587.832884,7105.977043,229.828649
127.016095,5551.544565,8216.285956,0.000000
127.016416,5773.606348,9326.594869,0.000000
127.016737,6143.709319,9030.512492,-383.047749
127.017057,5181.441594,8512.368333,-459.657299
127.017378,5403.503377,7031.956449,0.000000
127.017699,5995.668130,5847.626942,-919.314598
127.018019,6365.771101,5773.606348,-689.485948
127.018340,5625.565159,7254.018232,689.485948
127.018661,4589.276840,9400.615463,919.314598
127.018982,3849.070898,9474.636058,0.000000
127.019302,3849.070898,10066.800811,459.657299
127.019623,4145.153275,8586.388927,306.438199
127.019944,5551.544565,6439.791695,0.000000
127.020265,5181.441594,5625.565159,76.609550
127.020585,4589.276840,7402.059420,-383.047749
127.020906,3997.112087,9844.739029,0.000000
127.021227,3923.091493,11251.130318,612.876398
127.021548,3923.091493,10288.862594,0.000000
127.021868,4441.235652,8956.491898,153.219100
127.022189,4885.359217,7402.059420,-459.657299
127.022510,5033.400406,7105.977043,-766.095498
127.022831,4663.297435,6883.915261,-689.485948
127.023151,5403.503377,7846.182985,76.609550
127.023472,5107.421000,9104.533087,995.924147
127.023793,4589.276840,9400.615463,76.609550
127.024114,4885.359217,9252.574275,383.047749
127.024434,4811.338623,7772.162391,-306.438199
127.024755,5403.503377,6069.688724,-1302.362347
127.025076,6143.709319,5477.523971,-1378.971896
127.025397,5625.565159,6957.935855,-842.705048
127.025717,5181.441594,9178.553681,229.828649
127.026038,4441.235652,10140.821405,229.828649
127.026359,4515.256246,9918.759623,-383.047749
127.026680,5329.482782,9030.512492,-612.876398
127.027000,5329.482782,6809.894666,-689.485948
127.027321,5699.585753,6143.709319,-459.657299
127.027642,5551.544565,6587.832884,-76.609550
127.027963,4811.338623,7920.203579,536.266849
127.028283,4589.276840,8734.430116,766.095498
127.028604,4145.153275,8364.327145,459.657299
127.028925,4737.318029,8808.450710,-459.657299
127.029246,5477.523971,7920.203579,-1072.533697
127.029566,6291.750507,7105.977043,-1302.362347
127.029887,6513.812290,7254.018232,-1072.533697
127.030208,5403.503377,8068.244768,0.000000
127.030529,3997.112087,9178.553681,766.095498
127.030849,3849.070898,9178.553681,995.924147
127.031170,4367.215058,8660.409521,76.609550
127.031491,5477.523971,8216.285956,-689.485948
127.031812,5921.647536,7179.997637,-1838.629195
127.032132,5921.647536,7031.956449,-1762.019645
127.032453,5921.647536,7994.224174,76.609550
127.032774,4959.379811,8882.471304,1838.629195
127.033095,4737.318029,9030.512492,1685.410096
127.033415,4293.194464,8808.450710,1225.752797
127.033736,4663.297435,7920.203579,-995.924147
127.034057,5699.585753,7179.997637,-995.924147
127.034378,6661.853478,7179.997637,-919.314598
127.034698,6291.750507,7254.018232,-612.876398
127.035019,5625.565159,8586.388927,153.219100
127.035340,4737.318029,8660.409521,689.485948
127.035660,3997.112087,8660.409521,612.876398
127.035981,4663.297435,7994.224174,459.657299
127.036302,5551.544565,6735.874072,-612.876398
127.036623,5773.606348,6513.812290,-1149.143247
127.036943,6365.771101,6587.832884,-1072.533697
127.037264,5995.668130,8512.368333,153.219100
127.037585,4663.297435,9252.574275,1378.971896
127.037906,3701.029710,8512.368333,842.705048
127.038226,4219.173869,8216.285956,0.000000
127.038547,4441.235652,6957.935855,-842.705048
127.038868,5255.462188,7105.977043,-1072.533697
127.039189,5921.647536,7920.203579,-1302.362347
127.039509,6365.771101,9400.615463,-995.924147
127.039830,5107.421000,10066.800811,383.047749
127.040151,3997.112087,8882.471304,1149.143247
127.040472,3404.947333,7772.162391,459.657299
127.040792,3478.967927,7105.977043,153.219100
127.041113,4367.215058,6735.874072,-919.314598
127.041434,5255.462188,6809.894666,-1149.143247
127.041755,6587.832884,8364.327145,-842.705048
127.042075,4885.359217,9178.553681,0.000000
127.042396,2960.823768,9178.553681,842.705048
127.042717,3775.050304,9474.636058,1378.971896
127.043038,4293.194464,8956.491898,689.485948
127.043358,4293.194464,6883.915261,-536.266849
127.043679,7105.977043,6809.894666,-2068.457845
127.044000,6809.894666,7624.121203,-2374.896044
127.044321,5255.462188,9104.533087,-536.266849
127.044641,4663.297435,9992.780217,995.924147
127.044962,4589.276840,9178.553681,919.314598
127.045283,4589.276840,8216.285956,229.828649
127.045604,5255.462188,7698.141797,229.828649
127.045924,4737.318029,6957.935855,-1532.190996
127.046245,4737.318029,7476.080014,-1685.410096
127.046566,5033.400406,8734.430116,-306.438199
127.046887,4811.338623,9474.636058,1072.533697
127.047207,4441.235652,9474.636058,1455.581446
127.047528,3034.844362,8216.285956,612.876398
127.047849,2886.803174,7920.203579,-842.705048
127.048170,4219.173869,7328.038826,-1455.581446
127.048490,5107.421000,7179.997637,-1149.143247
127.048811,6809.894666,7476.080014,-153.219100
127.049132,6809.894666,8438.347739,919.314598
127.049453,4737.318029,9844.739029,995.924147
127.049773,3775.050304,9400.615463,-306.438199
127.050094,4145.153275,7920.203579,-536.266849
127.050415,5921.647536,6513.812290,-1762.019645
127.050736,6883.915261,5551.544565,-995.924147
127.051056,7105.977043,6439.791695,-229.828649
127.051377,6069.688724,8364.327145,842.705048
127.051698,4293.194464,10066.800811,1455.581446
127.052019,2960.823768,9474.636058,76.609550
127.052339,4293.194464,7476.080014,-919.314598
127.052660,5847.626942,6587.832884,-536.266849
127.052981,6513.812290,5773.606348,-612.876398
127.053301,5995.668130,6661.853478,-612.876398
127.053622,5403.503377,7994.224174,-766.095498
127.053943,4885.359217,9770.718434,0.000000
127.054264,4441.235652,9844.739029,1149.143247
127.054584,4367.215058,9252.574275,0.000000
127.054905,4885.359217,8290.306550,-536.266849
127.055226,5181.441594,7328.038826,-995.924147
127.055547,5255.462188,7105.977043,-1378.971896
127.055867,5033.400406,7920.203579,-536.266849
127.056188,5033.400406,9178.553681,1149.143247
127.056509,3775.050304,9844.739029,2221.676944
127.056830,3775.050304,8808.450710,2068.457845
127.057150,4515.256246,7179.997637,306.438199
127.057471,4959.379811,5773.606348,-383.047749
127.057792,5773.606348,5403.503377,-842.705048
127.058113,7105.977043,7254.018232,0.000000
127.058433,6143.709319,9104.533087,459.657299
127.058754,5847.626942,9622.677246,459.657299
127.059075,5033.400406,9178.553681,-842.705048
127.059396,4589.276840,8142.265362,-689.485948
127.059716,4885.359217,7105.977043,-919.314598
127.060037,5921.647536,5847.626942,-689.485948
127.060358,6587.832884,5551.544565,-1302.362347
127.060679,6587.832884,7698.141797,-1149.143247
127.060999,4663.297435,9400.615463,0.000000
127.061320,3404.947333,9992.780217,229.828649
127.061641,3627.009116,9474.636058,306.438199
127.061962,4737.318029,7772.162391,459.657299
127.062282,5551.544565,6883.915261,-612.876398
127.062603,5477.523971,6217.729913,-1072.533697
127.062924,4737.318029,7254.018232,-1608.800546
127.063245,4145.153275,9326.594869,-383.047749
127.063565,3256.906145,10510.924376,536.266849
127.063886,4441.235652,9770.718434,612.876398
127.064207,4441.235652,8364.327145,306.438199
127.064528,4441.235652,7105.977043,-383.047749
127.064848,4737.318029,6735.874072,-766.095498
127.065169,4515.256246,6661.853478,-1302.362347
127.065490,4811.338623,7994.224174,229.828649
127.065811,5181.441594,9696.697840,1149.143247
127.066131,4515.256246,9992.780217,1302.362347
127.066452,4441.235652,9844.739029,536.266849
127.066773,4737.318029,9474.636058,-995.924147
127.067094,4959.379811,7698.141797,-1838.629195
127.067414,5477.523971,7031.956449,-1838.629195
127.067735,6291.750507,7772.162391,-306.438199
127.068056,5625.565159,9474.636058,1455.581446
127.068377,4293.194464,10807.006753,1225.752797
127.068697,3478.967927,9992.780217,0.000000
127.069018,3478.967927,7846.182985,-1149.143247
127.069339,4441.235652,5773.606348,-1149.143247
127.069660,5625.565159,5403.503377,-459.657299
127.069980,5551.544565,6883.915261,383.047749
127.070301,4663.297435,9770.718434,842.705048
127.070622,3256.906145,11029.068536,76.609550
127.070942,3478.967927,10066.800811,-76.609550
127.071263,3997.112087,8734.430116,0.000000
127.071584,5477.523971,7254.018232,-306.438199
127.071905,5625.565159,6809.894666,-766.095498
127.072225,5625.565159,7402.059420,-1072.533697
127.072546,5181.441594,8290.306550,-536.266849
127.072867,4737.318029,8734.430116,306.438199
127.073188,4663.297435,9030.512492,536.266849
127.073508,5181.441594,7772.162391,689.485948
127.073829,5255.462188,6365.771101,0.000000
127.074150,5921.647536,5477.523971,-536.266849
127.074471,7254.018232,5477.523971,-612.876398
127.074791,7105.977043,6735.874072,-306.438199
127.075112,5551.544565,8290.306550,919.314598
127.075433,4885.359217,9326.594869,459.657299
127.075754,5329.482782,8956.491898,0.000000
127.076074,5107.421000,7698.141797,153.219100
127.076395,6291.750507,6587.832884,-842.705048
127.076716,6217.729913,6217.729913,-995.924147
127.077037,5181.441594,7105.977043,-1225.752797
127.077357,5403.503377,8586.388927,-306.438199
127.077678,4663.297435,9474.636058,383.047749
127.077999,3997.112087,9178.553681,76.609550
127.078320,4589.276840,9178.553681,76.609550
127.078640,4441.235652,7772.162391,-76.609550
127.078961,4441.235652,6735.874072,-536.266849
127.079282,5033.400406,7031.956449,-383.047749
127.079603,4515.256246,8216.285956,612.876398
127.079923,4145.153275,10436.903782,1302.362347
127.080244,3478.967927,10140.821405,842.705048
127.080565,3256.906145,9326.594869,-766.095498
127.080886,4219.173869,8290.306550,-383.047749
127.081206,5181.441594,7476.080014,0.000000
127.081527,4959.379811,7254.018232,0.000000
127.081848,4959.379811,7624.121203,0.000000
127.082169,4071.132681,9104.533087,153.219100
127.082489,3997.112087,9770.718434,459.657299
127.082810,4219.173869,9918.759623,-306.438199
127.083131,5477.523971,9252.574275,-766.095498
127.083452,5847.626942,7698.141797,-766.095498
127.083772,6069.688724,6661.853478,-383.047749
127.084093,6217.729913,6365.771101,-229.828649
127.084414,4811.338623,7624.121203,76.609550
127.084735,3701.029710,8438.347739,229.828649
127.085055,4589.276840,8956.491898,-383.047749
127.085376,5329.482782,9770.718434,-995.924147
127.085697,5477.523971,8586.388927,-1149.143247
127.086018,6365.771101,7105.977043,-842.705048
127.086338,5773.606348,7105.977043,-766.095498
127.086659,4589.276840,7698.141797,0.000000
127.086980,3478.967927,7920.203579,459.657299
127.087301,4367.215058,8290.306550,-153.219100
127.087621,4737.318029,9178.553681,0.000000
127.087942,5847.626942,9548.656652,0.000000
127.088263,5921.647536,7624.121203,-689.485948
127.088583,5921.647536,5921.647536,-536.266849
127.088904,5551.544565,5477.523971,383.047749
127.089225,4737.318029,6957.935855,842.705048
127.089546,4219.173869,8364.327145,459.657299
127.089867,5033.400406,8438.347739,229.828649
127.090188,6439.791695,8216.285956,-995.924147
127.090508,6735.874072,7179.997637,-919.314598
127.090829,6883.915261,7179.997637,-536.266849
127.091150,6513.812290,7402.059420,0.000000
127.091471,6217.729913,7920.203579,536.266849
127.091792,5255.462188,8364.327145,536.266849
127.092113,5329.482782,8364.327145,-229.828649
127.092433,5255.462188,8882.471304,-766.095498
127.092754,4959.379811,8808.450710,-383.047749
127.093075,5255.462188,7698.141797,-612.876398
127.093396,5847.626942,6513.812290,0.000000
127.093717,5033.400406,6291.750507,153.219100
127.094037,3997.112087,7105.977043,995.924147
127.094358,3330.926739,8364.327145,766.095498
127.094679,3627.009116,9400.615463,76.609550
127.095000,5033.400406,9252.574275,-459.657299
127.095321,5699.585753,8290.306550,-1378.971896
127.095642,5995.668130,7920.203579,-1225.752797
127.095962,5329.482782,8956.491898,0.000000
127.096283,3849.070898,9400.615463,383.047749
127.096604,3701.029710,9178.553681,153.219100
127.096925,3849.070898,8882.471304,153.219100
127.097246,3849.070898,8660.409521,153.219100
127.097567,3701.029710,8142.265362,229.828649
127.097887,4367.215058,7550.100608,-459.657299
127.098208,4293.194464,7402.059420,-153.219100
127.098529,3849.070898,7402.059420,306.438199
127.098850,3256.906145,7476.080014,689.485948
127.099171,3923.091493,8808.450710,689.485948
127.099492,4663.297435,9252.574275,612.876398
127.099812,4885.359217,9030.512492,-306.438199
127.100133,5847.626942,8290.306550,-2451.505594
127.100454,6069.688724,8068.244768,-1991.848295
127.100775,5847.626942,8290.306550,-536.266849
127.101096,5033.400406,9326.594869,612.876398
127.101417,4811.338623,8808.450710,689.485948
127.101737,4737.318029,8438.347739,-919.314598
127.102058,3997.112087,7624.121203,-1532.190996
127.102379,4589.276840,7105.977043,-1072.533697
127.102700,5181.441594,6957.935855,383.047749
127.103021,5551.544565,6587.832884,1149.143247
127.103341,4959.379811,7402.059420,1149.143247
127.103662,4219.173869,8216.285956,536.266849
127.103983,3849.070898,9178.553681,-306.438199
127.104304,4515.256246,8882.471304,0.000000
127.104625,5773.606348,8068.244768,-306.438199
127.104946,6513.812290,7476.080014,-306.438199
127.105266,6883.915261,7105.977043,-766.095498
127.105587,6069.688724,7772.162391,-306.438199
127.105908,4885.359217,8142.265362,-306.438199
127.106229,4219.173869,8216.285956,0.000000
127.106550,4811.338623,7994.224174,-383.047749
127.106871,5255.462188,7624.121203,-766.095498
127.107191,6143.709319,6809.894666,-536.266849
127.107512,6957.935855,6809.894666,-612.876398
127.107833,5921.647536,7328.038826,0.000000
127.108154,4959.379811,8216.285956,0.000000
127.108475,4589.276840,8364.327145,536.266849
127.108796,5329.482782,7920.203579,0.000000
127.109116,6143.709319,7846.182985,-612.876398
127.109437,6513.812290,8142.265362,0.000000
127.109758,5551.544565,7402.059420,-1225.752797
127.110079,5255.462188,7105.977043,-1455.581446
127.110400,5551.544565,7550.100608,-766.095498
127.110721,5625.565159,8512.368333,459.657299
127.111041,4737.318029,8808.450710,306.438199
127.111362,4589.276840,8068.244768,-536.266849
127.111683,4959.379811,7772.162391,-1225.752797
127.112004,5181.441594,7105.977043,-536.266849
127.112325,5477.523971,7031.956449,76.609550
127.112645,5403.503377,7772.162391,459.657299
127.112966,4441.235652,8882.471304,0.000000
127.113287,3701.029710,9400.615463,0.000000
127.113608,4367.215058,8882.471304,-842.705048
127.113929,4811.338623,8734.430116,-1072.533697
127.114250,5403.503377,8290.306550,-919.314598
127.114570,5255.462188,7550.100608,-689.485948
127.114891,4959.379811,8216.285956,-229.828649
127.115212,4293.194464,8734.430116,306.438199
127.115533,3775.050304,9252.574275,459.657299
127.115854,4293.194464,8882.471304,-306.438199
127.116175,4515.256246,8438.347739,-766.095498
127.116495,4515.256246,7698.141797,-766.095498
127.116816,5181.441594,7254.018232,0.000000
127.117137,4737.318029,7550.100608,-229.828649
127.117458,4441.235652,8882.471304,229.828649
127.117779,3997.112087,9548.656652,383.047749
127.118100,3849.070898,8882.471304,76.609550
127.118420,4589.276840,8364.327145,-229.828649
127.118741,4959.379811,7994.224174,-383.047749
127.119062,4811.338623,7624.121203,-1149.143247
127.119383,5329.482782,7920.203579,-612.876398
127.119704,5477.523971,8290.306550,229.828649
127.120025,4811.338623,9104.533087,153.219100
127.120345,4219.173869,9548.656652,153.219100
127.120666,4071.132681,9400.615463,-153.219100
127.120987,4811.338623,7698.141797,-612.876398
127.121308,5477.523971,6143.709319,-383.047749
127.121629,6513.812290,5551.544565,-842.705048
127.121949,6291.750507,6735.874072,0.000000
127.122270,4737.318029,8290.306550,1149.143247
127.122591,5033.400406,8956.491898,536.266849
127.122912,5181.441594,8290.306550,229.828649
127.123233,5847.626942,7550.100608,-612.876398
127.123554,6809.894666,6661.853478,-689.485948
127.123874,6439.791695,5921.647536,-1685.410096
127.124195,5699.585753,7328.038826,-1225.752797
127.124516,5551.544565,8216.285956,-536.266849
127.124837,4959.379811,8586.388927,76.609550
127.125158,5033.400406,8956.491898,612.876398
127.125479,4737.318029,8734.430116,689.485948
127.125799,3997.112087,7624.121203,-1378.971896
127.126120,4589.276840,6883.915261,-1225.752797
127.126441,5403.503377,6735.874072,0.000000
127.126762,4737.318029,7328.038826,1225.752797
127.127083,4663.297435,8734.430116,1378.971896
127.127404,3775.050304,9474.636058,766.095498
127.127724,3404.947333,9400.615463,153.219100
127.128045,4145.153275,8364.327145,0.000000
127.128366,5107.421000,7105.977043,-306.438199
127.128687,5847.626942,7550.100608,-766.095498
127.129008,6069.688724,8438.347739,153.219100
127.129329,4959.379811,9474.636058,0.000000
127.129649,3701.029710,9474.636058,-153.219100
127.129970,3552.988522,9326.594869,-306.438199
127.130291,4367.215058,9474.636058,-459.657299
127.130612,5255.462188,7920.203579,-459.657299
127.130933,5699.585753,7328.038826,-229.828649
127.131254,5625.565159,7328.038826,-306.438199
127.131574,4885.359217,7846.182985,306.438199
127.131895,3997.112087,8808.450710,919.314598
127.132216,3923.091493,9030.512492,612.876398
127.132537,5403.503377,7994.224174,76.609550
127.132858,6365.771101,7328.038826,-766.095498
127.133178,6365.771101,7031.956449,-1762.019645
127.133499,6661.853478,7105.977043,-1149.143247
127.133820,5847.626942,7550.100608,-612.876398
127.134141,5107.421000,8438.347739,0.000000
127.134462,5625.565159,9104.533087,536.266849
127.134783,4959.379811,9104.533087,0.000000
127.135103,4737.318029,7698.141797,-1685.410096
127.135424,5625.565159,6883.915261,-1762.019645
127.135745,5403.503377,7105.977043,-1072.533697
127.136066,5255.462188,7105.977043,229.828649
127.136387,4959.379811,7846.182985,1225.752797
127.136708,3627.009116,8734.430116,842.705048
127.137028,3404.947333,9178.553681,229.828649
127.137349,3775.050304,9178.553681,0.000000
127.137670,4515.256246,7550.100608,-1762.019645
127.137991,5551.544565,6883.915261,-1225.752797
127.138312,5995.668130,7402.059420,0.000000
127.138633,5107.421000,9252.574275,383.047749
127.138953,3701.029710,10436.903782,459.657299
127.139274,3478.967927,10436.903782,153.219100
127.139595,4145.153275,9326.594869,-995.924147
127.139916,4367.215058,7846.182985,-919.314598
127.140237,5403.503377,7105.977043,-383.047749
127.140558,5477.523971,6809.894666,383.047749
127.140878,4663.297435,7550.100608,1225.752797
127.141199,3330.926739,9326.594869,995.924147
127.141520,3552.988522,9474.636058,229.828649
127.141841,4071.132681,9252.574275,-76.609550
127.142162,5255.462188,8290.306550,-612.876398
127.142482,6217.729913,7105.977043,-459.657299
127.142803,6217.729913,7402.059420,-995.924147
127.143124,5699.585753,7772.162391,0.000000
127.143445,5403.503377,8068.244768,689.485948
127.143766,4811.338623,9030.512492,536.266849
127.144087,4071.132681,9030.512492,-612.876398
127.144407,4145.153275,8068.244768,-1072.533697
127.144728,5773.606348,7105.977043,-459.657299
127.145049,6661.853478,6365.771101,0.000000
127.145370,6587.832884,6365.771101,0.000000
127.145691,5551.544565,7031.956449,153.219100
127.146012,4145.153275,7994.224174,536.266849
127.146332,3997.112087,8438.347739,1302.362347
127.146653,5551.544565,7994.224174,612.876398
127.146974,6735.874072,7550.100608,-153.219100
127.147295,6735.874072,6809.894666,-1608.800546
127.147616,6143.709319,7031.956449,-1608.800546
127.147937,5329.482782,7624.121203,-1225.752797
127.148257,4145.153275,8290.306550,0.000000
127.148578,4293.194464,8438.347739,689.485948
127.148899,4737.318029,8734.430116,459.657299
127.149220,4145.153275,7624.121203,0.000000
127.149541,4737.318029,7105.977043,-919.314598
127.149862,5625.565159,7105.977043,-766.095498
127.150182,5181.441594,7105.977043,153.219100
127.150503,4293.194464,8068.244768,1072.533697
127.150824,4219.173869,8734.430116,1225.752797
127.151145,4515.256246,8956.491898,536.266849
127.151466,4959.379811,9178.553681,689.485948
127.151786,5773.606348,8290.306550,-1302.362347
127.152107,5033.400406,7624.121203,-1915.238745
127.152428,5921.647536,7550.100608,-459.657299
127.152749,5181.441594,8586.388927,1072.533697
127.153070,4589.276840,9474.636058,1378.971896
127.153391,3775.050304,9992.780217,459.657299
127.153711,3923.091493,9178.553681,-1302.362347
127.154032,4589.276840,7846.182985,-995.924147
127.154353,5551.544565,7105.977043,-536.266849
127.154674,6291.750507,6957.935855,0.000000
127.154995,5033.400406,8808.450710,229.828649
127.155316,4293.194464,9622.677246,842.705048
127.155636,3478.967927,9548.656652,-306.438199
127.155957,4293.194464,9030.512492,0.000000
127.156278,5995.668130,8364.327145,-536.266849
127.156599,5551.544565,7624.121203,-689.485948
127.156920,5255.462188,7105.977043,-766.095498
127.157241,5329.482782,7402.059420,0.000000
127.157561,4737.318029,8734.430116,612.876398
127.157882,4737.318029,9030.512492,689.485948
127.158203,4441.235652,9104.533087,0.000000
127.158524,4885.359217,8586.388927,-1302.362347
127.158845,4737.318029,7105.977043,-1378.971896
127.159166,5625.565159,6143.709319,-536.266849
127.159486,6069.688724,7254.018232,459.657299
127.159807,5181.441594,7994.224174,842.705048
127.160128,4219.173869,8660.409521,76.609550
127.160449,4071.132681,8956.491898,-459.657299
127.160770,4663.297435,8586.388927,153.219100
127.161090,5773.606348,7105.977043,0.000000
127.161411,6439.791695,5995.668130,-689.485948
127.161732,6513.812290,6513.812290,-689.485948
127.162053,5773.606348,7994.224174,-153.219100
127.162374,3849.070898,8290.306550,229.828649
127.162695,4589.276840,8512.368333,153.219100
127.163015,5477.523971,8882.471304,0.000000
127.163336,4737.318029,8438.347739,-689.485948
127.163657,5033.400406,6809.894666,-1225.752797
127.163978,5847.626942,6957.935855,-612.876398
127.164299,5403.503377,7550.100608,0.000000
127.164620,4071.132681,9252.574275,1685.410096
127.164940,3997.112087,9178.553681,612.876398
127.165261,3701.029710,8142.265362,-689.485948
127.165582,4589.276840,8142.265362,0.000000
127.165903,4959.379811,7179.997637,0.000000
127.166224,5773.606348,7328.038826,-842.705048
127.166545,5773.606348,7772.162391,-536.266849
127.166865,4885.359217,8882.471304,-306.438199
127.167186,4737.318029,8808.450710,536.266849
127.167507,4441.235652,9104.533087,842.705048
127.167828,4589.276840,9252.574275,-306.438199
127.168149,5107.421000,7772.162391,-995.924147
127.168470,5551.544565,6735.874072,-1608.800546
127.168790,6069.688724,6957.935855,-1302.362347
127.169111,5773.606348,7994.224174,229.828649
127.169432,5181.441594,9252.574275,919.314598
127.169753,4663.297435,9400.615463,306.438199
127.170074,3997.112087,8956.491898,-766.095498
127.170394,4885.359217,8512.368333,0.000000
127.170715,5033.400406,6883.915261,-306.438199
127.171036,5329.482782,6513.812290,-383.047749
127.171357,5625.565159,7772.162391,-153.219100
127.171678,3478.967927,9030.512492,-306.438199
127.171999,2886.803174,9622.677246,0.000000
127.172319,3775.050304,9992.780217,306.438199
127.172640,4441.235652,9400.615463,153.219100
127.172961,5551.544565,7920.203579,153.219100
127.173282,5699.585753,6513.812290,-612.876398
127.173603,5403.503377,6069.688724,-1072.533697
127.173924,5403.503377,7402.059420,383.047749
127.174244,4959.379811,9252.574275,842.705048
127.174565,5255.462188,9252.574275,229.828649
127.174886,6365.771101,8586.388927,-536.266849
127.175207,5477.523971,7402.059420,-1302.362347
127.175528,5921.647536,6809.894666,-1608.800546
127.175849,6513.812290,7179.997637,0.000000
127.176169,6143.709319,8660.409521,459.657299
127.176490,5403.503377,8290.306550,383.047749
127.176811,5255.462188,8142.265362,-383.047749
127.177132,4515.256246,7920.203579,-1532.190996
127.177453,4589.276840,7550.100608,-842.705048
127.177774,5847.626942,6809.894666,0.000000
127.178094,7105.977043,6587.832884,-536.266849
127.178415,6735.874072,6809.894666,76.609550
127.178736,5107.421000,7698.141797,459.657299
127.179057,4367.215058,8660.409521,0.000000
127.179378,4145.153275,8290.306550,306.438199
127.179699,4885.359217,7920.203579,-153.219100
127.180019,6217.729913,6957.935855,-1149.143247
127.180340,6735.874072,6513.812290,-1225.752797
127.180661,6661.853478,8142.265362,-383.047749
127.180982,4811.338623,9622.677246,459.657299
127.181303,3775.050304,9474.636058,919.314598
127.181623,4145.153275,8438.347739,153.219100
127.181944,4737.318029,7254.018232,153.219100
127.182265,4959.379811,6217.729913,0.000000
127.182586,5033.400406,6439.791695,-229.828649
127.182907,4885.359217,7179.997637,-383.047749
127.183228,4589.276840,8660.409521,-383.047749
127.183548,4071.132681,8956.491898,689.485948
127.183869,4811.338623,8512.368333,612.876398
127.184190,5107.421000,8956.491898,1149.143247
127.184511,4219.173869,8364.327145,-459.657299
127.184832,4145.153275,7772.162391,-1378.971896
127.185153,5403.503377,7328.038826,-1608.800546
127.185473,5403.503377,8290.306550,0.000000
127.185794,5181.441594,9770.718434,842.705048
127.186115,4219.173869,10214.842000,536.266849
127.186436,2886.803174,9326.594869,-153.219100
127.186757,3182.885551,7624.121203,-536.266849
127.187078,4367.215058,6735.874072,-229.828649
127.187398,5551.544565,6587.832884,383.047749
127.187719,5625.565159,7550.100608,689.485948
127.188040,4959.379811,9104.533087,459.657299
127.188361,3404.947333,9548.656652,-306.438199
127.188682,4071.132681,9030.512492,-306.438199
127.189002,5107.421000,8364.327145,-229.828649
127.189323,5921.647536,7031.956449,-766.095498
127.189644,6587.832884,6513.812290,-1072.533697
127.189965,6883.915261,7031.956449,-1072.533697
127.190286,6513.812290,8660.409521,-76.609550
127.190606,5107.421000,9030.512492,766.095498
127.190927,4959.379811,8216.285956,383.047749
127.191248,6069.688724,7550.100608,1149.143247
127.191569,5995.668130,6883.915261,306.438199
127.191889,5255.462188,5329.482782,-1378.971896
127.192210,6365.771101,5699.585753,-1532.190996
127.192531,6735.874072,7772.162391,-383.047749
127.192852,4737.318029,9252.574275,229.828649
127.193173,5255.462188,8956.491898,842.705048
127.193493,5255.462188,8586.388927,383.047749
127.193814,3923.091493,7994.224174,-536.266849
127.194135,3997.112087,7698.141797,-153.219100
127.194456,4811.338623,7328.038826,-1149.143247
127.194776,5181.441594,7550.100608,-1685.410096
127.195097,4959.379811,9030.512492,383.047749
127.195418,4219.173869,9548.656652,1149.143247
127.195739,3478.967927,9992.780217,995.924147
127.196060,3034.844362,8956.491898,842.705048
127.196380,3849.070898,7402.059420,-229.828649
127.196701,5107.421000,6365.771101,0.000000
127.197022,5329.482782,7254.018232,0.000000
127.197343,5255.462188,9178.553681,383.047749
127.197663,4071.132681,9696.697840,612.876398
127.197984,3849.070898,9252.574275,153.219100
127.198305,4515.256246,8290.306550,76.609550
127.198626,5033.400406,6957.935855,-459.657299
127.198947,5995.668130,6809.894666,-1378.971896
127.199267,6365.771101,7179.997637,-1072.533697
127.199588,6143.709319,9104.533087,-919.314598
127.199909,5921.647536,10362.883188,689.485948
127.200230,4959.379811,10288.862594,1225.752797
127.200550,4071.132681,8734.430116,229.828649
127.200871,4293.194464,7031.956449,-153.219100
127.201192,4737.318029,5847.626942,-1455.581446
127.201513,5625.565159,5847.626942,-1608.800546
127.201834,5625.565159,6513.812290,-689.485948
127.202154,5181.441594,8512.368333,0.000000
127.202475,5551.544565,9992.780217,1149.143247
127.202796,4367.215058,9178.553681,1149.143247
127.203117,3923.091493,8068.244768,0.000000
127.203437,3849.070898,6143.709319,-1225.752797
127.203758,5255.462188,5625.565159,-1302.362347
127.204079,6291.750507,6809.894666,-459.657299
127.204400,6365.771101,8882.471304,0.000000
127.204721,5033.400406,10214.842000,-306.438199
127.205041,4663.297435,10288.862594,-612.876398
127.205362,4145.153275,9400.615463,-153.219100
127.205683,4811.338623,7624.121203,459.657299
127.206004,5329.482782,5921.647536,459.657299
127.206324,5847.626942,5773.606348,-229.828649
127.206645,5033.400406,7254.018232,-383.047749
127.206966,4589.276840,9030.512492,459.657299
127.207287,4071.132681,9400.615463,536.266849
127.207608,4515.256246,9104.533087,229.828649
127.207928,4737.318029,8290.306550,-612.876398
127.208249,4515.256246,7476.080014,-995.924147
127.208570,5551.544565,6735.874072,-1072.533697
127.208891,6217.729913,7994.224174,153.219100
127.209211,5255.462188,9696.697840,766.095498
127.209532,4145.153275,10066.800811,229.828649
127.209853,4071.132681,9696.697840,229.828649
127.210174,4293.194464,8808.450710,0.000000
127.210495,4515.256246,6957.935855,-229.828649
127.210815,5181.441594,5995.668130,-612.876398
127.211136,5551.544565,6883.915261,-995.924147
127.211457,5329.482782,8512.368333,536.266849
127.211778,4663.297435,9326.594869,766.095498
127.212099,4515.256246,9178.553681,612.876398
127.212419,4589.276840,8364.327145,459.657299
127.212740,4959.379811,7772.162391,153.219100
127.213061,5847.626942,6513.812290,-766.095498
127.213382,5921.647536,6069.688724,-1378.971896
127.213702,5847.626942,7105.977043,-1302.362347
127.214023,4737.318029,9104.533087,0.000000
127.214344,4367.215058,9992.780217,536.266849
127.214665,4737.318029,9474.636058,229.828649
127.214986,4737.318029,7698.141797,-229.828649
127.215306,5477.523971,5847.626942,-842.705048
127.215627,6069.688724,5403.503377,-766.095498
127.215948,5773.606348,6883.915261,0.000000
127.216269,4663.297435,8586.388927,0.000000
127.216589,4515.256246,9252.574275,-229.828649
127.216910,4885.359217,9178.553681,153.219100
127.217231,4737.318029,8438.347739,383.047749
127.217552,4663.297435,7698.141797,-153.219100
127.217873,4885.359217,6365.771101,-1838.629195
127.218193,4737.318029,6587.832884,-1532.190996
127.218514,5181.441594,8512.368333,229.828649
127.218835,5329.482782,10362.883188,1072.533697
127.219156,4367.215058,10658.965565,459.657299
127.219476,4367.215058,10214.842000,-383.047749
127.219797,3923.091493,7698.141797,-689.485948
127.220118,4071.132681,5921.647536,-1072.533697
127.220439,5329.482782,5403.503377,0.000000
127.220760,6069.688724,7328.038826,1072.533697
127.221080,5181.441594,9622.677246,919.314598
127.221401,4737.318029,10436.903782,0.000000
127.221722,4219.173869,10288.862594,-766.095498
127.222043,4737.318029,8586.388927,-766.095498
127.222363,5477.523971,6809.894666,229.828649
127.222684,6735.874072,6143.709319,-229.828649
127.223005,6661.853478,7179.997637,-842.705048
127.223326,4959.379811,8808.450710,-383.047749
127.223647,4219.173869,10732.986159,-689.485948
127.223967,4737.318029,10807.006753,-306.438199
127.224288,5403.503377,9326.594869,306.438199
127.224609,5477.523971,6957.935855,229.828649
127.224930,5921.647536,4811.338623,-383.047749
127.225250,5403.503377,5403.503377,-229.828649
127.225571,4737.318029,6809.894666,459.657299
127.225892,4367.215058,9030.512492,689.485948
127.226213,5255.462188,9400.615463,229.828649
127.226534,5551.544565,8142.265362,-306.438199
127.226854,6069.688724,7105.977043,-612.876398
127.227175,5477.523971,7105.977043,-1072.533697
127.227496,4959.379811,7031.956449,-1225.752797
127.227817,5107.421000,7550.100608,-536.266849
127.228137,5551.544565,9178.553681,689.485948
127.228458,4441.235652,10214.842000,612.876398
127.228779,4071.132681,10510.924376,0.000000
127.229100,3552.988522,9030.512492,-383.047749
127.229421,4145.153275,6661.853478,-842.705048
127.229741,5403.503377,4737.318029,0.000000
127.230062,5551.544565,5477.523971,842.705048
127.230383,4441.235652,7550.100608,842.705048
127.230704,3478.967927,9548.656652,919.314598
127.231024,3256.906145,9696.697840,459.657299
127.231345,4737.318029,8586.388927,-306.438199
127.231666,5995.668130,6513.812290,-995.924147
127.231987,6069.688724,5773.606348,-2374.896044
127.232308,6587.832884,6809.894666,-2145.067394
127.232628,5329.482782,9548.656652,-383.047749
127.232949,5329.482782,10658.965565,229.828649
127.233270,5329.482782,10288.862594,689.485948
127.233591,5773.606348,9252.574275,229.828649
127.233911,5921.647536,8068.244768,-1149.143247
127.234232,4811.338623,6439.791695,0.000000
127.234553,5181.441594,5403.503377,-306.438199
127.234874,5773.606348,5921.647536,153.219100
127.235195,4737.318029,7254.018232,1225.752797
127.235515,4293.194464,9548.656652,689.485948
127.235836,4663.297435,9844.739029,612.876398
127.236157,4293.194464,8808.450710,153.219100
127.236478,5255.462188,6957.935855,-1072.533697
127.236798,6513.812290,5847.626942,-1072.533697
127.237119,7105.977043,6735.874072,-306.438199
127.237440,5773.606348,8808.450710,76.609550
127.237761,4737.318029,10288.862594,-306.438199
127.238082,4663.297435,10140.821405,-1149.143247
127.238402,5255.462188,9400.615463,-306.438199
127.238723,5773.606348,7624.121203,-153.219100
127.239044,6217.729913,6217.729913,0.000000
127.239365,5477.523971,5847.626942,-689.485948
127.239686,4293.194464,7476.080014,-383.047749
127.240006,3775.050304,8660.409521,383.047749
127.240327,4145.153275,9030.512492,612.876398
127.240648,4367.215058,9474.636058,229.828649
127.240969,4737.318029,8734.430116,-383.047749
127.241289,4441.235652,7328.038826,-1072.533697
127.241610,4515.256246,7328.038826,-1378.971896
127.241931,4811.338623,8364.327145,-383.047749
127.242252,3997.112087,10288.862594,306.438199
127.242573,3849.070898,10658.965565,0.000000
127.242893,3997.112087,10288.862594,76.609550
127.243214,3330.926739,9252.574275,-306.438199
127.243535,3627.009116,7105.977043,76.609550
127.243856,4589.276840,6735.874072,-459.657299
127.244176,5033.400406,7402.059420,0.000000
127.244497,4589.276840,8734.430116,689.485948
127.244818,4071.132681,9252.574275,1532.190996
127.245139,4145.153275,8956.491898,612.876398
127.245460,4219.173869,8142.265362,229.828649
127.245780,4811.338623,7105.977043,306.438199
127.246101,6587.832884,6809.894666,-536.266849
127.246422,7031.956449,7328.038826,-1149.143247
127.246743,6809.894666,8956.491898,-995.924147
127.247063,4959.379811,9104.533087,229.828649
127.247384,4367.215058,8882.471304,536.266849
127.247705,4737.318029,7550.100608,306.438199
127.248026,5995.668130,5995.668130,76.609550
127.248347,7031.956449,5847.626942,-766.095498
127.248667,7105.977043,6143.709319,-1838.629195
127.248988,5921.647536,6513.812290,-1378.971896
127.249309,7179.997637,7994.224174,153.219100
127.249630,5995.668130,7994.224174,919.314598
127.249950,6217.729913,7254.018232,842.705048
127.250271,6365.771101,6587.832884,-229.828649
127.250592,5551.544565,6143.709319,-1532.190996
127.250913,5551.544565,6513.812290,-995.924147
127.251234,6661.853478,8142.265362,-612.876398
127.251554,5921.647536,9104.533087,-612.876398
127.251875,5033.400406,9104.533087,459.657299
127.252196,4441.235652,8808.450710,766.095498
127.252517,3627.009116,8068.244768,153.219100
127.252837,3108.864956,7105.977043,-766.095498
127.253158,3775.050304,6291.750507,-919.314598
127.253479,4811.338623,7402.059420,-1072.533697
127.253800,4663.297435,8956.491898,612.876398
127.254121,4145.153275,9918.759623,1378.971896
127.254441,3256.906145,10584.944971,689.485948
127.254762,2368.659014,9918.759623,0.000000
127.255083,2368.659014,8438.347739,-612.876398
127.255404,3849.070898,7105.977043,-766.095498
127.255724,4959.379811,7772.162391,-612.876398
127.256045,5921.647536,9696.697840,153.219100
127.256366,4589.276840,10288.862594,0.000000
127.256687,4219.173869,10584.944971,-76.609550
127.257008,4145.153275,9326.594869,0.000000
127.257328,4367.215058,7328.038826,229.828649
127.257649,6365.771101,5329.482782,153.219100
127.257970,6365.771101,5699.585753,-459.657299
127.258291,5699.585753,7402.059420,-536.266849
127.258611,5477.523971,9474.636058,-383.047749
127.258932,4515.256246,10140.821405,76.609550
127.259253,5477.523971,9252.574275,459.657299
127.259574,6069.688724,8142.265362,612.876398
127.259895,5181.441594,6513.812290,-919.314598
127.260215,4959.379811,5551.544565,-1762.019645
127.260536,5773.606348,6735.874072,-842.705048
127.260857,6069.688724,8586.388927,0.000000
127.261178,5551.544565,9770.718434,1149.143247
127.261498,4959.379811,9474.636058,-383.047749
127.261819,4293.194464,8734.430116,-1072.533697
127.262140,3775.050304,7476.080014,-842.705048
127.262461,4737.318029,5329.482782,-459.657299
127.262782,6143.709319,5329.482782,0.000000
127.263102,5921.647536,7105.977043,459.657299
127.263423,4441.235652,9326.594869,306.438199
127.263744,4071.132681,10362.883188,0.000000
127.264065,4515.256246,9400.615463,76.609550
127.264385,5255.462188,8142.265362,-306.438199
127.264706,5773.606348,5625.565159,-995.924147
127.265027,6365.771101,5181.441594,-2145.067394
127.265348,6069.688724,7105.977043,-842.705048
127.265669,5551.544565,9178.553681,612.876398
127.265989,4811.338623,10214.842000,612.876398
127.266310,4737.318029,9992.780217,-306.438199
127.266631,4515.256246,9178.553681,-536.266849
127.266952,5033.400406,7105.977043,229.828649
127.267273,5699.585753,5847.626942,-612.876398
127.267593,5625.565159,6291.750507,76.609550
127.267914,5107.421000,7772.162391,306.438199
127.268235,4589.276840,9622.677246,229.828649
127.268556,3701.029710,10288.862594,306.438199
127.268876,4737.318029,9474.636058,459.657299
127.269197,5773.606348,7698.141797,306.438199
127.269518,6143.709319,6883.915261,-383.047749
127.269839,5255.462188,6735.874072,-766.095498
127.270160,5773.606348,7846.182985,-612.876398
127.270480,5403.503377,8808.450710,0.000000
127.270801,4293.194464,9178.553681,689.485948
127.271122,4441.235652,9178.553681,459.657299
127.271443,4885.359217,8586.388927,-383.047749
127.271763,4811.338623,7179.997637,-766.095498
127.272084,5995.668130,6069.688724,-1072.533697
127.272405,6735.874072,6365.771101,-229.828649
127.272726,5181.441594,7994.224174,842.705048
127.273047,4071.132681,8808.450710,995.924147
127.273367,4293.194464,8734.430116,0.000000
127.273688,5107.421000,8216.285956,-766.095498
127.274009,5773.606348,7698.141797,-612.876398
127.274330,5773.606348,6809.894666,-1302.362347
127.274650,5995.668130,6809.894666,-1455.581446
127.274971,5329.482782,7698.141797,0.000000
127.275292,3923.091493,8142.265362,612.876398
127.275613,3849.070898,9104.533087,919.314598
127.275934,4737.318029,9252.574275,459.657299
127.276254,3849.070898,7476.080014,-995.924147
127.276575,4959.379811,5995.668130,-1685.410096
127.276896,6513.812290,6661.853478,-1302.362347
127.277217,4885.359217,8290.306550,-459.657299
127.277537,4441.235652,9696.697840,536.266849
127.277858,4441.235652,10362.883188,383.047749
127.278179,4293.194464,9992.780217,-76.609550
127.278500,4367.215058,9178.553681,0.000000
127.278821,4367.215058,7846.182985,-766.095498
127.279141,4885.359217,6883.915261,-1532.190996
127.279462,5255.462188,8512.368333,766.095498
127.279783,4959.379811,9992.780217,1149.143247
127.280104,3849.070898,10214.842000,689.485948
127.280424,3034.844362,9474.636058,153.219100
127.280745,3404.947333,8808.450710,153.219100
127.281066,4367.215058,7772.162391,153.219100
127.281387,5255.462188,6957.935855,0.000000
127.281708,5477.523971,7328.038826,-689.485948
127.282028,5107.421000,8882.471304,306.438199
127.282349,3775.050304,9770.718434,1072.533697
127.282670,4071.132681,9622.677246,229.828649
127.282991,4589.276840,8438.347739,-383.047749
127.283311,5551.544565,7328.038826,-1455.581446
127.283632,6291.750507,6365.771101,-1838.629195
127.283953,6513.812290,6661.853478,-1072.533697
127.284274,6809.894666,8586.388927,-306.438199
127.284595,5847.626942,9178.553681,459.657299
127.284915,4737.318029,8068.244768,0.000000
127.285236,5403.503377,6661.853478,0.000000
127.285557,5699.585753,6365.771101,153.219100
127.285878,5699.585753,5625.565159,-689.485948
127.286198,5255.462188,5773.606348,-1302.362347
127.286519,6291.750507,6883.915261,-1225.752797
127.286840,6291.750507,8956.491898,306.438199
127.287161,4737.318029,8734.430116,1072.533697
127.287482,4293.194464,7920.203579,383.047749
127.287802,4515.256246,7698.141797,-459.657299
127.288123,4589.276840,7476.080014,-919.314598
127.288444,5477.523971,7254.018232,-1072.533697
127.288765,6143.709319,7624.121203,-1149.143247
127.289085,5773.606348,8586.388927,0.000000
127.289406,3775.050304,10066.800811,766.095498
127.289727,2368.659014,9696.697840,1072.533697
127.290048,2960.823768,8364.327145,766.095498
127.290369,4071.132681,6883.915261,0.000000
127.290689,4515.256246,5995.668130,-766.095498
127.291010,4959.379811,7105.977043,-1149.143247
127.291331,5255.462188,9548.656652,0.000000
127.291652,5255.462188,11473.192101,536.266849
127.291973,4737.318029,10881.027347,689.485948
127.292293,5329.482782,8586.388927,536.266849
127.292614,5477.523971,7624.121203,0.000000
127.292935,5403.503377,7328.038826,-153.219100
127.293256,5403.503377,7328.038826,-995.924147
127.293577,5921.647536,7846.182985,-1072.533697
127.293898,6439.791695,8808.450710,459.657299
127.294218,5477.523971,9178.553681,1762.019645
127.294539,4589.276840,8808.450710,1072.533697
127.294860,4441.235652,8142.265362,-459.657299
127.295181,4219.173869,6513.812290,-1915.238745
127.295502,6291.750507,5551.544565,-1072.533697
127.295822,7328.038826,6069.688724,76.609550
127.296143,6365.771101,8512.368333,1378.971896
127.296464,4737.318029,10066.800811,842.705048
127.296785,3552.988522,10140.821405,0.000000
127.297106,3849.070898,8364.327145,-919.314598
127.297427,5107.421000,6513.812290,-995.924147
127.297747,5403.503377,5773.606348,-1378.971896
127.298068,5329.482782,6735.874072,-766.095498
127.298389,4663.297435,8364.327145,76.609550
127.298710,4145.153275,9696.697840,766.095498
127.299031,3997.112087,9696.697840,842.705048
127.299351,4071.132681,8882.471304,-383.047749
127.299672,3701.029710,7624.121203,-766.095498
127.299993,4367.215058,5255.462188,-995.924147
127.300314,4959.379811,5181.441594,-919.314598
127.300635,5477.523971,7105.977043,0.000000
127.300956,5477.523971,10362.883188,-306.438199
127.301276,3849.070898,11399.171507,0.000000
127.301597,3478.967927,10658.965565,-459.657299
127.301918,4589.276840,8216.285956,-306.438199
127.302239,4737.318029,6217.729913,-459.657299
127.302560,5773.606348,5699.585753,-612.876398
127.302881,5995.668130,7328.038826,229.828649
127.303201,5403.503377,8734.430116,0.000000
127.303522,4959.379811,9918.759623,229.828649
127.303843,4515.256246,9770.718434,76.609550
127.304164,3627.009116,7698.141797,0.000000
127.304485,5181.441594,6217.729913,-153.219100
127.304805,6365.771101,6069.688724,-842.705048
127.305126,6217.729913,6735.874072,-766.095498
127.305447,5921.647536,8216.285956,0.000000
127.305768,4959.379811,10584.944971,306.438199
127.306089,3849.070898,10584.944971,306.438199
127.306410,4959.379811,10140.821405,306.438199
127.306730,5773.606348,8068.244768,-536.266849
127.307051,5477.523971,6513.812290,-1455.581446
127.307372,5181.441594,6883.915261,-1072.533697
127.307693,4959.379811,8142.265362,-459.657299
127.308014,4071.132681,9548.656652,229.828649
127.308334,3849.070898,9474.636058,1302.362347
127.308655,4737.318029,9030.512492,689.485948
127.308976,4589.276840,7476.080014,842.705048
127.309297,3775.050304,6291.750507,-153.219100
127.309618,4737.318029,6217.729913,-1072.533697
127.309939,5625.565159,6957.935855,-919.314598
127.310259,5181.441594,9030.512492,842.705048
127.310580,4737.318029,10288.862594,1072.533697
127.310901,4737.318029,9548.656652,0.000000
127.311222,5255.462188,8660.409521,-689.485948
127.311543,5181.441594,7328.038826,-1455.581446
127.311863,5847.626942,6957.935855,-2068.457845
127.312184,5847.626942,7105.977043,-1915.238745
127.312505,5255.462188,7402.059420,-536.266849
127.312826,4885.359217,8364.327145,1225.752797
127.313147,3997.112087,9178.553681,1225.752797
127.313468,2738.761985,9030.512492,689.485948
127.313788,3997.112087,8216.285956,-612.876398
127.314109,4885.359217,6809.894666,-919.314598
127.314430,5403.503377,6069.688724,-459.657299
127.314751,5773.606348,7476.080014,689.485948
127.315072,4959.379811,10066.800811,842.705048
127.315392,2886.803174,10732.986159,76.609550
127.315713,3775.050304,9326.594869,0.000000
127.316034,5699.585753,8068.244768,0.000000
127.316355,6217.729913,7031.956449,-153.219100
127.316676,5181.441594,6513.812290,0.000000
127.316997,5477.523971,7254.018232,-1302.362347
127.317317,5329.482782,8734.430116,0.000000
127.317638,4663.297435,9326.594869,1685.410096
127.317959,4737.318029,8660.409521,1991.848295
127.318280,5033.400406,8142.265362,842.705048
127.318601,3775.050304,6809.894666,0.000000
127.318922,4737.318029,5847.626942,-1608.800546
127.319242,6513.812290,5403.503377,-766.095498
127.319563,7550.100608,7624.121203,76.609550
127.319884,5847.626942,9400.615463,842.705048
127.320205,4959.379811,9252.574275,76.609550
127.320526,4959.379811,8586.388927,-612.876398
127.320846,5255.462188,7105.977043,-612.876398
127.321167,5625.565159,6291.750507,-766.095498
127.321488,6587.832884,5773.606348,-1608.800546
127.321809,5551.544565,7328.038826,-1149.143247
127.322130,5255.462188,9030.512492,536.266849
127.322451,4811.338623,9474.636058,459.657299
127.322771,4589.276840,9178.553681,-536.266849
127.323092,4441.235652,8586.388927,-842.705048
127.323413,4663.297435,7179.997637,-842.705048
127.323734,4663.297435,6513.812290,-842.705048
127.324055,5107.421000,6735.874072,0.000000
127.324375,5329.482782,7994.224174,612.876398
127.324696,4367.215058,9844.739029,536.266849
127.325017,3256.906145,9474.636058,-306.438199
127.325338,4071.132681,9252.574275,-919.314598
127.325659,4737.318029,7994.224174,-612.876398
127.325980,4885.359217,6661.853478,0.000000
127.326300,5773.606348,7254.018232,0.000000
127.326621,5625.565159,8882.471304,-229.828649
127.326942,4441.235652,10066.800811,-229.828649
127.327263,4293.194464,9844.739029,-153.219100
127.327584,5255.462188,9104.533087,383.047749
127.327904,5181.441594,7994.224174,306.438199
127.328225,5403.503377,7846.182985,-459.657299
127.328546,5107.421000,7402.059420,-1378.971896
127.328867,5033.400406,7402.059420,-1149.143247
127.329188,5551.544565,8364.327145,689.485948
127.329509,4737.318029,8808.450710,1608.800546
127.329829,4663.297435,8808.450710,536.266849
127.330150,4663.297435,8068.244768,-459.657299
127.330471,4663.297435,7031.956449,-995.924147
127.330792,5551.544565,6587.832884,-536.266849
127.331113,6439.791695,7920.203579,0.000000
127.331433,5551.544565,9770.718434,-383.047749
127.331754,4071.132681,9918.759623,-1302.362347
127.332075,4737.318029,9474.636058,-306.438199
127.332396,4071.132681,8438.347739,459.657299
127.332717,4071.132681,6587.832884,536.266849
127.333038,4959.379811,5699.585753,76.609550
127.333358,5403.503377,6069.688724,-919.314598
127.333679,5255.462188,6957.935855,-383.047749
127.334000,5773.606348,7920.203579,306.438199
127.334321,4515.256246,7994.224174,-229.828649
127.334642,4811.338623,7624.121203,0.000000
127.334963,5625.565159,7698.141797,153.219100
127.335283,5403.503377,7624.121203,-1532.190996
127.335604,5107.421000,6735.874072,-2604.724693
127.335925,5625.565159,7624.121203,-1915.238745
127.336246,4959.379811,9696.697840,-689.485948
127.336567,3701.029710,10362.883188,1072.533697
127.336887,4515.256246,9992.780217,229.828649
127.337208,4071.132681,8734.430116,-689.485948
127.337529,2812.782580,7328.038826,-459.657299
127.337850,2812.782580,6513.812290,459.657299
127.338171,4293.194464,6809.894666,689.485948
127.338492,5403.503377,7994.224174,1072.533697
127.338812,4515.256246,8882.471304,1072.533697
127.339133,4589.276840,9104.533087,0.000000
127.339454,4737.318029,10066.800811,0.000000
127.339775,4589.276840,9400.615463,689.485948
127.340096,4811.338623,7772.162391,-383.047749
127.340416,6587.832884,6735.874072,-1072.533697
127.340737,5921.647536,8142.265362,-612.876398
127.341058,5181.441594,10066.800811,459.657299
127.341379,4441.235652,9844.739029,612.876398
127.341700,4737.318029,9252.574275,-612.876398
127.342021,4959.379811,7772.162391,-689.485948
127.342341,5329.482782,6143.709319,229.828649
127.342662,5477.523971,5625.565159,76.609550
127.342983,5773.606348,6809.894666,612.876398
127.343304,5255.462188,7994.224174,459.657299
127.343625,5403.503377,8512.368333,536.266849
127.343945,5255.462188,8290.306550,0.000000
127.344266,5847.626942,8586.388927,-459.657299
127.344587,5329.482782,8142.265362,-689.485948
127.344908,5477.523971,6957.935855,-1838.629195
127.345229,5773.606348,6735.874072,-1532.190996
127.345550,5995.668130,7624.121203,-1225.752797
127.345870,5329.482782,8364.327145,-612.876398
127.346191,5107.421000,9252.574275,-153.219100
127.346512,5107.421000,8586.388927,0.000000
127.346833,5255.462188,7105.977043,0.000000
127.347154,4959.379811,5551.544565,-229.828649
127.347474,5625.565159,5625.565159,-536.266849
127.347795,5329.482782,7179.997637,-383.047749
127.348116,5033.400406,8364.327145,306.438199
127.348437,4959.379811,8512.368333,536.266849
127.348758,4737.318029,8216.285956,536.266849
127.349079,4515.256246,8290.306550,0.000000
127.349399,4737.318029,8068.244768,-1532.190996
127.349720,5255.462188,7550.100608,-1915.238745
127.350041,6143.709319,7772.162391,-995.924147
127.350362,5921.647536,8068.244768,-766.095498
127.350683,5033.400406,8734.430116,-153.219100
127.351004,4515.256246,9844.739029,536.266849
