#time,accel_x,accel_y,accel_z
99.512670,4885.359217,8142.265362,0.000000
99.512990,5033.400406,7994.224174,0.000000
99.513311,4811.338623,8068.244768,0.000000
99.513632,4885.359217,7846.182985,76.609550
99.513952,5033.400406,8142.265362,0.000000
99.514273,5255.462188,7772.162391,-153.219100
99.514594,5107.421000,7772.162391,0.000000
99.514915,4737.318029,7994.224174,-229.828649
99.515235,5033.400406,7920.203579,0.000000
99.515556,4737.318029,7920.203579,0.000000
99.515877,5033.400406,7920.203579,0.000000
99.516198,4885.359217,7920.203579,-383.047749
99.516518,5033.400406,7846.182985,0.000000
99.516839,4959.379811,7624.121203,-153.219100
99.517160,4811.338623,8216.285956,0.000000
99.517480,4959.379811,8364.327145,-306.438199
99.517801,4737.318029,7994.224174,-306.438199
99.518122,4811.338623,8142.265362,0.000000
99.518443,4885.359217,8068.244768,0.000000
99.518763,4959.379811,7994.224174,-612.876398
99.519084,4811.338623,7994.224174,0.000000
99.519405,5033.400406,7994.224174,-383.047749
99.519726,4959.379811,7920.203579,-383.047749
99.520046,5403.503377,7920.203579,0.000000
99.520367,4811.338623,8586.388927,-76.609550
99.520688,4885.359217,7920.203579,76.609550
99.521008,5181.441594,8068.244768,-306.438199
99.521329,5107.421000,7846.182985,0.000000
99.521650,4959.379811,8068.244768,0.000000
99.521971,5255.462188,8438.347739,0.000000
99.522291,4885.359217,8290.306550,-229.828649
99.522612,5033.400406,8216.285956,-536.266849
99.522933,4811.338623,8216.285956,0.000000
99.523254,4811.338623,7550.100608,-229.828649
99.523574,4441.235652,7402.059420,-383.047749
99.523895,4219.173869,7920.203579,-459.657299
99.524216,4663.297435,9030.512492,-459.657299
99.524536,4737.318029,9696.697840,-919.314598
99.524857,4737.318029,10140.821405,-1225.752797
99.525178,4811.338623,9992.780217,-1149.143247
99.525499,4145.153275,9178.553681,0.000000
99.525819,3404.947333,8364.327145,766.095498
99.526140,3330.926739,8808.450710,1302.362347
99.526461,3404.947333,8734.430116,459.657299
99.526781,2664.741391,9178.553681,-229.828649
99.527102,2738.761985,8290.306550,-536.266849
99.527423,3256.906145,8660.409521,-383.047749
99.527744,3330.926739,9326.594869,76.609550
99.528064,2960.823768,9030.512492,383.047749
99.528385,2368.659014,9104.533087,383.047749
99.528706,2368.659014,9326.594869,-229.828649
99.529027,2220.617826,9992.780217,-766.095498
99.529347,1998.556043,11177.109724,-1455.581446
99.529668,1924.535449,11769.274478,-1225.752797
99.529989,1332.370696,11695.253884,-229.828649
99.530309,518.144159,11103.089130,-919.314598
99.530630,-444.123565,11103.089130,-1302.362347
99.530951,-1184.329507,11621.233289,-1225.752797
99.531272,-1702.473667,12361.439231,0.000000
99.531592,-1628.453072,12435.459826,766.095498
99.531913,-1776.494261,12213.398043,1302.362347
99.532234,-1406.391290,12361.439231,1532.190996
99.532555,-2072.576638,12509.480420,1915.238745
99.532875,-2738.761985,12287.418637,1685.410096
99.533196,-2886.803174,10881.027347,153.219100
99.533517,-1850.514855,9992.780217,-612.876398
99.533837,-1184.329507,9918.759623,229.828649
99.534158,-814.226536,9992.780217,919.314598
99.534479,-370.102971,10658.965565,842.705048
99.534800,0.000000,11103.089130,-383.047749
99.535120,1332.370696,11177.109724,-1455.581446
99.535441,1850.514855,10658.965565,-1149.143247
99.535762,2590.720797,10436.903782,-383.047749
99.536083,3478.967927,10214.842000,76.609550
99.536403,3478.967927,9770.718434,-766.095498
99.536724,2442.679609,9400.615463,-2145.067394
99.537045,2072.576638,8882.471304,-2451.505594
99.537365,2294.638420,9548.656652,-1532.190996
99.537686,2146.597232,9918.759623,-995.924147
99.538007,2368.659014,10140.821405,-536.266849
99.538328,1776.494261,10881.027347,-229.828649
99.538648,888.247130,10732.986159,383.047749
99.538969,74.020594,10510.924376,842.705048
99.539290,74.020594,9548.656652,766.095498
99.539610,0.000000,9104.533087,842.705048
99.539931,74.020594,9622.677246,459.657299
99.540252,0.000000,10140.821405,689.485948
99.540573,148.041188,10955.047942,1225.752797
99.540893,666.185348,11399.171507,1149.143247
99.541214,1406.391290,11399.171507,919.314598
99.541535,1406.391290,11103.089130,0.000000
99.541856,1480.411884,10732.986159,-612.876398
99.542176,1702.473667,10140.821405,-919.314598
99.542497,2220.617826,9474.636058,-612.876398
99.542818,2368.659014,8882.471304,-229.828649
99.543138,1924.535449,8660.409521,0.000000
99.543459,2294.638420,9474.636058,-153.219100
99.543780,2590.720797,10584.944971,-536.266849
99.544101,2368.659014,11103.089130,0.000000
99.544421,2516.700203,11177.109724,-459.657299
99.544742,2590.720797,11029.068536,-995.924147
99.545063,2368.659014,10436.903782,-689.485948
99.545384,2146.597232,9992.780217,-459.657299
99.545704,1850.514855,10510.924376,-383.047749
99.546025,814.226536,11177.109724,-995.924147
99.546346,592.164754,11547.212695,-306.438199
99.546666,1110.308913,11843.295072,-306.438199
99.546987,666.185348,11547.212695,-842.705048
99.547308,0.000000,10066.800811,-459.657299
99.547629,-222.061783,8586.388927,-766.095498
99.547949,-370.102971,7772.162391,306.438199
99.548270,0.000000,8216.285956,1608.800546
99.548591,962.267725,9548.656652,2221.676944
99.548912,2590.720797,11769.274478,1685.410096
99.549232,2886.803174,11917.315666,995.924147
99.549553,3701.029710,11177.109724,76.609550
99.549874,4737.318029,9622.677246,-459.657299
99.550194,4737.318029,8364.327145,0.000000
99.550515,4737.318029,7476.080014,-689.485948
99.550836,4737.318029,7031.956449,-1072.533697
99.551157,3775.050304,6809.894666,-2068.457845
99.551477,2590.720797,6365.771101,-2221.676944
99.551798,2812.782580,6513.812290,-1532.190996
99.552119,2886.803174,8364.327145,-1532.190996
99.552439,3775.050304,10584.944971,-1532.190996
99.552760,3997.112087,11769.274478,-1532.190996
99.553081,4071.132681,12583.501014,-1455.581446
99.553402,3404.947333,12731.542202,-766.095498
99.553722,2664.741391,12287.418637,-76.609550
99.554043,2738.761985,10955.047942,0.000000
99.554364,2812.782580,9548.656652,76.609550
99.554685,2590.720797,8068.244768,1149.143247
99.555005,2146.597232,7476.080014,2068.457845
99.555326,740.205942,7179.997637,2298.286494
99.555647,518.144159,7920.203579,2374.896044
99.555967,1406.391290,7402.059420,2145.067394
99.556288,2072.576638,6365.771101,1455.581446
99.556609,3256.906145,5255.462188,919.314598
99.556930,5403.503377,7105.977043,1302.362347
99.557250,5995.668130,10214.842000,1072.533697
99.557571,6735.874072,12139.377449,-536.266849
99.557892,8068.244768,11399.171507,-2451.505594
99.558213,9622.677246,9326.594869,-3294.210641
99.558533,8882.471304,6735.874072,-2068.457845
99.558854,8586.388927,6143.709319,-1302.362347
99.559175,7105.977043,6439.791695,-1378.971896
99.559495,6291.750507,6735.874072,-1532.190996
99.559816,5847.626942,5995.668130,-612.876398
99.560137,5625.565159,4663.297435,-919.314598
99.560458,5255.462188,4293.194464,306.438199
99.560778,5477.523971,6513.812290,2145.067394
99.561099,5181.441594,9104.533087,919.314598
99.561420,4737.318029,10066.800811,-1149.143247
99.561741,4663.297435,8956.491898,-2757.943793
99.562061,4663.297435,9104.533087,-2374.896044
99.562382,3627.009116,8068.244768,-306.438199
99.562703,2960.823768,7550.100608,1378.971896
99.563023,4589.276840,8068.244768,2145.067394
99.563344,3627.009116,9622.677246,1532.190996
99.563665,3849.070898,10066.800811,1149.143247
99.563986,4071.132681,9548.656652,536.266849
99.564306,3552.988522,8808.450710,-919.314598
99.564627,3627.009116,5107.421000,-1685.410096
99.564948,5625.565159,3701.029710,-919.314598
99.565268,6217.729913,5551.544565,0.000000
99.565589,5181.441594,8512.368333,76.609550
99.565910,5255.462188,10881.027347,-306.438199
99.566231,6957.935855,11473.192101,-2145.067394
99.566551,6587.832884,10584.944971,-1378.971896
99.566872,6587.832884,9622.677246,919.314598
99.567193,6735.874072,9548.656652,612.876398
99.567514,5329.482782,9548.656652,-536.266849
99.567834,3478.967927,8882.471304,-1149.143247
99.568155,3034.844362,6217.729913,-2987.772442
99.568476,3775.050304,3775.050304,-2681.334243
99.568796,4515.256246,5033.400406,0.000000
99.569117,4885.359217,9252.574275,1991.848295
99.569438,4441.235652,11917.315666,766.095498
99.569759,4219.173869,11843.295072,-459.657299
99.570079,4515.256246,9992.780217,-229.828649
99.570400,4811.338623,8512.368333,2068.457845
99.570721,3849.070898,7994.224174,1915.238745
99.571042,2960.823768,8438.347739,842.705048
99.571362,3108.864956,9770.718434,-1149.143247
99.571683,2738.761985,8882.471304,-1378.971896
99.572004,2960.823768,6883.915261,-1378.971896
99.572324,4293.194464,6809.894666,459.657299
99.572645,4441.235652,8142.265362,2068.457845
99.572966,4145.153275,8734.430116,1762.019645
99.573287,4367.215058,7328.038826,306.438199
99.573607,5625.565159,6809.894666,229.828649
99.573928,6513.812290,7698.141797,1455.581446
99.574248,6661.853478,8290.306550,1072.533697
99.574569,6439.791695,8290.306550,-1608.800546
99.574890,6217.729913,7550.100608,-3983.696590
99.575210,5773.606348,7994.224174,-3677.258390
99.575531,5773.606348,7624.121203,-842.705048
99.575852,5847.626942,6809.894666,1149.143247
99.576172,5625.565159,6513.812290,1685.410096
99.576493,4737.318029,6809.894666,919.314598
99.576814,4663.297435,6957.935855,0.000000
99.577134,4959.379811,7846.182985,1225.752797
99.577455,4737.318029,8216.285956,1608.800546
99.577776,5699.585753,7550.100608,995.924147
99.578096,6365.771101,7031.956449,-1149.143247
99.578417,4737.318029,6291.750507,-3140.991542
99.578738,4071.132681,6661.853478,-2374.896044
99.579058,3997.112087,7772.162391,383.047749
99.579379,4219.173869,9104.533087,1149.143247
99.579700,4515.256246,9622.677246,2068.457845
99.580020,4737.318029,9696.697840,689.485948
99.580341,4737.318029,9696.697840,0.000000
99.580662,4663.297435,9622.677246,842.705048
99.580982,4219.173869,8882.471304,536.266849
99.581303,4737.318029,6809.894666,-1149.143247
99.581624,5255.462188,5477.523971,-1455.581446
99.581944,5625.565159,6439.791695,-1225.752797
99.582265,5255.462188,7994.224174,-612.876398
99.582586,5255.462188,9622.677246,0.000000
99.582906,5995.668130,11177.109724,0.000000
99.583227,5403.503377,10510.924376,919.314598
99.583548,5921.647536,9400.615463,1378.971896
99.583868,5255.462188,8142.265362,689.485948
99.584189,4367.215058,7846.182985,76.609550
99.584510,3775.050304,7846.182985,-1302.362347
99.584830,3997.112087,6809.894666,-2604.724693
99.585151,4515.256246,5995.668130,-2604.724693
99.585472,5847.626942,6957.935855,-689.485948
99.585792,5995.668130,8808.450710,306.438199
99.586113,5625.565159,10066.800811,153.219100
99.586434,5477.523971,9474.636058,-459.657299
99.586754,6069.688724,8808.450710,-383.047749
99.587075,7328.038826,7772.162391,995.924147
99.587396,6587.832884,7698.141797,1762.019645
99.587716,5625.565159,7105.977043,0.000000
99.588037,5255.462188,6661.853478,-2145.067394
99.588358,4663.297435,5625.565159,-3064.381992
99.588678,4959.379811,5477.523971,-2221.676944
99.588999,7179.997637,6735.874072,919.314598
99.589320,7031.956449,8438.347739,1455.581446
99.589640,5847.626942,8660.409521,842.705048
99.589961,6587.832884,8290.306550,536.266849
99.590282,6735.874072,7698.141797,1072.533697
99.590602,6735.874072,7402.059420,1762.019645
99.590923,6809.894666,7698.141797,766.095498
99.591244,6143.709319,7994.224174,-2374.896044
99.591564,4959.379811,7550.100608,-3753.867940
99.591885,4071.132681,7179.997637,-3140.991542
99.592206,4737.318029,7402.059420,-995.924147
99.592526,4219.173869,9400.615463,1149.143247
99.592847,3256.906145,10510.924376,1915.238745
99.593168,2516.700203,9992.780217,919.314598
99.593488,3182.885551,9326.594869,1302.362347
99.593809,4145.153275,9326.594869,2911.162892
99.594130,3330.926739,9992.780217,2298.286494
99.594450,3034.844362,9030.512492,-536.266849
99.594771,3775.050304,7698.141797,-2221.676944
99.595092,3404.947333,6809.894666,-1302.362347
99.595412,3256.906145,6957.935855,459.657299
99.595733,4145.153275,7772.162391,1455.581446
99.596054,4663.297435,9326.594869,1149.143247
99.596374,4959.379811,9992.780217,766.095498
99.596695,4959.379811,8882.471304,689.485948
99.597016,6217.729913,7772.162391,842.705048
99.597336,6143.709319,8216.285956,842.705048
99.597657,5181.441594,7846.182985,76.609550
99.597978,5773.606348,6735.874072,-1991.848295
99.598298,6291.750507,5033.400406,-2987.772442
99.598619,6587.832884,4885.359217,-1838.629195
99.598940,6809.894666,6513.812290,0.000000
99.599260,6291.750507,7698.141797,383.047749
99.599581,5847.626942,8290.306550,229.828649
99.599902,5699.585753,7550.100608,153.219100
99.600222,6513.812290,6883.915261,383.047749
99.600543,6439.791695,6661.853478,995.924147
99.600864,5699.585753,7476.080014,306.438199
99.601184,4589.276840,7105.977043,-1608.800546
99.601505,5181.441594,5181.441594,-2681.334243
99.601826,5699.585753,4663.297435,-2681.334243
99.602146,5995.668130,6217.729913,-689.485948
99.602467,6069.688724,8882.471304,689.485948
99.602788,5995.668130,10732.986159,76.609550
99.603108,5699.585753,10214.842000,-536.266849
99.603429,6735.874072,8364.327145,766.095498
99.603750,7476.080014,7920.203579,2298.286494
99.604070,6365.771101,7994.224174,1762.019645
99.604391,5033.400406,8216.285956,-612.876398
99.604712,5107.421000,7254.018232,-2834.553343
99.605032,5921.647536,5551.544565,-3217.601092
99.605353,6069.688724,5847.626942,-1302.362347
99.605674,6513.812290,7550.100608,919.314598
99.605994,6069.688724,9696.697840,1378.971896
99.606315,5329.482782,10140.821405,689.485948
99.606636,5107.421000,8734.430116,0.000000
99.606956,6513.812290,8216.285956,1225.752797
99.607277,6587.832884,9178.553681,1685.410096
99.607598,5107.421000,9474.636058,0.000000
99.607918,4737.318029,8882.471304,-3064.381992
99.608239,4737.318029,6957.935855,-4213.525239
99.608560,4737.318029,6587.832884,-2068.457845
99.608880,4737.318029,7105.977043,76.609550
99.609201,4663.297435,9474.636058,1072.533697
99.609522,4071.132681,11177.109724,306.438199
99.609842,3552.988522,10362.883188,153.219100
99.610163,4071.132681,8512.368333,1302.362347
99.610484,5255.462188,7772.162391,2451.505594
99.610804,3923.091493,8882.471304,1378.971896
99.611125,2738.761985,8586.388927,-1149.143247
99.611446,3627.009116,7328.038826,-2834.553343
99.611766,3404.947333,6439.791695,-2681.334243
99.612087,3627.009116,6809.894666,0.000000
99.612408,4293.194464,8364.327145,1915.238745
99.612728,4145.153275,9696.697840,842.705048
99.613049,4071.132681,9770.718434,0.000000
99.613370,4589.276840,8290.306550,-76.609550
99.613690,5551.544565,6735.874072,689.485948
99.614011,5921.647536,8142.265362,1762.019645
99.614332,5033.400406,8956.491898,383.047749
99.614652,4515.256246,7476.080014,-2451.505594
99.614973,5699.585753,5551.544565,-3830.477490
99.615294,5625.565159,5699.585753,-2374.896044
99.615614,5329.482782,7179.997637,76.609550
99.615935,5255.462188,9252.574275,1225.752797
99.616256,4737.318029,9844.739029,536.266849
99.616576,4441.235652,8734.430116,229.828649
99.616897,6069.688724,7402.059420,1608.800546
99.617218,6069.688724,7550.100608,2911.162892
99.617538,4515.256246,8290.306550,1608.800546
99.617859,3701.029710,7624.121203,-919.314598
99.618180,4441.235652,5699.585753,-2757.943793
99.618500,5403.503377,4441.235652,-1685.410096
99.618821,5625.565159,5477.523971,229.828649
99.619142,5403.503377,8438.347739,766.095498
99.619462,5107.421000,10807.006753,76.609550
99.619783,4737.318029,10066.800811,-383.047749
99.620104,5921.647536,8142.265362,842.705048
99.620424,7105.977043,7105.977043,2451.505594
99.620745,6217.729913,8290.306550,2374.896044
99.621066,4071.132681,8808.450710,-995.924147
99.621386,4441.235652,7105.977043,-3753.867940
99.621707,5477.523971,5255.462188,-3983.696590
99.622027,6217.729913,4959.379811,-1225.752797
99.622348,6291.750507,7328.038826,1608.800546
99.622669,5995.668130,10140.821405,1838.629195
99.622989,4145.153275,10807.006753,153.219100
99.623310,4293.194464,9252.574275,-383.047749
99.623631,5921.647536,7846.182985,766.095498
99.623951,6365.771101,7772.162391,1455.581446
99.624272,5107.421000,8956.491898,0.000000
99.624593,4515.256246,8660.409521,-2604.724693
99.624913,4663.297435,6809.894666,-4213.525239
99.625234,4959.379811,5551.544565,-2757.943793
99.625555,5477.523971,6439.791695,0.000000
99.625875,5403.503377,8956.491898,1149.143247
99.626196,4737.318029,9992.780217,306.438199
99.626517,4145.153275,9326.594869,0.000000
99.626837,5477.523971,7550.100608,995.924147
99.627158,6587.832884,7402.059420,2528.115143
99.627479,5921.647536,8660.409521,1378.971896
99.627799,4293.194464,8660.409521,-1762.019645
99.628120,4515.256246,7105.977043,-4826.401637
99.628441,4959.379811,5995.668130,-3830.477490
99.628761,5403.503377,6365.771101,-766.095498
99.629082,5773.606348,8586.388927,919.314598
99.629403,4959.379811,11399.171507,76.609550
99.629723,3478.967927,12435.459826,-1532.190996
99.630044,3256.906145,10955.047942,-1302.362347
99.630365,4515.256246,9992.780217,1149.143247
99.630685,4145.153275,10510.924376,2451.505594
99.631006,2294.638420,10732.986159,1225.752797
99.631327,1480.411884,9326.594869,-1991.848295
99.631647,1480.411884,7402.059420,-3524.039291
99.631968,1480.411884,7105.977043,-1762.019645
99.632289,2146.597232,9104.533087,1532.190996
99.632609,2738.761985,11399.171507,2451.505594
99.632930,2664.741391,12139.377449,1302.362347
99.633251,2664.741391,10584.944971,919.314598
99.633571,3849.070898,8586.388927,1685.410096
99.633892,4441.235652,8364.327145,3370.820191
99.634213,3849.070898,8808.450710,1991.848295
99.634533,3627.009116,7476.080014,-1685.410096
99.634854,4885.359217,5255.462188,-3907.087040
99.635175,6217.729913,4737.318029,-2757.943793
99.635495,7105.977043,5995.668130,-459.657299
99.635816,7105.977043,8512.368333,153.219100
99.636137,6661.853478,9474.636058,-766.095498
99.636457,6365.771101,8512.368333,-1149.143247
99.636778,7105.977043,7179.997637,383.047749
99.637099,7698.141797,6291.750507,2451.505594
99.637419,7179.997637,6661.853478,1915.238745
99.637740,5551.544565,6587.832884,-995.924147
99.638061,5033.400406,4959.379811,-3677.258390
99.638381,5329.482782,3404.947333,-3753.867940
99.638702,6291.750507,3849.070898,-612.876398
99.639023,5921.647536,6513.812290,1455.581446
99.639343,5551.544565,8660.409521,1149.143247
99.639664,4737.318029,8956.491898,76.609550
99.639985,4737.318029,7624.121203,229.828649
99.640305,6439.791695,6439.791695,1991.848295
99.640626,6883.915261,7179.997637,2987.772442
99.640947,5181.441594,8438.347739,383.047749
99.641267,4589.276840,8512.368333,-3677.258390
99.641588,5773.606348,6513.812290,-4903.011187
99.641909,6143.709319,5477.523971,-2374.896044
99.642229,6883.915261,7179.997637,1072.533697
99.642550,5773.606348,10140.821405,2221.676944
99.642871,4145.153275,11473.192101,229.828649
99.643191,3404.947333,10436.903782,-1455.581446
99.643512,4737.318029,9178.553681,229.828649
99.643833,5773.606348,8956.491898,2528.115143
99.644153,4737.318029,10140.821405,2068.457845
99.644474,3034.844362,10288.862594,-1378.971896
99.644795,2738.761985,8512.368333,-3983.696590
99.645115,3108.864956,7698.141797,-2987.772442
99.645436,3775.050304,7624.121203,459.657299
99.645757,3997.112087,10140.821405,1838.629195
99.646077,3627.009116,12287.418637,842.705048
99.646398,2812.782580,12435.459826,-1149.143247
99.646719,2960.823768,9844.739029,-229.828649
99.647039,4663.297435,8586.388927,1915.238745
99.647360,4441.235652,8882.471304,2911.162892
99.647681,3182.885551,9548.656652,-459.657299
99.648001,2960.823768,8808.450710,-3983.696590
99.648322,3627.009116,7550.100608,-4826.401637
99.648643,4515.256246,6735.874072,-1225.752797
99.648963,5033.400406,7994.224174,1915.238745
99.649284,4737.318029,9918.759623,919.314598
99.649605,2960.823768,11103.089130,-612.876398
99.649925,2886.803174,9622.677246,-1225.752797
99.650246,4441.235652,8068.244768,536.266849
99.650567,5329.482782,7402.059420,2834.553343
99.650887,4219.173869,7772.162391,1455.581446
99.651208,3256.906145,7254.018232,-1608.800546
99.651529,3627.009116,6069.688724,-3217.601092
99.651849,4737.318029,5255.462188,-2681.334243
99.652170,5699.585753,5625.565159,0.000000
99.652491,6217.729913,7920.203579,1378.971896
99.652811,6069.688724,9918.759623,766.095498
99.653132,5181.441594,9030.512492,-306.438199
99.653453,6883.915261,6513.812290,0.000000
99.653773,7920.203579,5403.503377,2145.067394
99.654094,6735.874072,6661.853478,1685.410096
99.654415,5699.585753,7328.038826,-919.314598
99.654735,5847.626942,6143.709319,-3983.696590
99.655056,6439.791695,4737.318029,-3677.258390
99.655377,7920.203579,5033.400406,459.657299
99.655697,7550.100608,7031.956449,2451.505594
99.656018,5625.565159,9474.636058,842.705048
99.656339,4737.318029,9844.739029,-383.047749
99.656659,4959.379811,8290.306550,-229.828649
99.656980,6809.894666,6735.874072,1915.238745
99.657301,6735.874072,7031.956449,2911.162892
99.657621,5033.400406,8734.430116,306.438199
99.657942,3478.967927,9104.533087,-3447.429741
99.658263,4293.194464,7624.121203,-4060.306139
99.658583,5033.400406,6661.853478,-1991.848295
99.658904,5773.606348,7328.038826,1762.019645
99.659225,5329.482782,9992.780217,2757.943793
99.659545,3256.906145,11473.192101,689.485948
99.659866,2886.803174,9844.739029,-1072.533697
99.660187,4663.297435,7920.203579,153.219100
99.660507,5107.421000,6957.935855,2068.457845
99.660828,4737.318029,8216.285956,1838.629195
99.661149,3701.029710,9326.594869,-1149.143247
99.661469,3404.947333,8586.388927,-3600.648841
99.661790,4219.173869,7179.997637,-3217.601092
99.662111,5403.503377,7179.997637,0.000000
99.662431,5403.503377,8808.450710,1608.800546
99.662752,4441.235652,11103.089130,459.657299
99.663073,3108.864956,10436.903782,-919.314598
99.663393,3923.091493,8512.368333,-766.095498
99.663714,5921.647536,7328.038826,1149.143247
99.664035,5403.503377,8216.285956,1608.800546
99.664355,3701.029710,9400.615463,-919.314598
99.664676,3256.906145,8956.491898,-3524.039291
99.664997,2960.823768,7328.038826,-3830.477490
99.665317,4589.276840,6735.874072,-536.266849
99.665638,5329.482782,7994.224174,2068.457845
99.665959,4589.276840,9918.759623,1149.143247
99.666279,3034.844362,10584.944971,-1072.533697
99.666600,3923.091493,9178.553681,-1225.752797
99.666921,5847.626942,7254.018232,919.314598
99.667241,6291.750507,7105.977043,2987.772442
99.667562,5033.400406,8216.285956,1762.019645
99.667883,4515.256246,8364.327145,-2451.505594
99.668203,4293.194464,7772.162391,-4826.401637
99.668524,4885.359217,6513.812290,-2681.334243
99.668845,6883.915261,7105.977043,612.876398
99.669165,6735.874072,8882.471304,2145.067394
99.669486,5181.441594,10658.965565,689.485948
99.669807,4515.256246,9844.739029,-459.657299
99.670127,5551.544565,8290.306550,229.828649
99.670448,6661.853478,6809.894666,2145.067394
99.670768,6143.709319,7328.038826,2068.457845
99.671089,5403.503377,7920.203579,-383.047749
99.671410,5107.421000,6883.915261,-3217.601092
99.671730,5773.606348,5477.523971,-2528.115143
99.672051,6883.915261,5403.503377,459.657299
99.672372,7179.997637,6957.935855,2374.896044
99.672692,6661.853478,8808.450710,1915.238745
99.673013,5329.482782,8882.471304,-153.219100
99.673334,5921.647536,7105.977043,-229.828649
99.673655,7179.997637,6143.709319,1608.800546
99.673975,7550.100608,6587.832884,1762.019645
99.674296,6587.832884,6587.832884,-536.266849
99.674617,5995.668130,6957.935855,-3294.210641
99.674937,6217.729913,6069.688724,-3217.601092
99.675258,6513.812290,5773.606348,-995.924147
99.675579,7031.956449,6809.894666,2068.457845
99.675899,6143.709319,8586.388927,1225.752797
99.676220,3997.112087,9622.677246,0.000000
99.676541,3404.947333,8364.327145,-383.047749
99.676861,4219.173869,6143.709319,1302.362347
99.677182,5551.544565,6217.729913,2681.334243
99.677503,4885.359217,8660.409521,1532.190996
99.677823,2960.823768,9252.574275,-1762.019645
99.678144,3034.844362,8512.368333,-4136.915689
99.678465,3552.988522,7105.977043,-1915.238745
99.678785,4737.318029,7105.977043,1302.362347
99.679106,4737.318029,8290.306550,2451.505594
99.679427,3182.885551,10214.842000,842.705048
99.679747,2664.741391,10732.986159,-1149.143247
99.680068,4071.132681,8882.471304,-536.266849
99.680389,5921.647536,7698.141797,1149.143247
99.680709,5995.668130,8512.368333,1455.581446
99.681030,4885.359217,9178.553681,-536.266849
99.681351,4071.132681,8586.388927,-3217.601092
99.681671,4515.256246,6957.935855,-3140.991542
99.681992,5699.585753,7105.977043,-919.314598
99.682313,6587.832884,8660.409521,1072.533697
99.682633,5625.565159,10955.047942,689.485948
99.682954,3923.091493,11547.212695,-919.314598
99.683275,4441.235652,9474.636058,-766.095498
99.683595,5773.606348,7772.162391,1532.190996
99.683916,5181.441594,7624.121203,2451.505594
99.684237,3849.070898,8734.430116,842.705048
99.684557,2960.823768,9030.512492,-2528.115143
99.684878,3182.885551,7920.203579,-3370.820191
99.685199,4811.338623,7105.977043,-689.485948
99.685519,5551.544565,7994.224174,1532.190996
99.685840,5329.482782,9548.656652,1838.629195
99.686161,4071.132681,10584.944971,383.047749
99.686481,3701.029710,8882.471304,-536.266849
99.686802,5773.606348,6439.791695,995.924147
99.687123,6661.853478,6217.729913,2221.676944
99.687443,5551.544565,7105.977043,1072.533697
99.687764,5403.503377,7550.100608,-2298.286494
99.688085,5329.482782,7179.997637,-3907.087040
99.688405,6587.832884,5699.585753,-2604.724693
99.688726,7550.100608,5329.482782,0.000000
99.689047,7698.141797,7105.977043,1455.581446
99.689367,5995.668130,8438.347739,612.876398
99.689688,4885.359217,7994.224174,-459.657299
99.690009,6217.729913,5847.626942,-612.876398
99.690329,7476.080014,5699.585753,1378.971896
99.690650,7624.121203,6513.812290,1455.581446
99.690971,6069.688724,7624.121203,-1302.362347
99.691291,5181.441594,7994.224174,-3830.477490
99.691612,5551.544565,6143.709319,-3294.210641
99.691933,6587.832884,5181.441594,-766.095498
99.692253,7031.956449,6217.729913,1685.410096
99.692574,5403.503377,8512.368333,1378.971896
99.692895,3775.050304,9326.594869,-842.705048
99.693215,4441.235652,8660.409521,-459.657299
99.693536,5403.503377,7328.038826,919.314598
99.693857,6513.812290,7328.038826,2528.115143
99.694177,5847.626942,8734.430116,1225.752797
99.694498,4145.153275,8956.491898,-2374.896044
99.694819,3627.009116,7624.121203,-3907.087040
99.695139,4959.379811,6513.812290,-1455.581446
99.695460,6143.709319,6957.935855,1225.752797
99.695781,5773.606348,9178.553681,2221.676944
99.696101,4071.132681,11251.130318,536.266849
99.696422,2886.803174,10584.944971,-1149.143247
99.696743,3997.112087,8882.471304,306.438199
99.697063,5551.544565,7994.224174,2681.334243
99.697384,4737.318029,8808.450710,2145.067394
99.697705,3775.050304,9696.697840,-995.924147
99.698025,3330.926739,9696.697840,-3830.477490
99.698346,2812.782580,8364.327145,-3140.991542
99.698667,4071.132681,7698.141797,76.609550
99.698987,4737.318029,8512.368333,2298.286494
99.699308,3552.988522,10362.883188,1378.971896
99.699629,2368.659014,11177.109724,-153.219100
99.699949,3404.947333,9400.615463,0.000000
99.700270,4663.297435,7624.121203,1302.362347
99.700591,4885.359217,7476.080014,1838.629195
99.700911,4367.215058,7476.080014,-306.438199
99.701232,3701.029710,7476.080014,-2834.553343
99.701553,4663.297435,6587.832884,-3370.820191
99.701873,5403.503377,5921.647536,-1532.190996
99.702194,6439.791695,6587.832884,306.438199
99.702515,6883.915261,8808.450710,1991.848295
99.702835,4589.276840,10140.821405,0.000000
99.703156,5107.421000,8882.471304,-612.876398
99.703477,6735.874072,7179.997637,153.219100
99.703797,6513.812290,6513.812290,1532.190996
99.704118,6143.709319,6661.853478,383.047749
99.704439,5033.400406,7105.977043,-1838.629195
99.704759,4663.297435,6661.853478,-3907.087040
99.705080,5255.462188,5847.626942,-2528.115143
99.705401,6069.688724,6439.791695,459.657299
99.705721,5847.626942,7920.203579,2451.505594
99.706042,4959.379811,9918.759623,1608.800546
99.706363,4441.235652,8882.471304,-76.609550
99.706683,5403.503377,7846.182985,-306.438199
99.707004,6513.812290,7624.121203,1225.752797
99.707325,5181.441594,7772.162391,1225.752797
99.707645,4589.276840,8512.368333,-689.485948
99.707966,4145.153275,8364.327145,-2451.505594
99.708287,4441.235652,7402.059420,-2528.115143
99.708607,5107.421000,7328.038826,-536.266849
99.708928,5403.503377,8882.471304,1455.581446
99.709249,4071.132681,10807.006753,995.924147
99.709569,3404.947333,10807.006753,153.219100
99.709890,3849.070898,9696.697840,229.828649
99.710211,5181.441594,7698.141797,1838.629195
99.710531,4737.318029,8142.265362,2451.505594
99.710852,4145.153275,8734.430116,229.828649
99.711173,3404.947333,8882.471304,-2451.505594
99.711494,4071.132681,7476.080014,-2604.724693
99.711814,4959.379811,6439.791695,-995.924147
99.712135,6291.750507,7105.977043,919.314598
99.712456,5847.626942,9030.512492,1302.362347
99.712776,4441.235652,11547.212695,-153.219100
99.713097,4145.153275,9548.656652,-1532.190996
99.713418,6143.709319,7772.162391,-229.828649
99.713738,6513.812290,6513.812290,1149.143247
99.714059,5477.523971,7179.997637,1302.362347
99.714380,4441.235652,8290.306550,-1532.190996
99.714700,4145.153275,7846.182985,-3907.087040
99.715021,4219.173869,6587.832884,-3753.867940
99.715342,5773.606348,6365.771101,-842.705048
99.715662,6217.729913,7772.162391,1378.971896
99.715983,4811.338623,9918.759623,919.314598
99.716304,3256.906145,10436.903782,0.000000
99.716624,3923.091493,9104.533087,-383.047749
99.716945,4885.359217,7328.038826,1225.752797
99.717266,4737.318029,7031.956449,2221.676944
99.717586,4145.153275,7698.141797,0.000000
99.717907,3552.988522,8142.265362,-2757.943793
99.718228,3701.029710,7105.977043,-3140.991542
99.718548,4959.379811,6883.915261,-1838.629195
99.718869,6439.791695,7920.203579,766.095498
99.719190,6365.771101,9696.697840,1455.581446
99.719510,5255.462188,10214.842000,536.266849
99.719831,5033.400406,9696.697840,0.000000
99.720152,6217.729913,7624.121203,842.705048
99.720472,6735.874072,7179.997637,1762.019645
99.720793,5995.668130,7698.141797,459.657299
99.721114,5107.421000,7920.203579,-2374.896044
99.721434,5033.400406,7328.038826,-3677.258390
99.721755,5477.523971,6513.812290,-2451.505594
99.722076,5995.668130,6957.935855,306.438199
99.722396,6587.832884,8734.430116,2374.896044
99.722717,5033.400406,10066.800811,1838.629195
99.723038,4367.215058,9474.636058,-229.828649
99.723358,4811.338623,7994.224174,-306.438199
99.723679,6291.750507,6809.894666,1762.019645
99.724000,5329.482782,7402.059420,1685.410096
99.724320,4441.235652,8216.285956,-612.876398
99.724641,3701.029710,7624.121203,-3064.381992
99.724962,4145.153275,6735.874072,-2911.162892
99.725282,4663.297435,6883.915261,-383.047749
99.725603,5181.441594,8290.306550,1149.143247
99.725924,4367.215058,10140.821405,1072.533697
99.726244,3552.988522,10732.986159,229.828649
99.726565,3997.112087,9178.553681,229.828649
99.726886,4737.318029,7105.977043,1762.019645
99.727206,4293.194464,7476.080014,1915.238745
99.727527,3330.926739,8068.244768,0.000000
99.727848,2664.741391,8216.285956,-2451.505594
99.728168,3108.864956,7105.977043,-2834.553343
99.728489,3849.070898,6069.688724,-1455.581446
99.728810,4885.359217,7105.977043,1072.533697
99.729130,4885.359217,9474.636058,2221.676944
99.729451,3627.009116,11251.130318,612.876398
99.729772,3627.009116,10140.821405,-766.095498
99.730092,4959.379811,8512.368333,76.609550
99.730413,5625.565159,7328.038826,1762.019645
99.730734,5033.400406,7624.121203,1302.362347
99.731054,3701.029710,8216.285956,-1685.410096
99.731375,3108.864956,7254.018232,-3753.867940
99.731696,3997.112087,7550.100608,-2987.772442
99.732016,4737.318029,7994.224174,-919.314598
99.732337,4959.379811,9400.615463,1378.971896
99.732658,4663.297435,11177.109724,1762.019645
99.732978,3404.947333,11177.109724,306.438199
99.733299,4663.297435,8512.368333,536.266849
99.733620,5403.503377,6809.894666,2068.457845
99.733940,4367.215058,6735.874072,2298.286494
99.734261,3701.029710,7920.203579,153.219100
99.734582,4293.194464,8142.265362,-1915.238745
99.734902,4737.318029,6957.935855,-3447.429741
99.735223,6661.853478,6661.853478,-1838.629195
99.735544,7550.100608,7846.182985,842.705048
99.735864,6217.729913,9548.656652,1302.362347
99.736185,5033.400406,9770.718434,766.095498
99.736506,5773.606348,8882.471304,459.657299
99.736826,6883.915261,7179.997637,766.095498
99.737147,6883.915261,6883.915261,1685.410096
99.737468,5773.606348,7105.977043,0.000000
99.737788,5033.400406,6957.935855,-2068.457845
99.738109,4885.359217,6143.709319,-2757.943793
99.738430,5773.606348,5329.482782,-1915.238745
99.738750,6587.832884,6365.771101,0.000000
99.739071,6809.894666,8216.285956,842.705048
99.739392,5699.585753,9696.697840,153.219100
99.739712,5551.544565,9178.553681,0.000000
99.740033,6513.812290,7550.100608,76.609550
99.740354,7254.018232,6439.791695,1149.143247
99.740674,6217.729913,6957.935855,153.219100
99.740995,5403.503377,7328.038826,-2298.286494
99.741316,4737.318029,6883.915261,-3753.867940
99.741636,5255.462188,5921.647536,-3370.820191
99.741957,5847.626942,6365.771101,-995.924147
99.742278,5995.668130,8512.368333,842.705048
99.742598,5033.400406,10732.986159,766.095498
99.742919,4293.194464,10955.047942,0.000000
99.743240,4367.215058,8882.471304,76.609550
99.743560,5033.400406,7772.162391,1378.971896
99.743881,4663.297435,7846.182985,2374.896044
99.744202,3701.029710,8586.388927,536.266849
99.744522,3182.885551,9178.553681,-1838.629195
99.744843,2664.741391,8216.285956,-3524.039291
99.745164,4367.215058,7328.038826,-1915.238745
99.745484,5329.482782,8512.368333,229.828649
99.745805,4367.215058,10288.862594,1838.629195
99.746126,3775.050304,11399.171507,1455.581446
99.746446,4145.153275,10510.924376,995.924147
99.746767,4737.318029,8512.368333,1455.581446
99.747088,5181.441594,7328.038826,2221.676944
99.747408,4515.256246,8068.244768,766.095498
99.747729,3923.091493,7994.224174,-2298.286494
99.748050,4441.235652,7846.182985,-3294.210641
99.748370,5033.400406,6883.915261,-2145.067394
99.748691,5625.565159,7105.977043,-153.219100
99.749012,5921.647536,8882.471304,919.314598
99.749333,4145.153275,10584.944971,995.924147
99.749653,3849.070898,10436.903782,0.000000
99.749974,5107.421000,8290.306550,919.314598
99.750295,6069.688724,6957.935855,2068.457845
99.750615,5699.585753,7031.956449,1608.800546
99.750936,4145.153275,7476.080014,-766.095498
99.751257,3552.988522,7105.977043,-2834.553343
99.751577,3775.050304,6365.771101,-2834.553343
99.751898,5329.482782,6143.709319,-842.705048
99.752219,5921.647536,7328.038826,1378.971896
99.752539,4885.359217,9178.553681,2374.896044
99.752860,4515.256246,10140.821405,1225.752797
99.753181,4885.359217,9030.512492,689.485948
99.753501,5847.626942,6587.832884,1532.190996
99.753822,6217.729913,5625.565159,1378.971896
99.754143,5403.503377,6143.709319,0.000000
99.754463,4959.379811,6291.750507,-1685.410096
99.754784,5403.503377,6217.729913,-3064.381992
99.755105,6143.709319,5477.523971,-2911.162892
99.755425,6957.935855,6587.832884,0.000000
99.755746,6587.832884,8142.265362,1225.752797
99.756067,5773.606348,9992.780217,842.705048
99.756387,6143.709319,9770.718434,0.000000
99.756708,7105.977043,8734.430116,229.828649
99.757029,7402.059420,7105.977043,306.438199
99.757349,6291.750507,6957.935855,0.000000
99.757670,5033.400406,6365.771101,-1302.362347
99.757991,4589.276840,6143.709319,-2451.505594
99.758311,4737.318029,6069.688724,-2451.505594
99.758632,5847.626942,6809.894666,-1149.143247
99.758953,5773.606348,9474.636058,612.876398
99.759273,5403.503377,11177.109724,1149.143247
99.759594,5107.421000,11399.171507,536.266849
99.759915,5255.462188,9474.636058,1302.362347
99.760235,5033.400406,7846.182985,1455.581446
99.760556,4441.235652,7476.080014,1072.533697
99.760877,3849.070898,8290.306550,-76.609550
99.761197,3552.988522,8290.306550,-2145.067394
99.761518,3923.091493,8216.285956,-2911.162892
99.761839,4959.379811,7920.203579,-2068.457845
99.762159,4959.379811,8734.430116,0.000000
99.762480,4145.153275,10362.883188,1378.971896
99.762801,3775.050304,10584.944971,1455.581446
99.763121,4145.153275,9844.739029,612.876398
99.763442,4589.276840,8734.430116,1455.581446
99.763763,4737.318029,7994.224174,1149.143247
99.764083,4441.235652,8142.265362,-612.876398
99.764404,4145.153275,8290.306550,-1991.848295
99.764725,3775.050304,7328.038826,-2681.334243
99.765045,4145.153275,6143.709319,-2757.943793
99.765366,5107.421000,7179.997637,-842.705048
99.765687,5033.400406,9104.533087,612.876398
99.766007,4441.235652,10436.903782,1991.848295
99.766328,4515.256246,10140.821405,76.609550
99.766649,5255.462188,7920.203579,383.047749
99.766969,5773.606348,7105.977043,1149.143247
99.767290,4885.359217,7031.956449,995.924147
99.767611,4663.297435,7031.956449,-842.705048
99.767931,4885.359217,7031.956449,-2374.896044
99.768252,4885.359217,6069.688724,-2681.334243
99.768573,5551.544565,5773.606348,-1225.752797
99.768893,6513.812290,7105.977043,536.266849
99.769214,6069.688724,8882.471304,1302.362347
99.769535,5551.544565,9622.677246,1072.533697
99.769855,6365.771101,8364.327145,0.000000
99.770176,7105.977043,7105.977043,612.876398
99.770497,7031.956449,6217.729913,1838.629195
99.770817,6069.688724,6217.729913,306.438199
99.771138,5625.565159,5625.565159,-1532.190996
99.771459,5995.668130,6439.791695,-2298.286494
99.771779,6143.709319,6735.874072,-1991.848295
99.772100,6513.812290,7328.038826,-612.876398
99.772421,6513.812290,8734.430116,842.705048
99.772741,5255.462188,9474.636058,1302.362347
99.773062,4959.379811,9474.636058,1378.971896
99.773383,5403.503377,8438.347739,919.314598
99.773703,5329.482782,7476.080014,919.314598
99.774024,4885.359217,7179.997637,459.657299
99.774345,4737.318029,7476.080014,-612.876398
99.774665,3923.091493,6957.935855,-2374.896044
99.774988,3849.070898,6809.894666,-2681.334243
99.775308,4811.338623,7920.203579,-995.924147
99.775629,5107.421000,9474.636058,689.485948
99.775950,4441.235652,10436.903782,1455.581446
99.776271,4145.153275,10288.862594,612.876398
99.776592,4367.215058,9326.594869,995.924147
99.776913,4811.338623,8586.388927,1378.971896
99.777234,4663.297435,7698.141797,919.314598
99.777555,3701.029710,7254.018232,-612.876398
99.777875,4145.153275,7328.038826,-2221.676944
99.778196,3923.091493,7254.018232,-3217.601092
99.778517,3923.091493,7105.977043,-2451.505594
99.778838,5033.400406,7920.203579,-536.266849
99.779159,5329.482782,9252.574275,536.266849
99.779480,4589.276840,9844.739029,1149.143247
99.779801,4663.297435,9844.739029,1302.362347
99.780122,4959.379811,8512.368333,153.219100
99.780442,4811.338623,8068.244768,0.000000
99.780763,4663.297435,8068.244768,-536.266849
99.781084,4071.132681,8068.244768,-2145.067394
99.781405,4367.215058,7402.059420,-2681.334243
99.781726,4145.153275,6883.915261,-2451.505594
99.782047,4515.256246,7402.059420,-1455.581446
99.782368,4737.318029,9104.533087,383.047749
99.782688,4515.256246,10510.924376,919.314598
99.783009,4515.256246,10584.944971,383.047749
99.783330,5403.503377,9400.615463,689.485948
99.783651,5773.606348,7994.224174,2068.457845
99.783972,4959.379811,7402.059420,1149.143247
99.784293,4441.235652,7105.977043,-229.828649
99.784614,4441.235652,6735.874072,-1532.190996
99.784935,4885.359217,6661.853478,-2298.286494
99.785255,5403.503377,6957.935855,-1532.190996
99.785576,6513.812290,8290.306550,0.000000
99.785897,6661.853478,9622.677246,1685.410096
99.786218,6365.771101,10140.821405,1378.971896
99.786539,5995.668130,8956.491898,612.876398
99.786860,6957.935855,7105.977043,536.266849
99.787181,6143.709319,6439.791695,1149.143247
99.787502,6143.709319,6513.812290,306.438199
99.787822,5995.668130,6735.874072,-1685.410096
99.788143,5699.585753,6439.791695,-2911.162892
99.788464,5921.647536,6365.771101,-2374.896044
99.788785,5995.668130,7254.018232,-995.924147
99.789106,6069.688724,8438.347739,1378.971896
99.789427,5625.565159,8956.491898,1685.410096
99.789748,4811.338623,8808.450710,1072.533697
99.790069,5403.503377,7476.080014,1072.533697
99.790389,4811.338623,7105.977043,1378.971896
99.790710,4441.235652,7254.018232,0.000000
99.791031,4293.194464,7105.977043,-1608.800546
99.791352,3997.112087,6587.832884,-2145.067394
99.791673,4515.256246,6587.832884,-2298.286494
99.791994,4811.338623,7031.956449,-995.924147
99.792315,4737.318029,8438.347739,612.876398
99.792636,4441.235652,10214.842000,1302.362347
99.792956,4293.194464,10066.800811,995.924147
99.793277,4441.235652,8808.450710,919.314598
99.793598,5255.462188,7846.182985,1302.362347
99.793919,4589.276840,7698.141797,995.924147
99.794240,3923.091493,8364.327145,-1149.143247
99.794561,3552.988522,7994.224174,-2451.505594
99.794882,3923.091493,7179.997637,-2451.505594
99.795203,4441.235652,7031.956449,-1149.143247
99.795523,4589.276840,8068.244768,76.609550
99.795844,4145.153275,9696.697840,766.095498
99.796165,3478.967927,11177.109724,459.657299
99.796486,3849.070898,10510.924376,306.438199
99.796807,5107.421000,8956.491898,842.705048
99.797128,4737.318029,8882.471304,1225.752797
99.797449,4145.153275,8660.409521,0.000000
99.797769,3404.947333,8734.430116,-1762.019645
99.798090,3478.967927,7994.224174,-2604.724693
99.798411,3997.112087,7179.997637,-2451.505594
99.798732,4885.359217,8364.327145,-766.095498
99.799053,5033.400406,9844.739029,995.924147
99.799374,4441.235652,10881.027347,1532.190996
99.799695,4663.297435,10288.862594,995.924147
99.800016,5255.462188,8364.327145,919.314598
99.800336,5847.626942,7105.977043,1532.190996
99.800657,5033.400406,7179.997637,842.705048
99.800978,4885.359217,7772.162391,-766.095498
99.801299,5255.462188,7179.997637,-2451.505594
99.801620,5107.421000,6883.915261,-2604.724693
99.801941,5625.565159,6365.771101,-1991.848295
99.802262,6143.709319,7550.100608,0.000000
99.802583,5773.606348,9770.718434,842.705048
99.802903,5847.626942,9696.697840,995.924147
99.803224,5995.668130,7772.162391,842.705048
99.803545,6217.729913,7254.018232,919.314598
99.803866,5625.565159,7179.997637,1072.533697
99.804187,4737.318029,7254.018232,-612.876398
99.804508,4293.194464,6661.853478,-2068.457845
99.804829,4959.379811,5921.647536,-2757.943793
99.805150,5403.503377,5477.523971,-1838.629195
99.805470,5625.565159,6661.853478,-76.609550
99.805791,5329.482782,8956.491898,1149.143247
99.806112,4885.359217,9918.759623,1608.800546
99.806433,5625.565159,9252.574275,995.924147
99.806754,5921.647536,7254.018232,1225.752797
99.807075,5921.647536,6735.874072,1149.143247
99.807396,5181.441594,7179.997637,-229.828649
99.807717,4737.318029,7994.224174,-1685.410096
99.808037,4515.256246,6513.812290,-3140.991542
99.808358,5329.482782,5921.647536,-2757.943793
99.808679,5773.606348,6513.812290,-536.266849
99.809000,5773.606348,9326.594869,995.924147
99.809321,4737.318029,10807.006753,612.876398
99.809642,4515.256246,10584.944971,76.609550
99.809963,5329.482782,9326.594869,766.095498
99.810284,5921.647536,8438.347739,1838.629195
99.810604,4145.153275,7994.224174,1225.752797
99.810925,4145.153275,8142.265362,-612.876398
99.811246,3849.070898,7550.100608,-1762.019645
99.811567,3775.050304,7105.977043,-2757.943793
99.811888,4959.379811,6587.832884,-1762.019645
99.812209,5181.441594,8438.347739,229.828649
99.812530,4589.276840,10362.883188,1762.019645
99.812850,4293.194464,11769.274478,1991.848295
99.813171,4367.215058,9992.780217,689.485948
99.813492,4589.276840,7846.182985,76.609550
99.813813,5181.441594,7772.162391,919.314598
99.814134,4515.256246,8586.388927,0.000000
99.814455,3775.050304,8438.347739,-2068.457845
99.814776,3923.091493,7328.038826,-2681.334243
99.815097,4663.297435,7105.977043,-2145.067394
99.815417,4589.276840,8216.285956,0.000000
99.815738,3997.112087,9474.636058,1915.238745
99.816059,3775.050304,10362.883188,1149.143247
99.816380,4071.132681,9696.697840,766.095498
99.816701,5477.523971,9104.533087,1532.190996
99.817022,4885.359217,8216.285956,1225.752797
99.817343,3849.070898,7698.141797,306.438199
99.817664,3923.091493,7402.059420,-995.924147
99.817984,3849.070898,6809.894666,-2145.067394
99.818305,4663.297435,6217.729913,-2757.943793
99.818626,5329.482782,6883.915261,-1149.143247
99.818947,5625.565159,8586.388927,76.609550
99.819268,5551.544565,10288.862594,919.314598
99.819589,4885.359217,10288.862594,766.095498
99.819910,5477.523971,8512.368333,459.657299
99.820231,6143.709319,6735.874072,1302.362347
99.820551,5625.565159,6291.750507,1608.800546
99.820872,5403.503377,6291.750507,0.000000
99.821193,5477.523971,6365.771101,-1685.410096
99.821514,5181.441594,6291.750507,-2528.115143
99.821835,5773.606348,6439.791695,-2068.457845
99.822156,6291.750507,6883.915261,-306.438199
99.822477,6217.729913,8808.450710,995.924147
99.822798,5551.544565,9770.718434,1225.752797
99.823118,6217.729913,9400.615463,612.876398
99.823439,6587.832884,8364.327145,536.266849
99.823760,5551.544565,7402.059420,766.095498
99.824081,4737.318029,7624.121203,0.000000
99.824402,4737.318029,7402.059420,-842.705048
99.824723,4811.338623,6809.894666,-1991.848295
99.825044,4811.338623,6809.894666,-2451.505594
99.825365,4885.359217,7031.956449,-1532.190996
99.825685,4885.359217,8586.388927,842.705048
99.826006,4811.338623,10066.800811,2145.067394
99.826327,4293.194464,10066.800811,2298.286494
99.826648,4885.359217,8882.471304,995.924147
99.826969,5847.626942,7624.121203,1455.581446
99.827290,5107.421000,7476.080014,1149.143247
99.827611,4515.256246,7698.141797,-612.876398
99.827931,4441.235652,7624.121203,-2451.505594
99.828252,4737.318029,7328.038826,-2604.724693
99.828573,5033.400406,7254.018232,-1915.238745
99.828894,5033.400406,8142.265362,-76.609550
99.829215,4737.318029,9548.656652,612.876398
99.829536,4589.276840,10807.006753,383.047749
99.829857,5107.421000,10510.924376,459.657299
99.830178,5625.565159,8586.388927,766.095498
99.830498,5033.400406,7698.141797,689.485948
99.830819,4441.235652,7846.182985,-306.438199
99.831140,3923.091493,7550.100608,-1991.848295
99.831461,3997.112087,7031.956449,-2451.505594
99.831782,4219.173869,6957.935855,-2451.505594
99.832103,4885.359217,7402.059420,-842.705048
99.832424,5847.626942,8660.409521,766.095498
99.832745,5255.462188,10807.006753,1225.752797
99.833065,4959.379811,10362.883188,842.705048
99.833386,5255.462188,8882.471304,919.314598
99.833707,5921.647536,7105.977043,1225.752797
99.834028,5773.606348,6883.915261,1225.752797
99.834349,5255.462188,7179.997637,0.000000
99.834670,5033.400406,6587.832884,-1838.629195
99.834991,5847.626942,6809.894666,-3140.991542
99.835312,6217.729913,6661.853478,-2145.067394
99.835632,6439.791695,7772.162391,0.000000
99.835953,6587.832884,8956.491898,1149.143247
99.836274,5847.626942,9696.697840,2221.676944
99.836595,4959.379811,8734.430116,1225.752797
99.836916,5551.544565,6957.935855,1378.971896
99.837237,5255.462188,6735.874072,1225.752797
99.837558,4441.235652,6735.874072,-383.047749
99.837879,4737.318029,6587.832884,-1608.800546
99.838199,5625.565159,6365.771101,-2451.505594
99.838520,5255.462188,6069.688724,-2451.505594
99.838841,6217.729913,7550.100608,-383.047749
99.839162,5329.482782,8734.430116,842.705048
99.839483,4737.318029,9474.636058,766.095498
99.839804,5625.565159,9474.636058,1149.143247
99.840125,6217.729913,8512.368333,1072.533697
99.840446,5921.647536,7476.080014,1149.143247
99.840766,5107.421000,7624.121203,153.219100
99.841087,3923.091493,7698.141797,-1762.019645
99.841408,3849.070898,6735.874072,-2451.505594
99.841729,4663.297435,6365.771101,-1762.019645
99.842050,4589.276840,6735.874072,-1225.752797
99.842371,4367.215058,8290.306550,536.266849
99.842692,4145.153275,10584.944971,1608.800546
99.843012,4219.173869,10955.047942,1608.800546
99.843333,4441.235652,9252.574275,1149.143247
99.843654,5329.482782,7550.100608,1072.533697
99.843975,4441.235652,7402.059420,766.095498
99.844296,3775.050304,7846.182985,-536.266849
99.844617,3330.926739,7846.182985,-2068.457845
99.844938,3627.009116,7476.080014,-3140.991542
99.845259,4589.276840,7254.018232,-2451.505594
99.845579,5329.482782,8068.244768,-689.485948
99.845900,4959.379811,9548.656652,689.485948
99.846221,4737.318029,10881.027347,1149.143247
99.846542,5033.400406,10436.903782,995.924147
99.846863,5699.585753,8364.327145,459.657299
99.847184,5773.606348,7772.162391,1149.143247
99.847505,5625.565159,7476.080014,536.266849
99.847826,5255.462188,7179.997637,-1532.190996
99.848146,4663.297435,6587.832884,-3064.381992
99.848467,5255.462188,6513.812290,-2604.724693
99.848788,6291.750507,7179.997637,-1225.752797
99.849109,6217.729913,8660.409521,842.705048
99.849430,5329.482782,10288.862594,1838.629195
99.849751,5551.544565,10288.862594,1225.752797
99.850072,5329.482782,8660.409521,1455.581446
99.850393,5625.565159,7254.018232,995.924147
99.850713,5847.626942,6883.915261,689.485948
99.851034,5329.482782,7328.038826,-1149.143247
99.851355,4959.379811,7105.977043,-2604.724693
99.851676,5403.503377,6957.935855,-2298.286494
99.851997,6291.750507,6883.915261,-1608.800546
99.852318,5921.647536,7920.203579,383.047749
99.852639,5255.462188,9622.677246,1532.190996
99.852960,5329.482782,10288.862594,1302.362347
99.853280,5551.544565,9474.636058,1225.752797
99.853601,6365.771101,7550.100608,995.924147
99.853922,5773.606348,6365.771101,689.485948
99.854243,5255.462188,6143.709319,0.000000
99.854564,4663.297435,5921.647536,-1532.190996
99.854885,4959.379811,5329.482782,-2757.943793
99.855206,5551.544565,5847.626942,-2221.676944
99.855526,6365.771101,7402.059420,-842.705048
99.855847,6069.688724,9400.615463,229.828649
99.856168,5773.606348,10510.924376,1225.752797
99.856489,5699.585753,9400.615463,1149.143247
99.856810,5551.544565,7772.162391,995.924147
99.857131,5329.482782,7105.977043,842.705048
99.857452,4589.276840,7179.997637,-306.438199
99.857773,3997.112087,7772.162391,-1991.848295
99.858093,4515.256246,7402.059420,-2757.943793
99.858414,4737.318029,7105.977043,-2528.115143
99.858735,4663.297435,7402.059420,-995.924147
99.859056,4367.215058,9030.512492,1149.143247
99.859377,3701.029710,10955.047942,1838.629195
99.859698,3478.967927,10732.986159,2145.067394
99.860019,4219.173869,8808.450710,1532.190996
99.860340,4737.318029,7920.203579,1378.971896
99.860660,4219.173869,7846.182985,1072.533697
99.860981,3108.864956,7624.121203,-919.314598
99.861302,3404.947333,7402.059420,-1915.238745
99.861623,4071.132681,7328.038826,-2298.286494
99.861944,4219.173869,7550.100608,-1991.848295
99.862265,5255.462188,8660.409521,-459.657299
99.862586,5033.400406,10510.924376,842.705048
99.862907,4737.318029,11251.130318,842.705048
99.863227,4959.379811,10140.821405,1302.362347
99.863548,5033.400406,8808.450710,1225.752797
99.863869,4589.276840,7920.203579,995.924147
99.864190,4515.256246,7994.224174,-383.047749
99.864511,3701.029710,7476.080014,-2451.505594
99.864832,3701.029710,7105.977043,-3140.991542
99.865153,4589.276840,7105.977043,-1762.019645
99.865474,5181.441594,7920.203579,-306.438199
99.865794,4959.379811,8956.491898,1378.971896
99.866115,4737.318029,10288.862594,1991.848295
99.866436,4367.215058,10436.903782,1072.533697
99.866757,4663.297435,9326.594869,919.314598
99.867078,5181.441594,8216.285956,842.705048
99.867399,5255.462188,6587.832884,689.485948
99.867720,4885.359217,5625.565159,-306.438199
99.868041,4737.318029,5847.626942,-1455.581446
99.868361,5181.441594,5773.606348,-2298.286494
99.868682,5699.585753,6587.832884,-2221.676944
99.869003,6661.853478,7698.141797,-612.876398
99.869324,7179.997637,9252.574275,536.266849
99.869645,6735.874072,9844.739029,842.705048
99.869966,7031.956449,9104.533087,766.095498
99.870287,6661.853478,7254.018232,766.095498
99.870607,5625.565159,6661.853478,153.219100
99.870928,4885.359217,6217.729913,-995.924147
99.871249,5033.400406,5921.647536,-1915.238745
99.871570,5329.482782,6291.750507,-2911.162892
99.871891,5477.523971,7105.977043,-2604.724693
99.872212,5847.626942,8216.285956,-1302.362347
99.872533,5995.668130,9474.636058,842.705048
99.872854,5403.503377,9992.780217,1762.019645
99.873174,4737.318029,9696.697840,1685.410096
99.873495,4737.318029,8142.265362,1762.019645
99.873816,4737.318029,7402.059420,1762.019645
99.874137,4589.276840,7328.038826,842.705048
99.874458,3923.091493,7179.997637,-1608.800546
99.874779,4441.235652,7179.997637,-2911.162892
99.875099,4145.153275,7328.038826,-2528.115143
99.875420,4071.132681,8290.306550,-1455.581446
99.875741,4663.297435,9326.594869,612.876398
99.876062,4589.276840,10658.965565,1762.019645
99.876383,4885.359217,11103.089130,1838.629195
99.876703,4885.359217,9622.677246,919.314598
99.877024,4589.276840,8364.327145,766.095498
99.877345,4737.318029,7994.224174,76.609550
99.877666,4293.194464,7254.018232,-1149.143247
99.877986,4219.173869,6809.894666,-1991.848295
99.878307,4589.276840,6513.812290,-2451.505594
99.878628,4663.297435,7179.997637,-1915.238745
99.878949,4663.297435,8216.285956,-459.657299
99.879270,4737.318029,10288.862594,766.095498
99.879590,5107.421000,10584.944971,1838.629195
99.879911,5477.523971,9696.697840,995.924147
99.880232,6291.750507,8438.347739,689.485948
99.880553,5699.585753,7624.121203,306.438199
99.880873,4737.318029,7328.038826,-306.438199
99.881194,4515.256246,7328.038826,-1532.190996
99.881515,4589.276840,6957.935855,-2604.724693
99.881836,4811.338623,6883.915261,-2298.286494
99.882156,5107.421000,7550.100608,-842.705048
99.882477,5033.400406,9696.697840,306.438199
99.882798,4589.276840,10881.027347,1455.581446
99.883119,4367.215058,10436.903782,995.924147
99.883440,5033.400406,8512.368333,1838.629195
99.883760,4811.338623,6957.935855,1915.238745
99.884081,4663.297435,7105.977043,1302.362347
99.884402,3997.112087,7179.997637,-612.876398
99.884723,3552.988522,7105.977043,-3064.381992
99.885043,4737.318029,6365.771101,-2528.115143
99.885364,6439.791695,6883.915261,-919.314598
99.885685,6217.729913,8142.265362,919.314598
99.886006,5329.482782,8882.471304,1915.238745
99.886327,5181.441594,9918.759623,1149.143247
99.886647,5477.523971,9178.553681,1225.752797
99.886968,5847.626942,7550.100608,1072.533697
99.887289,6957.935855,6513.812290,459.657299
99.887610,6291.750507,6587.832884,-995.924147
99.887930,5255.462188,6365.771101,-2451.505594
99.888251,4959.379811,6513.812290,-2987.772442
99.888572,5477.523971,6291.750507,-2374.896044
99.888893,5921.647536,7254.018232,-459.657299
99.889214,6439.791695,8660.409521,1455.581446
99.889534,5181.441594,10584.944971,1378.971896
99.889855,4219.173869,9992.780217,842.705048
99.890176,4219.173869,8438.347739,995.924147
99.890497,4737.318029,7772.162391,1455.581446
99.890817,3775.050304,7328.038826,229.828649
99.891138,3552.988522,6809.894666,-1685.410096
99.891459,3997.112087,6957.935855,-3064.381992
99.891780,3775.050304,7105.977043,-2528.115143
99.892101,4145.153275,7846.182985,-766.095498
99.892421,4811.338623,9474.636058,1149.143247
99.892742,3923.091493,10214.842000,1608.800546
99.893063,4515.256246,11029.068536,1302.362347
99.893384,4737.318029,9844.739029,766.095498
99.893704,4145.153275,8290.306550,459.657299
99.894025,4441.235652,8512.368333,0.000000
99.894346,4293.194464,7920.203579,-1149.143247
99.894667,4219.173869,7476.080014,-1838.629195
99.894988,4441.235652,7328.038826,-1915.238745
99.895308,4589.276840,7254.018232,-1532.190996
99.895629,4811.338623,7994.224174,-536.266849
99.895950,4737.318029,9622.677246,919.314598
99.896271,5181.441594,10584.944971,1149.143247
99.896591,5847.626942,9844.739029,1072.533697
99.896912,6587.832884,8586.388927,1149.143247
99.897233,6143.709319,7772.162391,766.095498
99.897554,4663.297435,7550.100608,-383.047749
99.897875,3997.112087,6735.874072,-1915.238745
99.898195,5033.400406,6661.853478,-2298.286494
99.898516,5699.585753,6587.832884,-1608.800546
99.898837,6143.709319,7402.059420,-383.047749
99.899158,5847.626942,9474.636058,536.266849
99.899478,4737.318029,10436.903782,689.485948
99.899799,4811.338623,9992.780217,842.705048
99.900120,5255.462188,8216.285956,1685.410096
99.900441,5921.647536,6365.771101,2068.457845
99.900761,4959.379811,6587.832884,1532.190996
99.901082,4219.173869,7105.977043,-612.876398
99.901403,4589.276840,7550.100608,-2604.724693
99.901724,5551.544565,7624.121203,-2987.772442
99.902045,6439.791695,6809.894666,-2221.676944
99.902365,7031.956449,7254.018232,0.000000
99.902686,6365.771101,8068.244768,1762.019645
99.903007,4959.379811,8808.450710,2374.896044
99.903328,5477.523971,8438.347739,2298.286494
99.903648,6217.729913,7105.977043,1455.581446
99.903969,5773.606348,7031.956449,612.876398
99.904290,5033.400406,6809.894666,-1072.533697
99.904611,4959.379811,6365.771101,-2145.067394
99.904932,5477.523971,6513.812290,-2145.067394
99.905252,5625.565159,5773.606348,-2374.896044
99.905573,5699.585753,6809.894666,-1378.971896
99.905894,5551.544565,8734.430116,306.438199
99.906215,4293.194464,10140.821405,995.924147
99.906535,5181.441594,10288.862594,1378.971896
99.906856,5995.668130,8956.491898,1685.410096
99.907177,5699.585753,7920.203579,1072.533697
99.907498,4663.297435,7476.080014,-459.657299
99.907819,3627.009116,7476.080014,-2221.676944
99.908139,3552.988522,7031.956449,-2987.772442
99.908460,3627.009116,6883.915261,-1455.581446
99.908781,4145.153275,7105.977043,0.000000
99.909102,4367.215058,9326.594869,995.924147
99.909422,3997.112087,11399.171507,1915.238745
99.909743,4071.132681,11621.233289,1685.410096
99.910064,4293.194464,9844.739029,1455.581446
99.910385,4737.318029,7920.203579,1149.143247
99.910706,4441.235652,7402.059420,689.485948
99.911026,4145.153275,6661.853478,-612.876398
99.911347,4071.132681,7105.977043,-1838.629195
99.911668,4959.379811,7550.100608,-2604.724693
99.911989,5255.462188,7994.224174,-2374.896044
99.912309,5033.400406,8882.471304,-1532.190996
99.912630,5255.462188,9696.697840,0.000000
99.912951,5921.647536,10066.800811,1608.800546
99.913272,5773.606348,9030.512492,1378.971896
99.913593,6217.729913,7772.162391,1149.143247
99.913913,5329.482782,7476.080014,0.000000
99.914234,4663.297435,7698.141797,-1455.581446
99.914555,5107.421000,7920.203579,-2451.505594
99.914876,4885.359217,7105.977043,-2145.067394
99.915196,4737.318029,6735.874072,-2221.676944
99.915517,5107.421000,7328.038826,-995.924147
99.915838,4885.359217,8586.388927,1225.752797
99.916159,4441.235652,9844.739029,1149.143247
99.916479,4589.276840,9844.739029,1455.581446
99.916800,5033.400406,8808.450710,1302.362347
99.917121,5255.462188,8142.265362,1149.143247
99.917442,4737.318029,8364.327145,842.705048
99.917763,4219.173869,7846.182985,-995.924147
99.918083,4663.297435,6957.935855,-2374.896044
99.918404,5033.400406,6217.729913,-2221.676944
99.918725,5181.441594,6291.750507,-1302.362347
99.919046,5699.585753,7772.162391,0.000000
99.919366,5699.585753,9178.553681,842.705048
99.919687,5255.462188,9696.697840,1225.752797
99.920008,6217.729913,8660.409521,1378.971896
99.920329,7179.997637,7254.018232,1532.190996
99.920650,6291.750507,6587.832884,689.485948
99.920970,5847.626942,5921.647536,-612.876398
99.921291,5921.647536,5995.668130,-2451.505594
99.921612,5921.647536,5921.647536,-2681.334243
99.921933,6439.791695,6143.709319,-1915.238745
99.922253,7105.977043,6809.894666,-919.314598
99.922574,6809.894666,8586.388927,0.000000
99.922895,5625.565159,10510.924376,919.314598
99.923216,5403.503377,9844.739029,1072.533697
99.923537,5773.606348,8512.368333,1149.143247
99.923857,5477.523971,7624.121203,1225.752797
99.924178,4737.318029,7328.038826,766.095498
99.924499,3849.070898,6735.874072,-536.266849
99.924820,3552.988522,6291.750507,-1608.800546
99.925140,3775.050304,7031.956449,-1762.019645
99.925461,3627.009116,7920.203579,-1225.752797
99.925782,4145.153275,8808.450710,0.000000
99.926103,4441.235652,10288.862594,1455.581446
99.926424,4441.235652,10510.924376,1762.019645
99.926744,4663.297435,9178.553681,1685.410096
99.927065,4959.379811,7994.224174,1072.533697
99.927386,4071.132681,7550.100608,1072.533697
99.927707,4219.173869,7846.182985,-842.705048
99.928027,4293.194464,7624.121203,-2221.676944
99.928348,4219.173869,7105.977043,-2451.505594
99.928669,4737.318029,7105.977043,-2068.457845
99.928990,5107.421000,7846.182985,-536.266849
99.929311,4959.379811,9252.574275,229.828649
99.929631,4737.318029,10362.883188,459.657299
99.929952,5107.421000,9918.759623,689.485948
99.930273,5255.462188,8956.491898,536.266849
99.930594,4959.379811,8216.285956,1225.752797
99.930914,4071.132681,8512.368333,229.828649
99.931235,4441.235652,7772.162391,-1378.971896
99.931556,4293.194464,6439.791695,-2451.505594
99.931877,4145.153275,6143.709319,-2221.676944
99.932198,4885.359217,7105.977043,-842.705048
99.932518,5107.421000,8956.491898,383.047749
99.932839,4885.359217,10658.965565,919.314598
99.933160,4959.379811,10584.944971,612.876398
99.933481,5329.482782,9104.533087,1608.800546
99.933801,5477.523971,7698.141797,1378.971896
99.934122,4959.379811,7328.038826,1455.581446
99.934443,4441.235652,7105.977043,-689.485948
99.934764,4367.215058,6513.812290,-2451.505594
99.935084,4811.338623,6291.750507,-2757.943793
99.935405,5403.503377,6661.853478,-1762.019645
99.935726,6365.771101,7846.182985,0.000000
99.936047,6217.729913,9548.656652,919.314598
99.936368,5921.647536,10066.800811,1378.971896
99.936688,6143.709319,8956.491898,1072.533697
99.937009,6735.874072,7624.121203,1532.190996
99.937330,6291.750507,6291.750507,1455.581446
99.937651,5181.441594,6513.812290,459.657299
99.937971,5255.462188,6513.812290,-1762.019645
99.938292,5403.503377,5699.585753,-3064.381992
99.938613,5995.668130,5699.585753,-2604.724693
99.938934,6143.709319,7402.059420,-1225.752797
99.939255,6069.688724,8512.368333,-306.438199
99.939575,5625.565159,9770.718434,842.705048
99.939896,5847.626942,9252.574275,995.924147
99.940217,6291.750507,8290.306550,919.314598
99.940538,6439.791695,7550.100608,1838.629195
99.940858,5255.462188,7846.182985,612.876398
99.941179,4293.194464,7994.224174,-2145.067394
99.941500,3923.091493,7254.018232,-3370.820191
99.941821,4589.276840,6513.812290,-2298.286494
99.942142,4663.297435,6513.812290,-689.485948
99.942462,4293.194464,7920.203579,995.924147
99.942783,3701.029710,10288.862594,1302.362347
99.943104,3404.947333,11177.109724,842.705048
99.943425,3997.112087,10214.842000,1302.362347
99.943745,5181.441594,8512.368333,2068.457845
99.944066,4737.318029,7846.182985,1762.019645
99.944387,3775.050304,8364.327145,-459.657299
99.944708,3034.844362,7994.224174,-2451.505594
99.945029,3182.885551,6809.894666,-3294.210641
99.945349,4441.235652,6439.791695,-1991.848295
99.945670,5107.421000,7994.224174,0.000000
99.945991,4959.379811,9992.780217,766.095498
99.946312,4885.359217,11621.233289,842.705048
99.946632,4959.379811,11103.089130,536.266849
99.946953,5551.544565,8808.450710,919.314598
99.947274,5625.565159,7105.977043,1915.238745
99.947595,5107.421000,7550.100608,766.095498
99.947916,4293.194464,7550.100608,-1378.971896
99.948236,3997.112087,6883.915261,-2987.772442
99.948557,4663.297435,6587.832884,-2834.553343
99.948878,5477.523971,7105.977043,-842.705048
99.949199,5551.544565,8734.430116,766.095498
99.949519,4959.379811,10510.924376,1455.581446
99.949840,4737.318029,10288.862594,2145.067394
99.950161,4663.297435,8586.388927,1455.581446
99.950482,5033.400406,7476.080014,2221.676944
99.950803,4737.318029,7846.182985,1838.629195
99.951123,3849.070898,7920.203579,-383.047749
99.951444,4515.256246,7254.018232,-2374.896044
99.951765,4589.276840,6069.688724,-2757.943793
99.952086,5033.400406,5847.626942,-1608.800546
99.952406,5403.503377,6957.935855,229.828649
99.952727,5107.421000,9252.574275,1302.362347
99.953048,5107.421000,10732.986159,1149.143247
99.953369,5699.585753,10066.800811,1072.533697
99.953689,6291.750507,8290.306550,689.485948
99.954010,5625.565159,7328.038826,1225.752797
99.954331,5255.462188,7328.038826,229.828649
99.954652,4663.297435,6513.812290,-1608.800546
99.954973,4515.256246,5329.482782,-2834.553343
99.955293,5329.482782,4959.379811,-2604.724693
99.955614,5847.626942,6365.771101,-1225.752797
99.955935,5625.565159,8216.285956,306.438199
99.956256,5255.462188,10436.903782,1072.533697
99.956576,5107.421000,10214.842000,536.266849
99.956897,6217.729913,8808.450710,1149.143247
99.957218,6661.853478,7550.100608,1838.629195
99.957539,5181.441594,7550.100608,842.705048
99.957860,4367.215058,7402.059420,-1532.190996
99.958180,4293.194464,6439.791695,-3294.210641
99.958501,4663.297435,5625.565159,-3140.991542
99.958822,5773.606348,6661.853478,-842.705048
99.959143,5847.626942,8586.388927,0.000000
99.959463,5107.421000,10436.903782,612.876398
99.959784,4589.276840,10732.986159,612.876398
99.960105,4885.359217,9992.780217,1072.533697
99.960426,5033.400406,8216.285956,1991.848295
99.960747,5847.626942,7624.121203,2451.505594
99.961067,4293.194464,8438.347739,76.609550
99.961388,3182.885551,8290.306550,-2757.943793
99.961709,3256.906145,6957.935855,-3677.258390
99.962030,4515.256246,6513.812290,-2528.115143
99.962350,5329.482782,7994.224174,76.609550
99.962671,4959.379811,10214.842000,766.095498
99.962992,4589.276840,11769.274478,1149.143247
99.963313,4071.132681,10807.006753,1149.143247
99.963634,4737.318029,9474.636058,1302.362347
99.963954,4811.338623,8364.327145,2221.676944
99.964275,4367.215058,8290.306550,689.485948
99.964596,3627.009116,7846.182985,-1225.752797
99.964917,3627.009116,7105.977043,-2757.943793
99.965237,4367.215058,6439.791695,-2145.067394
99.965558,5255.462188,7105.977043,-1225.752797
99.965879,5551.544565,8068.244768,229.828649
99.966200,5329.482782,9622.677246,766.095498
99.966521,5255.462188,10584.944971,689.485948
99.966841,5773.606348,9104.533087,1149.143247
99.967162,6809.894666,7550.100608,1838.629195
99.967483,6069.688724,7550.100608,1455.581446
99.967804,4737.318029,7179.997637,-842.705048
99.968124,4515.256246,6143.709319,-3217.601092
99.968445,4737.318029,4737.318029,-3294.210641
99.968766,6365.771101,5699.585753,-1838.629195
99.969087,6291.750507,7402.059420,459.657299
99.969408,5329.482782,9696.697840,766.095498
99.969728,4737.318029,10510.924376,153.219100
99.970049,5255.462188,9770.718434,153.219100
99.970370,5847.626942,8068.244768,1685.410096
99.970691,5551.544565,7402.059420,2374.896044
99.971011,4219.173869,7179.997637,229.828649
99.971332,3108.864956,6809.894666,-2145.067394
99.971653,3552.988522,6365.771101,-2834.553343
99.971974,4071.132681,6513.812290,-1532.190996
99.972294,4737.318029,7402.059420,-229.828649
99.972615,4811.338623,9252.574275,612.876398
99.972936,4589.276840,10140.821405,612.876398
99.973257,4441.235652,10214.842000,842.705048
99.973578,5551.544565,8882.471304,1991.848295
99.973898,6143.709319,7402.059420,2145.067394
99.974219,5329.482782,7476.080014,919.314598
99.974540,4737.318029,7402.059420,-2068.457845
99.974861,4515.256246,7031.956449,-3677.258390
99.975181,5255.462188,6143.709319,-3294.210641
99.975502,5921.647536,6217.729913,-1225.752797
99.975823,5995.668130,7994.224174,0.000000
99.976144,5773.606348,10214.842000,459.657299
99.976465,5033.400406,11251.130318,842.705048
99.976785,4811.338623,9992.780217,919.314598
99.977106,5181.441594,8290.306550,919.314598
99.977427,4959.379811,8142.265362,1762.019645
99.977748,3701.029710,7772.162391,306.438199
99.978069,3404.947333,6957.935855,-1991.848295
99.978389,3997.112087,6143.709319,-3217.601092
99.978710,4663.297435,6513.812290,-2221.676944
99.979031,5107.421000,7846.182985,-1072.533697
99.979352,5551.544565,9548.656652,0.000000
99.979673,5477.523971,10881.027347,612.876398
99.979994,5847.626942,10658.965565,1455.581446
99.980314,6217.729913,9252.574275,1532.190996
99.980635,5329.482782,7698.141797,1532.190996
99.980956,4663.297435,7698.141797,306.438199
99.981277,3775.050304,7476.080014,-1991.848295
99.981598,4145.153275,6439.791695,-3753.867940
99.981919,5551.544565,5921.647536,-2681.334243
99.982239,6439.791695,7105.977043,-689.485948
99.982560,4959.379811,8734.430116,842.705048
99.982881,4367.215058,10436.903782,536.266849
99.983202,4589.276840,10807.006753,766.095498
99.983523,4737.318029,9400.615463,2068.457845
99.983843,5625.565159,7698.141797,2374.896044
99.984164,5625.565159,7179.997637,1608.800546
99.984485,4663.297435,7772.162391,-1302.362347
99.984806,3775.050304,7328.038826,-3447.429741
99.985127,4589.276840,6513.812290,-3524.039291
99.985448,5329.482782,6217.729913,-2145.067394
99.985768,6143.709319,7402.059420,689.485948
99.986089,5699.585753,9548.656652,1685.410096
99.986410,5403.503377,10510.924376,1378.971896
99.986731,5477.523971,9770.718434,1455.581446
99.987052,6217.729913,7698.141797,1532.190996
99.987373,6513.812290,6439.791695,1455.581446
99.987693,5995.668130,5995.668130,0.000000
99.988014,5699.585753,6291.750507,-1685.410096
99.988335,5329.482782,5921.647536,-3370.820191
99.988656,5847.626942,5847.626942,-2374.896044
99.988977,6735.874072,7698.141797,-229.828649
99.989298,6069.688724,9178.553681,919.314598
99.989618,5107.421000,10214.842000,1149.143247
99.989939,5477.523971,9696.697840,1225.752797
99.990260,5181.441594,7920.203579,995.924147
99.990581,4885.359217,7328.038826,1608.800546
99.990902,4663.297435,7550.100608,383.047749
99.991222,3552.988522,7476.080014,-1608.800546
99.991543,3478.967927,7254.018232,-3064.381992
99.991864,4293.194464,6735.874072,-2221.676944
99.992185,4441.235652,6957.935855,-459.657299
99.992506,4145.153275,8438.347739,536.266849
99.992827,4145.153275,10214.842000,1608.800546
99.993147,4293.194464,10955.047942,1072.533697
99.993468,4663.297435,9474.636058,1225.752797
99.993789,4737.318029,7994.224174,1302.362347
99.994110,4441.235652,7920.203579,689.485948
99.994431,3701.029710,8290.306550,-383.047749
99.994752,3330.926739,7698.141797,-2221.676944
99.995072,4145.153275,6365.771101,-3140.991542
99.995393,5255.462188,6513.812290,-1762.019645
99.995714,5699.585753,8364.327145,0.000000
99.996035,4811.338623,10362.883188,459.657299
99.996356,4737.318029,11473.192101,76.609550
99.996676,4959.379811,9918.759623,612.876398
99.996997,5773.606348,8068.244768,1608.800546
99.997318,5403.503377,7550.100608,2298.286494
99.997639,4145.153275,8142.265362,383.047749
99.997960,3182.885551,8068.244768,-2145.067394
99.998281,3552.988522,7031.956449,-3370.820191
99.998601,4737.318029,6069.688724,-2068.457845
99.998922,5773.606348,6365.771101,0.000000
99.999243,5847.626942,8808.450710,536.266849
99.999564,5033.400406,10584.944971,383.047749
99.999885,5033.400406,10881.027347,0.000000
100.000206,6291.750507,8956.491898,919.314598
100.000526,6513.812290,6957.935855,1685.410096
100.000847,5847.626942,6735.874072,1149.143247
100.001168,4441.235652,7550.100608,-1072.533697
100.001489,4145.153275,6735.874072,-2834.553343
100.001810,4737.318029,5773.606348,-2834.553343
100.002131,5995.668130,5847.626942,-1302.362347
100.002451,5921.647536,8068.244768,-536.266849
100.002772,5181.441594,9918.759623,766.095498
100.003093,4737.318029,10881.027347,919.314598
100.003414,5773.606348,9326.594869,1378.971896
100.003735,6365.771101,7105.977043,1762.019645
100.004055,5773.606348,6513.812290,1608.800546
100.004376,4885.359217,6513.812290,-229.828649
100.004697,4071.132681,6661.853478,-2757.943793
100.005018,4885.359217,6217.729913,-3217.601092
100.005339,6439.791695,6143.709319,-2145.067394
100.005660,6883.915261,7105.977043,-1149.143247
100.005980,6513.812290,9252.574275,229.828649
100.006301,5773.606348,10436.903782,689.485948
100.006622,5181.441594,9770.718434,153.219100
100.006943,6069.688724,7254.018232,1225.752797
100.007264,6661.853478,6439.791695,1915.238745
100.007585,5847.626942,7031.956449,766.095498
100.007905,4515.256246,7476.080014,-1608.800546
100.008226,4367.215058,7698.141797,-3983.696590
100.008547,4737.318029,6957.935855,-3294.210641
100.008868,5995.668130,6809.894666,-306.438199
100.009189,6069.688724,8438.347739,1302.362347
100.009509,4663.297435,9992.780217,1532.190996
100.009830,3627.009116,10362.883188,919.314598
100.010151,4145.153275,9252.574275,1378.971896
100.010472,4663.297435,8290.306550,1762.019645
100.010793,4441.235652,8142.265362,1302.362347
100.011114,4071.132681,9030.512492,-383.047749
100.011434,3256.906145,8734.430116,-2374.896044
100.011755,3182.885551,7476.080014,-2834.553343
100.012076,3849.070898,6957.935855,-1378.971896
100.012397,4663.297435,7402.059420,306.438199
100.012718,4293.194464,9326.594869,995.924147
100.013039,4071.132681,11103.089130,1455.581446
100.013359,4293.194464,11103.089130,1149.143247
100.013680,5033.400406,8734.430116,1378.971896
100.014001,5477.523971,7402.059420,1608.800546
100.014322,4959.379811,7031.956449,-153.219100
100.014643,3997.112087,6809.894666,-2451.505594
100.014964,4737.318029,6439.791695,-2987.772442
100.015284,5847.626942,6143.709319,-2145.067394
100.015605,5847.626942,6957.935855,0.000000
100.015926,5773.606348,8808.450710,536.266849
100.016247,5255.462188,10436.903782,0.000000
100.016568,4589.276840,10436.903782,612.876398
100.016888,6069.688724,8438.347739,1455.581446
100.017209,6513.812290,7031.956449,1532.190996
100.017530,4515.256246,6439.791695,536.266849
100.017851,3478.967927,7105.977043,-1762.019645
100.018172,3330.926739,7254.018232,-2911.162892
100.018493,4145.153275,6957.935855,-2528.115143
100.018813,5773.606348,7105.977043,-689.485948
100.019134,5995.668130,8290.306550,306.438199
100.019455,4663.297435,9992.780217,536.266849
100.019776,3701.029710,10732.986159,1532.190996
100.020097,4663.297435,8882.471304,1455.581446
100.020418,5551.544565,6291.750507,1915.238745
100.020738,6143.709319,5995.668130,2068.457845
100.021059,5403.503377,7031.956449,-459.657299
100.021380,4145.153275,7328.038826,-2757.943793
100.021701,5033.400406,6661.853478,-3217.601092
100.022022,6513.812290,6291.750507,-2221.676944
100.022342,7920.203579,6957.935855,0.000000
100.022663,7105.977043,8290.306550,842.705048
100.022984,5921.647536,9622.677246,76.609550
100.023305,5329.482782,9474.636058,0.000000
100.023626,6217.729913,8512.368333,995.924147
100.023947,6513.812290,7772.162391,689.485948
100.024267,5773.606348,7994.224174,-76.609550
100.024588,5255.462188,8068.244768,-2145.067394
100.024909,4441.235652,7105.977043,-3447.429741
100.025230,4367.215058,6143.709319,-2451.505594
100.025551,5181.441594,6291.750507,-612.876398
100.025872,4885.359217,7920.203579,536.266849
100.026192,3997.112087,10066.800811,919.314598
100.026513,4515.256246,11177.109724,1072.533697
100.026834,4811.338623,9844.739029,1685.410096
100.027155,4885.359217,7698.141797,1915.238745
100.027476,4663.297435,7698.141797,1072.533697
100.027797,4145.153275,8586.388927,-1072.533697
100.028117,3627.009116,7328.038826,-2681.334243
100.028438,4959.379811,6365.771101,-2451.505594
100.028759,6439.791695,6291.750507,-1149.143247
100.029080,5181.441594,8438.347739,-383.047749
100.029401,4219.173869,10807.006753,229.828649
100.029721,4293.194464,11769.274478,459.657299
100.030042,4959.379811,10584.944971,1149.143247
100.030363,5255.462188,8882.471304,1915.238745
100.030684,4885.359217,7179.997637,1225.752797
100.031005,3404.947333,7698.141797,-1302.362347
100.031326,2368.659014,8068.244768,-2221.676944
100.031646,3034.844362,7105.977043,-2221.676944
100.031967,4885.359217,6809.894666,-919.314598
100.032288,5181.441594,7772.162391,229.828649
100.032609,3775.050304,9918.759623,153.219100
100.032930,2886.803174,11621.233289,459.657299
100.033251,3552.988522,10881.027347,1685.410096
100.033571,4959.379811,7846.182985,2221.676944
100.033892,5773.606348,5773.606348,2451.505594
100.034213,4885.359217,7254.018232,766.095498
100.034534,3256.906145,8512.368333,-2068.457845
100.034855,3478.967927,7846.182985,-3753.867940
100.035175,5625.565159,7105.977043,-2604.724693
100.035496,7328.038826,6365.771101,-612.876398
100.035817,6661.853478,7772.162391,1378.971896
100.036138,5033.400406,9770.718434,1302.362347
100.036459,4071.132681,10584.944971,689.485948
100.036780,4811.338623,8956.491898,1225.752797
100.037100,6069.688724,6809.894666,1915.238745
100.037421,5699.585753,6291.750507,1532.190996
100.037742,4589.276840,7105.977043,-153.219100
100.038063,3775.050304,7179.997637,-2068.457845
100.038384,4663.297435,6513.812290,-1991.848295
100.038705,5847.626942,5403.503377,-1685.410096
100.039025,6217.729913,6365.771101,-229.828649
100.039346,5699.585753,8364.327145,229.828649
100.039667,5033.400406,10584.944971,919.314598
100.039988,5551.544565,10066.800811,1302.362347
100.040309,7105.977043,7994.224174,1149.143247
100.040630,7179.997637,6513.812290,1302.362347
100.040950,5551.544565,6883.915261,-459.657299
100.041271,4367.215058,7105.977043,-2451.505594
100.041592,4959.379811,6883.915261,-3064.381992
100.041913,6069.688724,6069.688724,-1915.238745
100.042234,6735.874072,6069.688724,-153.219100
100.042554,5921.647536,7772.162391,536.266849
100.042875,4219.173869,10066.800811,383.047749
100.043196,3923.091493,11177.109724,842.705048
100.043517,4959.379811,9548.656652,1532.190996
100.043838,5847.626942,7402.059420,1378.971896
100.044159,5403.503377,7179.997637,459.657299
100.044479,4071.132681,7994.224174,-1225.752797
100.044800,2960.823768,7920.203579,-2451.505594
100.045121,3552.988522,7402.059420,-2604.724693
100.045442,5329.482782,7179.997637,-1532.190996
100.045763,5551.544565,8142.265362,-76.609550
100.046084,4663.297435,10288.862594,536.266849
100.046404,3923.091493,11843.295072,1302.362347
100.046725,4367.215058,11251.130318,919.314598
100.047046,5255.462188,9104.533087,1532.190996
100.047367,5403.503377,7476.080014,1072.533697
100.047688,4737.318029,7550.100608,-383.047749
100.048008,3701.029710,7476.080014,-2221.676944
100.048329,3701.029710,7624.121203,-2681.334243
100.048650,4737.318029,7179.997637,-1762.019645
100.048971,5625.565159,8216.285956,-459.657299
100.049292,5255.462188,9770.718434,612.876398
100.049613,4145.153275,11473.192101,766.095498
100.049933,4293.194464,11177.109724,1378.971896
100.050254,4737.318029,8808.450710,1608.800546
100.050575,4737.318029,7402.059420,1378.971896
100.050896,4441.235652,7105.977043,229.828649
100.051217,3849.070898,7550.100608,-1149.143247
100.051538,3330.926739,7328.038826,-2451.505594
100.051858,4293.194464,6957.935855,-2374.896044
100.052179,5403.503377,7328.038826,-1149.143247
100.052500,5403.503377,8438.347739,229.828649
100.052821,4811.338623,10140.821405,1915.238745
100.053142,4737.318029,10140.821405,2298.286494
100.053463,5847.626942,8956.491898,2068.457845
100.053783,5699.585753,6957.935855,1762.019645
100.054104,4811.338623,5921.647536,229.828649
100.054425,4737.318029,5403.503377,-1225.752797
100.054746,4885.359217,6069.688724,-2451.505594
100.055067,6143.709319,5773.606348,-2068.457845
100.055387,7105.977043,6069.688724,-1302.362347
100.055708,7328.038826,6883.915261,-229.828649
100.056029,5477.523971,8808.450710,-229.828649
100.056350,5551.544565,9474.636058,919.314598
100.056671,6143.709319,9178.553681,1225.752797
100.056992,6809.894666,7624.121203,1608.800546
100.057312,6143.709319,6809.894666,1072.533697
100.057633,4959.379811,7179.997637,-459.657299
100.057954,3552.988522,7179.997637,-2528.115143
100.058275,3849.070898,6735.874072,-2451.505594
100.058596,4811.338623,6069.688724,-1532.190996
100.058917,5625.565159,6587.832884,0.000000
100.059237,4885.359217,8142.265362,1149.143247
100.059558,3849.070898,10436.903782,1608.800546
100.059879,3627.009116,10881.027347,1685.410096
100.060200,5033.400406,9844.739029,1532.190996
100.060521,5255.462188,7772.162391,1072.533697
100.060841,4737.318029,7476.080014,153.219100
100.061162,3849.070898,7476.080014,-1455.581446
100.061483,4071.132681,7254.018232,-2145.067394
100.061804,4515.256246,7105.977043,-2145.067394
100.062125,5403.503377,7105.977043,-1149.143247
100.062446,5847.626942,8216.285956,-1455.581446
100.062766,5033.400406,10214.842000,459.657299
100.063087,4589.276840,11621.233289,1149.143247
100.063408,5181.441594,10140.821405,1149.143247
100.063729,5995.668130,8364.327145,1149.143247
100.064050,5403.503377,7920.203579,842.705048
100.064371,4145.153275,7550.100608,-1072.533697
100.064691,3256.906145,7550.100608,-2604.724693
100.065012,3997.112087,7550.100608,-2451.505594
100.065333,5181.441594,7624.121203,-1378.971896
100.065654,6439.791695,7994.224174,0.000000
100.065975,5255.462188,9918.759623,0.000000
100.066296,3627.009116,11325.150913,842.705048
100.066616,4145.153275,10658.965565,1378.971896
100.066937,4737.318029,8438.347739,1838.629195
100.067258,4737.318029,6809.894666,1532.190996
100.067579,4811.338623,7105.977043,229.828649
100.067900,3552.988522,8142.265362,-1991.848295
100.068220,3478.967927,7772.162391,-3447.429741
100.068541,4885.359217,7179.997637,-1838.629195
100.068862,6069.688724,7550.100608,-459.657299
100.069183,6069.688724,8290.306550,536.266849
100.069504,5329.482782,10436.903782,1225.752797
100.069825,4663.297435,10288.862594,1302.362347
100.070145,5477.523971,8734.430116,1608.800546
100.070466,6439.791695,7105.977043,1532.190996
100.070787,5403.503377,6809.894666,612.876398
100.071108,4219.173869,7031.956449,-1072.533697
100.071429,4071.132681,6809.894666,-2528.115143
100.071750,4959.379811,6439.791695,-2451.505594
100.072070,6291.750507,5921.647536,-842.705048
100.072391,6291.750507,7105.977043,76.609550
100.072712,5773.606348,9104.533087,0.000000
100.073033,4737.318029,9992.780217,612.876398
100.073354,5699.585753,9548.656652,1225.752797
100.073674,6587.832884,7846.182985,1762.019645
100.073995,6143.709319,6587.832884,995.924147
100.074316,5181.441594,6661.853478,-536.266849
100.074637,4589.276840,6291.750507,-2145.067394
100.074958,4515.256246,6809.894666,-2451.505594
100.075279,5181.441594,6365.771101,-1455.581446
100.075599,6069.688724,6957.935855,-153.219100
100.075920,5699.585753,8586.388927,0.000000
100.076241,4441.235652,10066.800811,536.266849
100.076562,4885.359217,9992.780217,1072.533697
100.076883,6143.709319,8734.430116,1532.190996
100.077204,6217.729913,7476.080014,1685.410096
100.077524,5551.544565,7402.059420,306.438199
100.077845,4441.235652,7179.997637,-1302.362347
100.078166,4071.132681,7179.997637,-2068.457845
100.078487,4737.318029,7105.977043,-1685.410096
100.078808,5847.626942,7402.059420,-536.266849
100.079128,5773.606348,8142.265362,-842.705048
100.079449,4589.276840,9104.533087,-153.219100
100.079770,4663.297435,10214.842000,919.314598
100.080091,4441.235652,9252.574275,1532.190996
100.080412,4885.359217,8438.347739,1532.190996
100.080733,5107.421000,7994.224174,919.314598
100.081053,4293.194464,8216.285956,-612.876398
100.081374,4071.132681,7846.182985,-2068.457845
100.081695,3849.070898,7179.997637,-2451.505594
100.082016,5181.441594,7254.018232,-1762.019645
100.082337,5403.503377,7920.203579,-766.095498
100.082658,5033.400406,9178.553681,-153.219100
100.082978,4367.215058,9918.759623,229.828649
100.083299,4589.276840,10510.924376,1225.752797
100.083620,5255.462188,9622.677246,2374.896044
100.083941,4885.359217,8734.430116,1685.410096
100.084262,4367.215058,8142.265362,76.609550
100.084583,3627.009116,7550.100608,-1762.019645
100.084903,3478.967927,6883.915261,-2374.896044
100.085224,4145.153275,6587.832884,-1149.143247
100.085545,5107.421000,8142.265362,-1378.971896
100.085866,5255.462188,8882.471304,-383.047749
100.086187,5033.400406,10584.944971,0.000000
100.086508,4959.379811,10362.883188,1915.238745
100.086828,5107.421000,9252.574275,2451.505594
100.087149,5181.441594,7772.162391,2451.505594
100.087470,4811.338623,7254.018232,919.314598
100.087791,4737.318029,7105.977043,-1455.581446
100.088112,4959.379811,6365.771101,-2757.943793
100.088432,5181.441594,6143.709319,-2604.724693
100.088753,5847.626942,6439.791695,-1532.190996
100.089074,6217.729913,7402.059420,-459.657299
100.089395,5329.482782,8586.388927,76.609550
100.089716,5477.523971,9622.677246,919.314598
100.090037,5847.626942,9178.553681,1608.800546
100.090357,6217.729913,7550.100608,1838.629195
100.090678,5773.606348,6957.935855,1149.143247
100.090999,4811.338623,6735.874072,-612.876398
100.091320,4219.173869,6513.812290,-2374.896044
100.091641,5033.400406,5847.626942,-1991.848295
100.091962,5403.503377,5551.544565,-1532.190996
100.092282,5921.647536,6291.750507,-229.828649
100.092603,5699.585753,7624.121203,153.219100
100.092924,5329.482782,9844.739029,153.219100
100.093245,5847.626942,9622.677246,995.924147
100.093566,6957.935855,8734.430116,1532.190996
100.093887,7105.977043,7254.018232,1149.143247
100.094207,6439.791695,7105.977043,153.219100
100.094528,5107.421000,7328.038826,-1532.190996
100.094849,4219.173869,6661.853478,-2604.724693
100.095170,5033.400406,5847.626942,-1838.629195
100.095491,6217.729913,7031.956449,-383.047749
100.095812,5625.565159,8586.388927,-229.828649
100.096132,4441.235652,10584.944971,-1225.752797
100.096453,4219.173869,11473.192101,0.000000
100.096774,4293.194464,10436.903782,1685.410096
100.097095,4515.256246,8216.285956,2987.772442
100.097416,3923.091493,7328.038826,2681.334243
100.097736,3034.844362,7994.224174,0.000000
100.098057,2294.638420,8734.430116,-2145.067394
100.098378,2590.720797,8290.306550,-2987.772442
100.098699,4367.215058,7772.162391,-2221.676944
100.099020,5625.565159,8364.327145,0.000000
100.099341,5107.421000,9400.615463,995.924147
100.099661,4071.132681,10955.047942,1532.190996
100.099982,4367.215058,10732.986159,1149.143247
100.100303,4663.297435,9400.615463,1072.533697
100.100624,5181.441594,7994.224174,919.314598
100.100945,5181.441594,7920.203579,0.000000
100.101266,4441.235652,7698.141797,-1378.971896
100.101586,4441.235652,7254.018232,-2451.505594
100.101907,4885.359217,6291.750507,-2451.505594
100.102228,5625.565159,6069.688724,-1532.190996
100.102549,5403.503377,7550.100608,-612.876398
100.102870,5477.523971,9696.697840,76.609550
100.103191,5329.482782,10362.883188,842.705048
100.103511,5847.626942,9400.615463,1762.019645
100.103832,5847.626942,8142.265362,1685.410096
100.104153,5699.585753,7105.977043,536.266849
100.104474,4515.256246,6661.853478,-1225.752797
100.104795,3627.009116,6291.750507,-3064.381992
100.105116,4663.297435,6069.688724,-3140.991542
100.105436,5625.565159,6661.853478,-1072.533697
100.105757,5995.668130,7179.997637,383.047749
100.106078,5847.626942,8734.430116,689.485948
100.106399,4885.359217,9918.759623,459.657299
100.106720,4885.359217,9770.718434,612.876398
100.107041,5625.565159,7846.182985,1838.629195
100.107361,6069.688724,6661.853478,1762.019645
100.107682,5625.565159,6809.894666,689.485948
100.108003,4885.359217,7179.997637,-1302.362347
100.108324,3997.112087,6735.874072,-3294.210641
100.108645,5255.462188,6735.874072,-2451.505594
100.108965,5847.626942,7624.121203,-766.095498
100.109286,5699.585753,8734.430116,0.000000
100.109607,5477.523971,9844.739029,842.705048
100.109928,4885.359217,9770.718434,1225.752797
100.110249,5107.421000,9400.615463,2068.457845
100.110570,5477.523971,7772.162391,1378.971896
100.110890,4589.276840,7476.080014,383.047749
100.111211,4367.215058,7402.059420,-1455.581446
100.111532,3849.070898,7105.977043,-2145.067394
100.111853,4737.318029,6587.832884,-1838.629195
100.112174,5625.565159,7254.018232,-766.095498
100.112495,5403.503377,7920.203579,-383.047749
100.112815,4737.318029,8956.491898,0.000000
100.113136,4515.256246,9918.759623,612.876398
100.113457,5107.421000,9548.656652,1762.019645
100.113778,5551.544565,8882.471304,1378.971896
100.114099,5477.523971,8142.265362,842.705048
100.114420,4737.318029,8586.388927,-1149.143247
100.114740,3997.112087,7698.141797,-2451.505594
100.115061,4071.132681,6661.853478,-2451.505594
100.115382,5255.462188,6217.729913,-1455.581446
100.115703,5403.503377,7328.038826,-536.266849
100.116024,5033.400406,9104.533087,0.000000
100.116345,4663.297435,10140.821405,153.219100
100.116665,5255.462188,9770.718434,1149.143247
100.116986,5329.482782,8660.409521,1685.410096
100.117307,4885.359217,7994.224174,1915.238745
100.117628,4293.194464,7772.162391,689.485948
100.117949,3034.844362,7550.100608,-1532.190996
100.118269,2960.823768,6957.935855,-2298.286494
100.118590,4441.235652,7105.977043,-1838.629195
100.118911,4885.359217,7550.100608,-1072.533697
100.119232,4515.256246,8512.368333,153.219100
100.119553,5107.421000,9326.594869,229.828649
100.119874,4885.359217,9918.759623,766.095498
100.120194,5107.421000,9178.553681,1149.143247
100.120515,5847.626942,7624.121203,2068.457845
100.120836,5699.585753,7402.059420,766.095498
100.121157,5625.565159,7624.121203,-1072.533697
100.121478,4737.318029,7105.977043,-2528.115143
100.121799,4959.379811,6217.729913,-2604.724693
100.122119,5921.647536,6143.709319,-1302.362347
100.122440,6291.750507,7031.956449,0.000000
100.122761,5551.544565,8216.285956,0.000000
100.123082,5477.523971,9474.636058,-153.219100
100.123403,6365.771101,10140.821405,689.485948
100.123724,6143.709319,9104.533087,1685.410096
100.124044,5699.585753,7550.100608,1762.019645
100.124365,4811.338623,7105.977043,0.000000
100.124686,3552.988522,7031.956449,-1378.971896
100.125007,3627.009116,6217.729913,-2145.067394
100.125328,4737.318029,6439.791695,-1915.238745
100.125649,5329.482782,7476.080014,-766.095498
100.125969,4811.338623,8882.471304,0.000000
100.126290,4959.379811,9844.739029,689.485948
100.126611,4737.318029,10584.944971,1532.190996
100.126932,4663.297435,9474.636058,1915.238745
100.127253,4737.318029,7772.162391,1532.190996
100.127574,4811.338623,7550.100608,536.266849
100.127894,4145.153275,7772.162391,-1225.752797
100.128215,3330.926739,7254.018232,-2374.896044
100.128536,4293.194464,6217.729913,-2145.067394
100.128857,5699.585753,6735.874072,-995.924147
100.129178,5551.544565,7994.224174,0.000000
100.129498,5033.400406,9474.636058,153.219100
100.129819,4885.359217,10584.944971,153.219100
100.130140,4737.318029,10510.924376,995.924147
100.130461,5625.565159,8586.388927,2298.286494
100.130782,5477.523971,7550.100608,1762.019645
100.131103,4515.256246,7328.038826,0.000000
100.131423,3256.906145,7254.018232,-2221.676944
100.131744,3404.947333,6957.935855,-2528.115143
100.132065,4737.318029,6957.935855,-1991.848295
100.132386,5921.647536,7624.121203,-306.438199
100.132707,5995.668130,9178.553681,995.924147
100.133028,5773.606348,9918.759623,1072.533697
100.133348,4737.318029,10066.800811,1225.752797
100.133669,5403.503377,8660.409521,1838.629195
100.133990,5847.626942,7402.059420,1685.410096
100.134311,5625.565159,7105.977043,153.219100
100.134632,4737.318029,7402.059420,-2298.286494
100.134953,3997.112087,6883.915261,-3217.601092
100.135273,5107.421000,6291.750507,-2298.286494
100.135594,5773.606348,6809.894666,-153.219100
100.135915,5329.482782,7698.141797,229.828649
100.136236,5033.400406,9622.677246,383.047749
100.136557,4811.338623,10288.862594,1302.362347
100.136878,5329.482782,9622.677246,2221.676944
100.137198,5625.565159,7624.121203,2068.457845
100.137519,4811.338623,7105.977043,919.314598
100.137840,4145.153275,6883.915261,-1532.190996
100.138161,3404.947333,6883.915261,-2757.943793
100.138482,4367.215058,6661.853478,-2451.505594
100.138802,5773.606348,7031.956449,-1608.800546
100.139123,6439.791695,7476.080014,-536.266849
100.139444,5255.462188,9474.636058,1149.143247
100.139765,5255.462188,10362.883188,1149.143247
100.140086,5699.585753,9696.697840,1378.971896
100.140407,5995.668130,7846.182985,1378.971896
100.140727,5255.462188,6661.853478,919.314598
100.141048,4737.318029,6883.915261,-306.438199
100.141369,4441.235652,7031.956449,-2145.067394
100.141690,4589.276840,6513.812290,-2757.943793
100.142011,5477.523971,6661.853478,-1685.410096
100.142332,6291.750507,7328.038826,-842.705048
100.142652,6217.729913,8956.491898,-153.219100
100.142973,5403.503377,10732.986159,306.438199
100.143294,5255.462188,10288.862594,1072.533697
100.143615,5699.585753,9104.533087,1838.629195
100.143936,5329.482782,7994.224174,1915.238745
100.144257,3552.988522,7402.059420,0.000000
100.144577,3701.029710,7328.038826,-2145.067394
100.144898,3701.029710,7179.997637,-2528.115143
100.145219,3775.050304,6809.894666,-1991.848295
100.145540,5329.482782,6957.935855,-766.095498
100.145861,5995.668130,8660.409521,-153.219100
100.146182,4885.359217,10140.821405,766.095498
100.146502,4663.297435,11177.109724,1455.581446
100.146823,5107.421000,9696.697840,1608.800546
100.147144,5477.523971,7624.121203,1149.143247
100.147465,4811.338623,7402.059420,1072.533697
100.147786,4515.256246,7550.100608,-842.705048
100.148107,4293.194464,7550.100608,-2604.724693
100.148427,4071.132681,6809.894666,-2604.724693
100.148748,5181.441594,7179.997637,-1608.800546
100.149069,5699.585753,7550.100608,-536.266849
100.149390,5181.441594,9400.615463,153.219100
100.149711,4737.318029,10584.944971,1072.533697
100.150031,4959.379811,9918.759623,1532.190996
100.150352,5181.441594,8290.306550,1685.410096
100.150673,5181.441594,7550.100608,1685.410096
100.150994,4589.276840,7254.018232,229.828649
100.151315,3701.029710,7031.956449,-2298.286494
100.151636,4367.215058,6291.750507,-2757.943793
100.151956,5403.503377,5847.626942,-1991.848295
100.152277,6513.812290,6587.832884,-1072.533697
100.152598,5921.647536,7846.182985,766.095498
100.152919,5847.626942,9622.677246,1072.533697
100.153240,5699.585753,10510.924376,1072.533697
100.153561,5773.606348,8734.430116,1455.581446
100.153881,6661.853478,6809.894666,1608.800546
100.154202,5921.647536,6217.729913,612.876398
100.154523,4959.379811,6365.771101,-1225.752797
100.154844,4441.235652,7105.977043,-3140.991542
100.155165,4811.338623,6735.874072,-2911.162892
100.155486,5773.606348,7105.977043,-1608.800546
100.155806,6291.750507,7846.182985,0.000000
100.156127,5403.503377,9548.656652,842.705048
100.156448,4737.318029,10584.944971,1991.848295
100.156769,4737.318029,9770.718434,1685.410096
100.157090,4885.359217,8068.244768,1991.848295
100.157411,4293.194464,7328.038826,1302.362347
100.157731,3849.070898,7254.018232,-612.876398
100.158052,2812.782580,7179.997637,-1991.848295
100.158373,3330.926739,6957.935855,-1838.629195
100.158694,5255.462188,7179.997637,-1302.362347
100.159015,5329.482782,8364.327145,0.000000
100.159335,4885.359217,9400.615463,1072.533697
100.159656,4959.379811,10807.006753,1225.752797
100.159977,5033.400406,10584.944971,919.314598
100.160298,5699.585753,8364.327145,842.705048
100.160619,5995.668130,7031.956449,1608.800546
100.160940,5699.585753,7105.977043,536.266849
100.161260,4589.276840,7624.121203,-1762.019645
100.161581,3849.070898,7328.038826,-3294.210641
100.161902,4663.297435,6809.894666,-3140.991542
100.162223,5625.565159,6957.935855,-1838.629195
100.162544,5699.585753,8438.347739,153.219100
100.162865,5255.462188,10362.883188,1149.143247
100.163185,4959.379811,10658.965565,1302.362347
100.163506,4367.215058,9400.615463,1225.752797
100.163827,4367.215058,7624.121203,1225.752797
100.164148,4219.173869,7402.059420,689.485948
100.164469,3256.906145,7920.203579,-919.314598
100.164790,3034.844362,8290.306550,-2528.115143
100.165110,3552.988522,7402.059420,-2987.772442
100.165431,4885.359217,6957.935855,-919.314598
100.165752,4885.359217,7179.997637,383.047749
100.166073,4663.297435,8364.327145,1225.752797
100.166394,4737.318029,10066.800811,1532.190996
100.166715,5255.462188,9104.533087,1532.190996
100.167035,6291.750507,7476.080014,1838.629195
100.167356,6439.791695,6587.832884,1455.581446
100.167677,5403.503377,6809.894666,-306.438199
100.167998,4737.318029,6957.935855,-1915.238745
100.168319,4737.318029,5625.565159,-3064.381992
100.168640,5995.668130,4959.379811,-2834.553343
100.168960,7105.977043,5773.606348,-766.095498
100.169281,7179.997637,7550.100608,459.657299
100.169602,6661.853478,10214.842000,306.438199
100.169923,6735.874072,10955.047942,306.438199
100.170244,7105.977043,9400.615463,76.609550
100.170564,6661.853478,7031.956449,536.266849
100.170885,5773.606348,5773.606348,689.485948
100.171206,4737.318029,6217.729913,-536.266849
100.171527,4145.153275,6439.791695,-2374.896044
100.171848,4367.215058,6809.894666,-2834.553343
100.172169,5255.462188,7476.080014,-1991.848295
100.172489,5551.544565,8956.491898,-459.657299
100.172810,5033.400406,11177.109724,689.485948
100.173131,4663.297435,11917.315666,2068.457845
100.173452,4367.215058,10362.883188,1685.410096
100.173773,4737.318029,7624.121203,1915.238745
100.174094,4737.318029,6735.874072,2374.896044
100.174414,3775.050304,7476.080014,536.266849
100.174735,3182.885551,7920.203579,-1378.971896
100.175056,2960.823768,8068.244768,-3064.381992
100.175377,4959.379811,7328.038826,-2145.067394
100.175698,6143.709319,8068.244768,-153.219100
100.176019,5625.565159,9326.594869,1302.362347
100.176339,4663.297435,10807.006753,766.095498
100.176660,4293.194464,10658.965565,689.485948
100.176981,4515.256246,9104.533087,842.705048
100.177302,4811.338623,7550.100608,1072.533697
100.177623,4589.276840,7698.141797,76.609550
100.177944,4145.153275,7994.224174,-1302.362347
100.178264,3256.906145,7698.141797,-3294.210641
100.178585,3775.050304,7105.977043,-3294.210641
100.178906,4811.338623,7254.018232,-1685.410096
100.179227,4811.338623,8216.285956,-383.047749
100.179548,4515.256246,10214.842000,1378.971896
100.179868,4737.318029,10807.006753,1838.629195
100.180189,4589.276840,9252.574275,1685.410096
100.180510,4811.338623,7402.059420,1532.190996
100.180831,4737.318029,7031.956449,1532.190996
100.181152,3997.112087,7254.018232,153.219100
100.181472,3627.009116,6365.771101,-2451.505594
100.181793,4515.256246,5921.647536,-2528.115143
100.182114,5477.523971,6291.750507,-1838.629195
100.182435,6513.812290,7105.977043,0.000000
100.182756,6735.874072,8586.388927,995.924147
100.183076,6365.771101,9992.780217,995.924147
100.183397,6439.791695,9548.656652,995.924147
100.183718,6661.853478,7772.162391,1225.752797
100.184039,5921.647536,6735.874072,1378.971896
100.184360,5477.523971,6365.771101,229.828649
100.184680,5551.544565,6365.771101,-1455.581446
100.185001,4441.235652,6439.791695,-3217.601092
100.185322,4811.338623,5773.606348,-3064.381992
100.185643,6365.771101,6587.832884,-1149.143247
100.185963,6365.771101,8438.347739,536.266849
100.186284,5551.544565,10288.862594,1532.190996
100.186605,6143.709319,10584.944971,1608.800546
100.186926,6809.894666,9030.512492,919.314598
100.187247,6217.729913,7105.977043,1378.971896
100.187567,5847.626942,7105.977043,1149.143247
100.187888,4811.338623,7031.956449,-689.485948
100.188209,4367.215058,6143.709319,-2145.067394
100.188530,4737.318029,5995.668130,-2911.162892
100.188851,6143.709319,7031.956449,-1838.629195
100.189171,5847.626942,8364.327145,-306.438199
100.189492,5255.462188,9992.780217,766.095498
100.189813,5107.421000,10732.986159,1225.752797
100.190134,4885.359217,9992.780217,1991.848295
100.190455,5329.482782,8512.368333,2298.286494
100.190775,4515.256246,7402.059420,1532.190996
100.191096,4145.153275,7624.121203,-459.657299
100.191417,3478.967927,7254.018232,-2757.943793
100.191738,3182.885551,7031.956449,-3524.039291
100.192059,4737.318029,7105.977043,-1838.629195
100.192379,5699.585753,7994.224174,-153.219100
100.192700,4885.359217,9548.656652,229.828649
100.193021,4515.256246,11177.109724,689.485948
100.193342,4441.235652,11029.068536,1532.190996
100.193663,4589.276840,9326.594869,1302.362347
100.193983,4737.318029,7772.162391,1608.800546
100.194304,4293.194464,7846.182985,689.485948
100.194625,3182.885551,8216.285956,-1762.019645
100.194946,2960.823768,7624.121203,-2911.162892
100.195267,3552.988522,6957.935855,-2987.772442
100.195587,4589.276840,7328.038826,-1685.410096
100.195908,4663.297435,8660.409521,0.000000
100.196229,4145.153275,10584.944971,1378.971896
100.196550,4145.153275,11325.150913,2298.286494
100.196871,4071.132681,10362.883188,2145.067394
100.197191,4589.276840,8290.306550,1072.533697
100.197512,4145.153275,7476.080014,153.219100
100.197833,4071.132681,7846.182985,-1149.143247
100.198154,3404.947333,7328.038826,-2681.334243
100.198474,3997.112087,6069.688724,-2451.505594
100.198795,5107.421000,6883.915261,-1532.190996
100.199116,5477.523971,7846.182985,459.657299
100.199437,5329.482782,9770.718434,1455.581446
100.199758,6069.688724,10807.006753,995.924147
100.200078,6661.853478,8956.491898,1149.143247
100.200399,6809.894666,6661.853478,1455.581446
100.200720,6809.894666,5921.647536,1915.238745
100.201041,6143.709319,5921.647536,919.314598
100.201362,5403.503377,5921.647536,-1838.629195
100.201682,5403.503377,5551.544565,-3600.648841
100.202003,6661.853478,4811.338623,-3217.601092
100.202324,7476.080014,5921.647536,-1915.238745
100.202645,7179.997637,7624.121203,153.219100
100.202966,7624.121203,9474.636058,689.485948
100.203286,7254.018232,10066.800811,1149.143247
100.203607,6587.832884,8512.368333,689.485948
100.203928,5847.626942,6957.935855,919.314598
100.204249,4811.338623,6957.935855,306.438199
100.204570,3997.112087,7402.059420,-1378.971896
100.204890,3627.009116,7105.977043,-2681.334243
100.205211,4145.153275,6439.791695,-2221.676944
100.205532,4589.276840,6957.935855,-1378.971896
100.205853,4737.318029,7994.224174,76.609550
100.206174,3849.070898,10140.821405,1149.143247
100.206494,3775.050304,11695.253884,1608.800546
100.206815,4219.173869,10732.986159,2298.286494
100.207136,4885.359217,8364.327145,2145.067394
100.207457,4589.276840,7328.038826,1532.190996
100.207778,3552.988522,7920.203579,0.000000
100.208098,2368.659014,7772.162391,-2451.505594
100.208419,2960.823768,7031.956449,-3600.648841
100.208740,4737.318029,7105.977043,-2911.162892
100.209061,5773.606348,8808.450710,-689.485948
100.209381,5551.544565,10881.027347,229.828649
100.209702,4663.297435,12435.459826,842.705048
100.210023,4367.215058,11843.295072,689.485948
100.210344,4071.132681,9770.718434,919.314598
100.210665,3849.070898,7624.121203,1149.143247
100.210985,3552.988522,7698.141797,459.657299
100.211306,2368.659014,8660.409521,-1378.971896
100.211627,1554.432478,9252.574275,-3600.648841
100.211948,2368.659014,8290.306550,-3447.429741
100.212269,3182.885551,8142.265362,-1072.533697
100.212589,3478.967927,9326.594869,1072.533697
100.212910,3108.864956,10807.006753,2528.115143
100.213231,3404.947333,11547.212695,2374.896044
100.213552,4219.173869,9992.780217,1685.410096
100.213873,5033.400406,8364.327145,2681.334243
100.214193,5033.400406,7179.997637,1149.143247
100.214514,4589.276840,6809.894666,-306.438199
100.214835,4589.276840,6661.853478,-2374.896044
100.215156,5033.400406,5847.626942,-2834.553343
100.215477,6439.791695,5403.503377,-2068.457845
100.215797,7550.100608,6365.771101,-842.705048
100.216118,7254.018232,9104.533087,1072.533697
100.216439,7031.956449,10510.924376,1302.362347
100.216760,7179.997637,9252.574275,1149.143247
100.217081,7698.141797,6809.894666,919.314598
100.217401,6809.894666,5329.482782,1532.190996
100.217722,6143.709319,5181.441594,153.219100
100.218043,5625.565159,4959.379811,-2068.457845
100.218364,5625.565159,5551.544565,-2987.772442
100.218685,6365.771101,5625.565159,-2604.724693
100.219005,7179.997637,6069.688724,-995.924147
100.219326,7254.018232,7328.038826,612.876398
100.219647,6735.874072,9326.594869,1532.190996
100.219968,6291.750507,9548.656652,1532.190996
100.220289,6735.874072,7772.162391,995.924147
100.220609,6513.812290,5995.668130,1302.362347
100.220930,5921.647536,6143.709319,612.876398
100.221251,4737.318029,6735.874072,-1225.752797
100.221572,4367.215058,6883.915261,-3294.210641
100.221892,5033.400406,6957.935855,-3524.039291
100.222213,6069.688724,7179.997637,-1608.800546
100.222534,6957.935855,8142.265362,383.047749
100.222855,6217.729913,9696.697840,2068.457845
100.223176,4811.338623,11177.109724,1608.800546
100.223496,4811.338623,10732.986159,1762.019645
100.223817,4589.276840,8290.306550,1838.629195
100.224138,4737.318029,7105.977043,1149.143247
100.224459,4737.318029,7105.977043,0.000000
100.224780,3256.906145,7328.038826,-2528.115143
100.225100,2738.761985,7402.059420,-3600.648841
100.225421,4145.153275,7476.080014,-2451.505594
100.225742,4589.276840,8290.306550,-689.485948
100.226063,4885.359217,10584.944971,1532.190996
100.226384,4219.173869,12361.439231,1838.629195
100.226704,3849.070898,11917.315666,689.485948
100.227025,4145.153275,10362.883188,306.438199
100.227346,4441.235652,9030.512492,612.876398
100.227667,3478.967927,7698.141797,-229.828649
100.227988,2738.761985,7476.080014,-1225.752797
100.228308,2368.659014,7624.121203,-2298.286494
100.228629,2590.720797,7772.162391,-2834.553343
100.228950,3849.070898,7846.182985,-459.657299
100.229271,4589.276840,9474.636058,459.657299
100.229592,4367.215058,10807.006753,1302.362347
100.229912,4219.173869,11251.130318,1991.848295
100.230233,4663.297435,10066.800811,1532.190996
100.230554,4071.132681,7772.162391,1225.752797
100.230875,4219.173869,6883.915261,995.924147
100.231196,4219.173869,6957.935855,-919.314598
100.231516,3404.947333,7179.997637,-2604.724693
100.231837,4071.132681,7328.038826,-3217.601092
100.232158,5921.647536,7476.080014,-1991.848295
100.232479,6439.791695,7550.100608,-383.047749
100.232799,5773.606348,8734.430116,1378.971896
100.233120,5477.523971,10214.842000,1455.581446
100.233441,5625.565159,9548.656652,1532.190996
100.233762,5773.606348,7846.182985,1302.362347
100.234083,6069.688724,5995.668130,1532.190996
100.234403,5403.503377,6217.729913,153.219100
100.234724,4737.318029,5995.668130,-1532.190996
100.235045,4515.256246,5773.606348,-2911.162892
100.235366,5625.565159,5773.606348,-2604.724693
100.235687,7105.977043,5921.647536,-459.657299
100.236007,7402.059420,7698.141797,919.314598
100.236328,6957.935855,9104.533087,2298.286494
100.236649,6661.853478,9770.718434,1838.629195
100.236970,6883.915261,8290.306550,1225.752797
100.237291,6661.853478,6661.853478,919.314598
100.237611,6365.771101,5847.626942,0.000000
100.237932,5403.503377,5625.565159,-1608.800546
100.238253,5551.544565,5625.565159,-2681.334243
100.238574,5477.523971,5847.626942,-2834.553343
100.238895,6069.688724,6735.874072,-1532.190996
100.239215,6365.771101,7624.121203,383.047749
100.239536,5921.647536,9548.656652,995.924147
100.239857,5847.626942,10658.965565,1378.971896
100.240178,6069.688724,10140.821405,1302.362347
100.240499,5699.585753,7698.141797,919.314598
100.240819,4959.379811,6661.853478,459.657299
100.241140,4145.153275,6661.853478,-383.047749
100.241461,3478.967927,7105.977043,-1685.410096
100.241782,3552.988522,7328.038826,-2604.724693
100.242103,4219.173869,7994.224174,-2451.505594
100.242423,5033.400406,8512.368333,-766.095498
100.242744,4737.318029,9992.780217,689.485948
100.243065,4293.194464,11251.130318,1378.971896
100.243386,4441.235652,11177.109724,1685.410096
100.243707,4367.215058,9548.656652,995.924147
100.244027,4071.132681,8290.306550,459.657299
100.244348,3923.091493,8068.244768,229.828649
100.244669,3330.926739,8290.306550,-1378.971896
100.244990,2812.782580,8660.409521,-3370.820191
100.245310,3256.906145,8068.244768,-3140.991542
100.245631,4589.276840,8290.306550,-1532.190996
100.245952,4737.318029,9252.574275,306.438199
100.246273,3997.112087,11251.130318,1915.238745
100.246594,4441.235652,11991.336260,1378.971896
100.246914,4441.235652,10955.047942,1149.143247
100.247235,4589.276840,8068.244768,1149.143247
100.247556,4885.359217,6957.935855,919.314598
100.247877,4367.215058,7328.038826,-153.219100
100.248198,3256.906145,7698.141797,-2145.067394
100.248518,3775.050304,7031.956449,-3064.381992
100.248839,5107.421000,6957.935855,-2604.724693
100.249160,6217.729913,7772.162391,0.000000
100.249481,5921.647536,9326.594869,1838.629195
100.249802,5699.585753,10807.006753,2451.505594
100.250122,5551.544565,10881.027347,1838.629195
100.250443,5329.482782,8734.430116,1378.971896
100.250764,4885.359217,6587.832884,689.485948
100.251085,5625.565159,5255.462188,229.828649
100.251406,4737.318029,5255.462188,-842.705048
100.251726,4441.235652,5181.441594,-1762.019645
100.252047,5181.441594,5625.565159,-2451.505594
100.252368,5995.668130,6365.771101,-1532.190996
100.252689,6661.853478,7698.141797,459.657299
100.253010,6661.853478,9474.636058,1838.629195
100.253330,7105.977043,9474.636058,1991.848295
100.253651,7105.977043,7846.182985,1378.971896
100.253972,6735.874072,6291.750507,995.924147
100.254293,6069.688724,5033.400406,306.438199
100.254614,5773.606348,4811.338623,-1378.971896
100.254934,5033.400406,5329.482782,-2681.334243
100.255255,6143.709319,5995.668130,-3447.429741
100.255576,7105.977043,6661.853478,-1838.629195
100.255897,7105.977043,7105.977043,-383.047749
100.256217,6069.688724,9474.636058,1532.190996
100.256538,5403.503377,10658.965565,2451.505594
100.256859,4885.359217,9918.759623,1838.629195
100.257180,4589.276840,7624.121203,1225.752797
100.257501,4145.153275,6587.832884,919.314598
100.257821,3552.988522,6439.791695,0.000000
100.258142,2664.741391,6735.874072,-1838.629195
100.258463,2590.720797,7179.997637,-3294.210641
100.258784,4367.215058,7550.100608,-3140.991542
100.259105,4811.338623,9030.512492,-842.705048
100.259425,4959.379811,10732.986159,612.876398
100.259746,4441.235652,12139.377449,1685.410096
100.260067,4367.215058,11843.295072,1532.190996
100.260388,4737.318029,9844.739029,1149.143247
100.260709,4663.297435,7920.203579,842.705048
100.261029,4219.173869,7550.100608,-536.266849
100.261350,3330.926739,7994.224174,-1838.629195
100.261671,3182.885551,8216.285956,-2757.943793
100.261992,4293.194464,7624.121203,-2528.115143
100.262313,5181.441594,7624.121203,-1378.971896
100.262633,5329.482782,9104.533087,76.609550
100.262954,5181.441594,11769.274478,1685.410096
100.263275,4515.256246,12509.480420,1685.410096
100.263596,4663.297435,10881.027347,995.924147
100.263917,5329.482782,8290.306550,919.314598
100.264237,4885.359217,7179.997637,76.609550
100.264558,3775.050304,7328.038826,-919.314598
100.264879,3404.947333,7550.100608,-1915.238745
100.265200,3775.050304,7179.997637,-2681.334243
100.265521,4737.318029,7328.038826,-1915.238745
100.265841,5625.565159,8068.244768,0.000000
100.266162,5255.462188,9622.677246,1225.752797
100.266483,4737.318029,11695.253884,1608.800546
100.266804,4441.235652,10436.903782,1762.019645
100.267124,5403.503377,7772.162391,1378.971896
100.267445,5033.400406,5847.626942,1225.752797
100.267766,4219.173869,6069.688724,76.609550
100.268087,3997.112087,6883.915261,-1685.410096
100.268408,3701.029710,6809.894666,-2987.772442
100.268728,4737.318029,5995.668130,-2834.553343
100.269049,6735.874072,6217.729913,-1072.533697
100.269370,7105.977043,7624.121203,1302.362347
100.269691,6291.750507,9992.780217,2145.067394
100.270012,5625.565159,10140.821405,1302.362347
100.270332,5995.668130,8216.285956,766.095498
100.270653,6513.812290,5847.626942,1149.143247
100.270974,6439.791695,4959.379811,1225.752797
100.271295,6069.688724,5181.441594,-1072.533697
100.271616,4663.297435,5699.585753,-3140.991542
100.271936,5033.400406,5921.647536,-3447.429741
100.272257,6587.832884,6217.729913,-1991.848295
100.272578,7402.059420,6587.832884,76.609550
100.272899,6735.874072,9030.512492,1532.190996
100.273220,6069.688724,10584.944971,1762.019645
100.273540,6143.709319,9696.697840,1378.971896
100.273861,5699.585753,7179.997637,1072.533697
100.274182,5625.565159,6365.771101,536.266849
100.274503,5181.441594,6809.894666,-536.266849
100.274824,3775.050304,7105.977043,-2451.505594
100.275144,3256.906145,7105.977043,-2987.772442
100.275465,4367.215058,7254.018232,-2221.676944
100.275786,5773.606348,9252.574275,-306.438199
100.276107,4589.276840,10066.800811,1532.190996
100.276428,3923.091493,11769.274478,1455.581446
100.276748,4293.194464,11621.233289,1225.752797
100.277069,3849.070898,9696.697840,1072.533697
100.277390,3849.070898,7846.182985,1608.800546
100.277711,3849.070898,7254.018232,842.705048
100.278032,3108.864956,7994.224174,-919.314598
100.278352,2516.700203,8290.306550,-2451.505594
100.278673,3478.967927,8142.265362,-2528.115143
100.278994,4663.297435,7994.224174,-1378.971896
100.279315,5107.421000,9178.553681,229.828649
100.279635,4811.338623,11029.068536,1225.752797
100.279956,4737.318029,11843.295072,1149.143247
100.280277,4737.318029,9992.780217,1149.143247
100.280598,4959.379811,8216.285956,766.095498
100.280919,5107.421000,7846.182985,153.219100
100.281239,3849.070898,8290.306550,-1072.533697
100.281560,3404.947333,7550.100608,-2528.115143
100.281881,4441.235652,7105.977043,-2757.943793
100.282202,5551.544565,6735.874072,-1685.410096
100.282523,5625.565159,7624.121203,229.828649
100.282844,4959.379811,9326.594869,995.924147
100.283164,4663.297435,10955.047942,1149.143247
100.283485,4885.359217,10214.842000,1685.410096
100.283806,6069.688724,7698.141797,1455.581446
100.284127,5625.565159,6587.832884,919.314598
100.284448,4885.359217,7179.997637,306.438199
100.284768,3627.009116,7031.956449,-1915.238745
100.285089,3775.050304,6069.688724,-3294.210641
100.285410,5255.462188,5699.585753,-2451.505594
100.285731,6439.791695,6513.812290,0.000000
100.286052,6587.832884,8142.265362,1149.143247
100.286372,6291.750507,10436.903782,919.314598
100.286693,6439.791695,10732.986159,919.314598
100.287014,6661.853478,8364.327145,459.657299
100.287335,7105.977043,5329.482782,1608.800546
100.287656,6217.729913,5551.544565,689.485948
100.287977,4737.318029,5921.647536,-1302.362347
100.288297,4293.194464,6809.894666,-2374.896044
100.288618,5107.421000,6661.853478,-2451.505594
100.288939,6365.771101,7031.956449,-1532.190996
100.289260,6365.771101,8290.306550,153.219100
100.289581,5033.400406,10214.842000,612.876398
100.289901,4441.235652,10955.047942,1378.971896
100.290222,4811.338623,9326.594869,2298.286494
100.290543,5033.400406,6883.915261,1991.848295
100.290864,4441.235652,5995.668130,1685.410096
100.291185,3182.885551,7105.977043,-306.438199
100.291506,3108.864956,7920.203579,-2298.286494
100.291826,3849.070898,7550.100608,-2757.943793
100.292147,5181.441594,7105.977043,-2068.457845
100.292468,6217.729913,7328.038826,0.000000
100.292789,5551.544565,9178.553681,1302.362347
100.293110,4589.276840,10732.986159,1378.971896
100.293430,4737.318029,10140.821405,1532.190996
100.293751,5551.544565,8438.347739,1378.971896
100.294072,5625.565159,7105.977043,1378.971896
100.294393,5107.421000,7550.100608,153.219100
100.294714,4145.153275,8068.244768,-1685.410096
100.295034,3701.029710,6883.915261,-2987.772442
100.295355,4367.215058,6587.832884,-2987.772442
100.295676,5699.585753,7031.956449,-995.924147
100.295997,5255.462188,8364.327145,0.000000
100.296318,4589.276840,10436.903782,689.485948
100.296639,4293.194464,11843.295072,995.924147
100.296959,4811.338623,10658.965565,2145.067394
100.297280,5181.441594,8068.244768,1532.190996
100.297601,4219.173869,7328.038826,306.438199
100.297922,3552.988522,7624.121203,-1225.752797
100.298243,2960.823768,7328.038826,-2451.505594
100.298563,3552.988522,7105.977043,-2298.286494
100.298884,4737.318029,7179.997637,-1378.971896
100.299205,5477.523971,8290.306550,76.609550
100.299526,5107.421000,10362.883188,1302.362347
100.299847,4811.338623,11103.089130,1532.190996
100.300168,5773.606348,10288.862594,1838.629195
100.300488,6439.791695,6883.915261,1838.629195
100.300809,5773.606348,5107.421000,1149.143247
100.301130,5181.441594,5847.626942,0.000000
100.301451,4293.194464,7698.141797,-1838.629195
100.301772,4293.194464,7254.018232,-2834.553343
100.302092,5995.668130,6661.853478,-3064.381992
100.302413,7402.059420,6957.935855,-1685.410096
100.302734,6883.915261,8734.430116,76.609550
100.303055,5921.647536,10066.800811,1838.629195
100.303376,5255.462188,10288.862594,1685.410096
100.303696,5847.626942,8882.471304,1302.362347
100.304017,5181.441594,6661.853478,919.314598
100.304338,4589.276840,6587.832884,-229.828649
100.304659,3256.906145,7624.121203,-1991.848295
100.304980,2886.803174,7994.224174,-2451.505594
100.305301,4071.132681,7105.977043,-2221.676944
100.305621,5329.482782,6439.791695,-1149.143247
100.305942,4737.318029,7179.997637,995.924147
100.306263,4145.153275,9918.759623,1685.410096
100.306584,4145.153275,11325.150913,1532.190996
100.306905,4737.318029,10362.883188,1455.581446
100.307225,5625.565159,7698.141797,1838.629195
100.307546,6069.688724,6439.791695,842.705048
100.307867,4589.276840,7031.956449,-995.924147
100.308188,3256.906145,7254.018232,-2451.505594
100.308509,4737.318029,6439.791695,-2911.162892
100.308829,6143.709319,6513.812290,-2604.724693
100.309150,6587.832884,6587.832884,-1149.143247
100.309471,5995.668130,8882.471304,306.438199
100.309792,5181.441594,11103.089130,1225.752797
100.310113,4959.379811,11325.150913,1608.800546
100.310434,4737.318029,9252.574275,995.924147
100.310754,4811.338623,7254.018232,0.000000
100.311075,4071.132681,6809.894666,-306.438199
100.311396,3256.906145,7402.059420,-766.095498
100.311717,3256.906145,7105.977043,-1455.581446
100.312038,4367.215058,7105.977043,-1838.629195
100.312358,5255.462188,7402.059420,-1225.752797
100.312679,4737.318029,8438.347739,0.000000
100.313000,4663.297435,10214.842000,766.095498
100.313321,4737.318029,11103.089130,1685.410096
100.313642,5255.462188,9918.759623,1685.410096
100.313963,5551.544565,7624.121203,995.924147
100.314283,5699.585753,7105.977043,0.000000
100.314604,4219.173869,7402.059420,-1378.971896
100.314925,3552.988522,7994.224174,-2374.896044
100.315246,4885.359217,7105.977043,-2451.505594
100.315567,6069.688724,6883.915261,-1915.238745
100.315887,6809.894666,7772.162391,306.438199
100.316208,6143.709319,9326.594869,995.924147
100.316529,5033.400406,10732.986159,995.924147
100.316850,5033.400406,10066.800811,1302.362347
100.317171,5477.523971,7698.141797,1532.190996
100.317491,5477.523971,6587.832884,842.705048
100.317812,5033.400406,7031.956449,0.000000
100.318133,4219.173869,7476.080014,-1302.362347
100.318454,4071.132681,7476.080014,-2681.334243
100.318775,5403.503377,6957.935855,-2298.286494
100.319096,5477.523971,7179.997637,-1838.629195
100.319416,5625.565159,8512.368333,459.657299
100.319737,5181.441594,9844.739029,1608.800546
100.320058,5403.503377,10214.842000,2298.286494
100.320379,5477.523971,8586.388927,1685.410096
100.320700,5551.544565,7031.956449,1378.971896
100.321020,5625.565159,6217.729913,-306.438199
100.321341,4737.318029,6661.853478,-1532.190996
100.321662,4737.318029,6143.709319,-2451.505594
100.321983,5773.606348,6217.729913,-2298.286494
100.322304,6809.894666,6217.729913,-1378.971896
100.322625,6217.729913,7476.080014,-306.438199
100.322945,5625.565159,9474.636058,0.000000
100.323266,5255.462188,10510.924376,1532.190996
100.323587,5699.585753,9474.636058,1915.238745
100.323908,5847.626942,7550.100608,1455.581446
100.324229,5181.441594,6143.709319,0.000000
100.324549,3775.050304,6809.894666,-1455.581446
100.324870,3404.947333,7254.018232,-2068.457845
100.325191,4293.194464,7105.977043,-1915.238745
100.325512,5329.482782,7105.977043,-1838.629195
100.325833,5477.523971,7105.977043,-842.705048
100.326153,5329.482782,9178.553681,76.609550
100.326474,4441.235652,11029.068536,1455.581446
100.326795,4737.318029,10658.965565,1685.410096
100.327116,5255.462188,8808.450710,1302.362347
100.327437,5477.523971,7031.956449,689.485948
100.327758,4441.235652,7105.977043,-229.828649
100.328078,3404.947333,7698.141797,-1455.581446
100.328399,3775.050304,7772.162391,-2451.505594
100.328720,4367.215058,7772.162391,-2451.505594
100.329041,5551.544565,7402.059420,-1149.143247
100.329362,6069.688724,8216.285956,0.000000
100.329682,5033.400406,10362.883188,1455.581446
100.330003,4737.318029,10881.027347,1608.800546
100.330324,4737.318029,9178.553681,2068.457845
100.330645,5107.421000,7105.977043,1378.971896
100.330966,4811.338623,7402.059420,536.266849
100.331287,4071.132681,7994.224174,-1302.362347
100.331607,3552.988522,8216.285956,-2757.943793
100.331928,5033.400406,7476.080014,-2604.724693
100.332249,5477.523971,7105.977043,-1072.533697
100.332570,5551.544565,7254.018232,0.000000
100.332891,5551.544565,9030.512492,1532.190996
100.333211,5033.400406,11177.109724,2068.457845
100.333532,4737.318029,10955.047942,2374.896044
100.333853,5255.462188,9030.512492,1149.143247
100.334174,4811.338623,6735.874072,-76.609550
100.334495,4441.235652,6513.812290,-689.485948
100.334815,4145.153275,6735.874072,-689.485948
100.335136,4367.215058,6439.791695,-2298.286494
100.335457,4885.359217,6365.771101,-1991.848295
100.335778,5255.462188,7402.059420,-1378.971896
100.336099,5033.400406,9252.574275,0.000000
100.336420,4589.276840,10510.924376,1608.800546
100.336740,4663.297435,10584.944971,2145.067394
100.337061,5551.544565,8438.347739,1532.190996
100.337382,4885.359217,6439.791695,919.314598
100.337703,4515.256246,6661.853478,-459.657299
100.338024,4219.173869,6957.935855,-1685.410096
100.338344,4441.235652,7624.121203,-2451.505594
100.338665,5477.523971,7105.977043,-2451.505594
100.338986,6217.729913,6957.935855,-1149.143247
100.339307,6069.688724,7402.059420,0.000000
100.339628,4959.379811,8956.491898,1455.581446
100.339949,5181.441594,10140.821405,1072.533697
100.340269,5773.606348,8882.471304,1149.143247
100.340590,5921.647536,7031.956449,459.657299
