#time,accel_x,accel_y,accel_z
169.262181,5107.421000,7994.224174,0.000000
169.262502,5033.400406,8364.327145,0.000000
169.262823,5255.462188,8216.285956,0.000000
169.263145,4885.359217,7920.203579,0.000000
169.263466,5181.441594,7994.224174,0.000000
169.263787,4959.379811,7994.224174,-229.828649
169.264108,5107.421000,8142.265362,0.000000
169.264429,5181.441594,8438.347739,0.000000
169.264750,5107.421000,8216.285956,0.000000
169.265072,5181.441594,7994.224174,-229.828649
169.265393,5107.421000,8290.306550,-153.219100
169.265714,5255.462188,7994.224174,0.000000
169.266035,5181.441594,8068.244768,0.000000
169.266356,5033.400406,7698.141797,306.438199
169.266677,5255.462188,8216.285956,0.000000
169.266999,5033.400406,7994.224174,-229.828649
169.267320,4885.359217,8068.244768,0.000000
169.267641,5033.400406,8142.265362,0.000000
169.267962,4959.379811,7994.224174,-153.219100
169.268283,5181.441594,8142.265362,0.000000
169.268604,4959.379811,8142.265362,-229.828649
169.268926,5181.441594,7846.182985,0.000000
169.269247,4959.379811,8142.265362,-76.609550
169.269568,4885.359217,7920.203579,0.000000
169.269889,5107.421000,8068.244768,-153.219100
169.270210,5033.400406,7994.224174,0.000000
169.270531,4959.379811,8142.265362,0.000000
169.270853,4811.338623,8438.347739,229.828649
169.271174,4811.338623,7994.224174,0.000000
169.271495,4737.318029,8068.244768,-306.438199
169.271816,4589.276840,7846.182985,-383.047749
169.272137,4515.256246,8068.244768,-229.828649
169.272458,4589.276840,8216.285956,76.609550
169.272779,4737.318029,9252.574275,-842.705048
169.273101,4811.338623,9178.553681,-842.705048
169.273422,5107.421000,9252.574275,-995.924147
169.273743,5033.400406,9326.594869,0.000000
169.274064,4441.235652,9696.697840,306.438199
169.274385,3849.070898,7994.224174,459.657299
169.274706,3404.947333,6957.935855,459.657299
169.275028,3849.070898,7105.977043,459.657299
169.275349,4071.132681,7772.162391,-306.438199
169.275670,4071.132681,7772.162391,-689.485948
169.275991,4589.276840,8660.409521,-919.314598
169.276312,4367.215058,8290.306550,-306.438199
169.276633,4367.215058,9104.533087,536.266849
169.276955,4071.132681,9474.636058,0.000000
169.277276,2960.823768,8956.491898,-995.924147
169.277597,3108.864956,9548.656652,-1378.971896
169.277918,3552.988522,10807.006753,-383.047749
169.278239,2220.617826,11325.150913,-995.924147
169.278560,1332.370696,10214.842000,-995.924147
169.278882,1776.494261,9918.759623,-229.828649
169.279203,1406.391290,10510.924376,306.438199
169.279524,-444.123565,10288.862594,0.000000
169.279845,444.123565,9844.739029,-153.219100
169.280166,962.267725,9918.759623,229.828649
169.280487,592.164754,10436.903782,2145.067394
169.280809,1184.329507,10214.842000,2757.943793
169.281130,1480.411884,10140.821405,995.924147
169.281451,1406.391290,10732.986159,-689.485948
169.281772,1110.308913,11251.130318,-612.876398
169.282093,1554.432478,9770.718434,-919.314598
169.282414,3256.906145,8956.491898,0.000000
169.282736,3256.906145,9770.718434,0.000000
169.283057,2368.659014,9252.574275,-229.828649
169.283378,2590.720797,9918.759623,-995.924147
169.283699,3108.864956,10510.924376,-1378.971896
169.284020,3478.967927,9696.697840,-383.047749
169.284341,4959.379811,9326.594869,459.657299
169.284663,5181.441594,9400.615463,306.438199
169.284984,3775.050304,9326.594869,-536.266849
169.285305,3404.947333,8438.347739,-842.705048
169.285626,3997.112087,7328.038826,-919.314598
169.285947,3849.070898,6883.915261,-229.828649
169.286268,4367.215058,6957.935855,689.485948
169.286590,4885.359217,7624.121203,689.485948
169.286911,5033.400406,7846.182985,153.219100
169.287232,5625.565159,7698.141797,229.828649
169.287553,5847.626942,6809.894666,229.828649
169.287874,6587.832884,5625.565159,0.000000
169.288195,7254.018232,5921.647536,0.000000
169.288516,7328.038826,6217.729913,-383.047749
169.288838,7920.203579,5625.565159,-536.266849
169.289159,8586.388927,5847.626942,-383.047749
169.289480,7846.182985,6513.812290,-766.095498
169.289801,8068.244768,7031.956449,-612.876398
169.290122,8216.285956,6735.874072,-1149.143247
169.290443,7476.080014,6735.874072,-1378.971896
169.290765,7105.977043,6587.832884,-612.876398
169.291086,6735.874072,6513.812290,-306.438199
169.291407,6143.709319,6809.894666,-1072.533697
169.291728,5921.647536,7105.977043,-689.485948
169.292049,5477.523971,7994.224174,0.000000
169.292370,4737.318029,8142.265362,-153.219100
169.292692,4145.153275,8512.368333,0.000000
169.293013,4145.153275,9252.574275,229.828649
169.293334,4071.132681,9992.780217,1149.143247
169.293655,3849.070898,9474.636058,76.609550
169.293976,3775.050304,9252.574275,306.438199
169.294297,3330.926739,8882.471304,306.438199
169.294619,3108.864956,8956.491898,919.314598
169.294940,3627.009116,8438.347739,1225.752797
169.295261,4071.132681,8808.450710,612.876398
169.295582,4737.318029,8734.430116,0.000000
169.295903,5403.503377,8882.471304,-306.438199
169.296224,5255.462188,8956.491898,-153.219100
169.296546,5625.565159,8734.430116,612.876398
169.296867,5625.565159,8216.285956,-306.438199
169.297188,5847.626942,7920.203579,-306.438199
169.297509,5847.626942,8512.368333,-766.095498
169.297830,5477.523971,9104.533087,-1072.533697
169.298151,5181.441594,9030.512492,-1302.362347
169.298473,4959.379811,9030.512492,-919.314598
169.298794,4219.173869,9178.553681,-842.705048
169.299115,3775.050304,9104.533087,-689.485948
169.299436,3330.926739,9104.533087,-536.266849
169.299757,2368.659014,9178.553681,0.000000
169.300078,2442.679609,9178.553681,0.000000
169.300400,2516.700203,9104.533087,0.000000
169.300721,1998.556043,9474.636058,76.609550
169.301042,2220.617826,9474.636058,919.314598
169.301363,2812.782580,9326.594869,536.266849
169.301684,2886.803174,8808.450710,459.657299
169.302005,3256.906145,8660.409521,536.266849
169.302326,3923.091493,8216.285956,766.095498
169.302648,4515.256246,7328.038826,612.876398
169.302969,4959.379811,6883.915261,1302.362347
169.303290,5625.565159,6735.874072,919.314598
169.303611,6365.771101,6439.791695,229.828649
169.303932,6883.915261,6217.729913,-383.047749
169.304253,7550.100608,6587.832884,-612.876398
169.304575,8290.306550,6365.771101,-689.485948
169.304896,8660.409521,6365.771101,-995.924147
169.305217,7920.203579,6587.832884,-995.924147
169.305538,7698.141797,6735.874072,-1225.752797
169.305859,7179.997637,7105.977043,-1302.362347
169.306180,6883.915261,7031.956449,-1302.362347
169.306502,6587.832884,7328.038826,-1072.533697
169.306823,6143.709319,7550.100608,-1072.533697
169.307144,5773.606348,7698.141797,-766.095498
169.307465,4959.379811,8068.244768,-995.924147
169.307786,4589.276840,8290.306550,-1072.533697
169.308107,4145.153275,8068.244768,-229.828649
169.308429,3775.050304,8512.368333,459.657299
169.308750,3552.988522,8808.450710,689.485948
169.309071,3330.926739,9104.533087,612.876398
169.309392,3478.967927,8956.491898,536.266849
169.309713,3404.947333,9104.533087,459.657299
169.310034,3478.967927,9104.533087,766.095498
169.310356,3997.112087,8956.491898,766.095498
169.310677,4219.173869,8660.409521,842.705048
169.310998,4589.276840,8734.430116,612.876398
169.311319,4811.338623,8068.244768,306.438199
169.311640,5107.421000,7994.224174,0.000000
169.311961,5403.503377,7402.059420,-229.828649
169.312283,5773.606348,7476.080014,-536.266849
169.312604,6365.771101,7846.182985,-612.876398
169.312925,6217.729913,8142.265362,-536.266849
169.313246,5847.626942,8364.327145,-842.705048
169.313567,5847.626942,8734.430116,-1685.410096
169.313888,5625.565159,8660.409521,-1915.238745
169.314210,5477.523971,8364.327145,-1915.238745
169.314531,4737.318029,8808.450710,-1302.362347
169.314852,4441.235652,8956.491898,-1072.533697
169.315173,3849.070898,8734.430116,-842.705048
169.315494,3478.967927,8808.450710,-459.657299
169.315815,3182.885551,9030.512492,0.000000
169.316137,2886.803174,9178.553681,-153.219100
169.316458,2886.803174,8808.450710,0.000000
169.316779,2886.803174,8882.471304,383.047749
169.317100,3034.844362,8660.409521,919.314598
169.317421,3108.864956,8438.347739,919.314598
169.317742,3627.009116,8364.327145,1072.533697
169.318063,3997.112087,8364.327145,1302.362347
169.318385,4441.235652,8216.285956,995.924147
169.318706,5033.400406,7994.224174,689.485948
169.319027,5625.565159,7328.038826,383.047749
169.319348,5921.647536,7031.956449,536.266849
169.319669,6809.894666,6883.915261,306.438199
169.319990,6809.894666,6735.874072,0.000000
169.320312,7476.080014,7031.956449,-306.438199
169.320633,7402.059420,7179.997637,-612.876398
169.320954,7476.080014,7328.038826,-612.876398
169.321275,7179.997637,7105.977043,-689.485948
169.321596,7179.997637,7105.977043,-689.485948
169.321917,6587.832884,7254.018232,-1072.533697
169.322238,6217.729913,7105.977043,-1378.971896
169.322559,5773.606348,7254.018232,-919.314598
169.322880,5033.400406,7550.100608,-383.047749
169.323201,5107.421000,7624.121203,-306.438199
169.323521,4885.359217,7698.141797,76.609550
169.323842,4885.359217,7920.203579,153.219100
169.324163,4515.256246,7772.162391,383.047749
169.324484,4441.235652,7846.182985,536.266849
169.324805,4515.256246,7772.162391,153.219100
169.325126,4663.297435,8290.306550,995.924147
169.325447,4737.318029,8290.306550,689.485948
169.325767,4737.318029,7624.121203,459.657299
169.326088,4441.235652,7624.121203,76.609550
169.326409,4811.338623,7772.162391,612.876398
169.326730,5107.421000,7624.121203,689.485948
169.327051,5181.441594,7328.038826,229.828649
169.327372,5033.400406,7846.182985,-612.876398
169.327693,5403.503377,7772.162391,-383.047749
169.328013,5699.585753,8142.265362,-612.876398
169.328334,5477.523971,8216.285956,-229.828649
169.328655,5255.462188,7698.141797,-689.485948
169.328976,4959.379811,8290.306550,-1072.533697
169.329297,4811.338623,8586.388927,-995.924147
169.329618,4293.194464,8734.430116,-1532.190996
169.329938,4145.153275,8882.471304,-995.924147
169.330259,4071.132681,9030.512492,-1072.533697
169.330580,3552.988522,8882.471304,-536.266849
169.330901,3108.864956,9326.594869,-995.924147
169.331222,3108.864956,9400.615463,-766.095498
169.331543,2886.803174,9918.759623,-306.438199
169.331864,2960.823768,9770.718434,0.000000
169.332184,3256.906145,9474.636058,-229.828649
169.332505,3552.988522,9474.636058,0.000000
169.332826,3627.009116,9326.594869,306.438199
169.333147,4145.153275,8882.471304,459.657299
169.333468,4441.235652,8586.388927,383.047749
169.333789,4885.359217,8068.244768,536.266849
169.334110,5625.565159,7846.182985,612.876398
169.334430,6143.709319,7550.100608,536.266849
169.334751,6365.771101,7402.059420,153.219100
169.335072,6809.894666,7105.977043,229.828649
169.335393,7105.977043,6809.894666,-383.047749
169.335714,7550.100608,6513.812290,-612.876398
169.336035,7772.162391,7179.997637,-842.705048
169.336356,7550.100608,7550.100608,-689.485948
169.336676,7402.059420,7624.121203,-919.314598
169.336997,7105.977043,7328.038826,-1378.971896
169.337318,6587.832884,7254.018232,-1225.752797
169.337639,5995.668130,7550.100608,-1225.752797
169.337960,5773.606348,7624.121203,-919.314598
169.338281,4885.359217,7994.224174,-536.266849
169.338602,4737.318029,8438.347739,-383.047749
169.338922,4515.256246,8216.285956,0.000000
169.339243,3997.112087,8364.327145,229.828649
169.339564,4145.153275,8364.327145,383.047749
169.339885,3849.070898,8512.368333,383.047749
169.340206,3478.967927,8290.306550,306.438199
169.340527,4071.132681,7920.203579,689.485948
169.340848,4145.153275,8438.347739,1685.410096
169.341168,4071.132681,8068.244768,919.314598
169.341489,3997.112087,7772.162391,689.485948
169.341810,4219.173869,7772.162391,383.047749
169.342131,4885.359217,7476.080014,842.705048
169.342452,5033.400406,7328.038826,383.047749
169.342773,5477.523971,7105.977043,229.828649
169.343093,5995.668130,7179.997637,76.609550
169.343414,6143.709319,7179.997637,0.000000
169.343735,6217.729913,7254.018232,-459.657299
169.344056,6143.709319,7402.059420,-612.876398
169.344377,6513.812290,7254.018232,-766.095498
169.344698,5995.668130,7402.059420,-612.876398
169.345019,5551.544565,7550.100608,-1149.143247
169.345339,5181.441594,7920.203579,-995.924147
169.345660,4959.379811,7772.162391,-766.095498
169.345981,4367.215058,8068.244768,-995.924147
169.346302,3997.112087,8068.244768,-536.266849
169.346623,3775.050304,8512.368333,-536.266849
169.346944,3256.906145,8882.471304,-383.047749
169.347265,3404.947333,9104.533087,0.000000
169.347585,3182.885551,8882.471304,76.609550
169.347906,3478.967927,9104.533087,229.828649
169.348227,3478.967927,9104.533087,229.828649
169.348548,3997.112087,9030.512492,306.438199
169.348869,4293.194464,8660.409521,383.047749
169.349190,4663.297435,8364.327145,306.438199
169.349511,4885.359217,8438.347739,842.705048
169.349831,5551.544565,7846.182985,612.876398
169.350152,5699.585753,7476.080014,689.485948
169.350473,6217.729913,7550.100608,229.828649
169.350794,6735.874072,7550.100608,0.000000
169.351115,6957.935855,7846.182985,-459.657299
169.351436,7031.956449,7846.182985,-689.485948
169.351757,6957.935855,7698.141797,-842.705048
169.352077,7031.956449,7772.162391,-1225.752797
169.352398,6809.894666,7846.182985,-1302.362347
169.352719,5921.647536,8068.244768,-1455.581446
169.353040,5847.626942,8216.285956,-1378.971896
169.353361,5477.523971,8364.327145,-1378.971896
169.353682,4811.338623,8586.388927,-1225.752797
169.354003,4737.318029,8586.388927,-689.485948
169.354323,4663.297435,8586.388927,-536.266849
169.354644,4515.256246,8364.327145,0.000000
169.354965,3997.112087,8512.368333,-306.438199
169.355286,3923.091493,8438.347739,153.219100
169.355607,4367.215058,8660.409521,0.000000
169.355928,4071.132681,8808.450710,76.609550
169.356248,4219.173869,9252.574275,0.000000
169.356569,4293.194464,8586.388927,383.047749
169.356890,4441.235652,8216.285956,76.609550
169.357211,4589.276840,7772.162391,612.876398
169.357532,4811.338623,7550.100608,766.095498
169.357853,5181.441594,7328.038826,689.485948
169.358174,5329.482782,7402.059420,229.828649
169.358494,5625.565159,7402.059420,0.000000
169.358815,5995.668130,7698.141797,76.609550
169.359136,6069.688724,8364.327145,0.000000
169.359457,5699.585753,7402.059420,-459.657299
169.359778,5921.647536,7402.059420,-612.876398
169.360099,5403.503377,7254.018232,-689.485948
169.360420,4959.379811,7179.997637,-612.876398
169.360740,4589.276840,7476.080014,-995.924147
169.361061,4737.318029,7994.224174,-612.876398
169.361382,4441.235652,7994.224174,-306.438199
169.361703,3849.070898,8660.409521,-306.438199
169.362024,3552.988522,8438.347739,-153.219100
169.362345,3108.864956,8808.450710,76.609550
169.362666,3404.947333,8734.430116,-153.219100
169.362986,3404.947333,8512.368333,0.000000
169.363307,3627.009116,8512.368333,229.828649
169.363628,3923.091493,8216.285956,-306.438199
169.363949,3997.112087,8438.347739,383.047749
169.364270,4367.215058,8068.244768,459.657299
169.364591,4737.318029,7846.182985,689.485948
169.364912,5329.482782,7402.059420,766.095498
169.365232,5921.647536,7402.059420,766.095498
169.365553,6143.709319,6883.915261,459.657299
169.365874,6809.894666,7179.997637,0.000000
169.366195,6809.894666,6809.894666,76.609550
169.366516,6957.935855,7328.038826,0.000000
169.366837,7402.059420,7550.100608,-1072.533697
169.367157,7254.018232,7624.121203,-919.314598
169.367478,6661.853478,8290.306550,-1302.362347
169.367799,6291.750507,8142.265362,-1302.362347
169.368120,5699.585753,7920.203579,-766.095498
169.368441,5773.606348,7994.224174,-1532.190996
169.368762,4959.379811,8364.327145,-919.314598
169.369083,4293.194464,8808.450710,-842.705048
169.369403,3849.070898,8808.450710,-612.876398
169.369724,3849.070898,8956.491898,0.000000
169.370045,3849.070898,8808.450710,0.000000
169.370366,3404.947333,9030.512492,0.000000
169.370687,3552.988522,8956.491898,0.000000
169.371008,3330.926739,9030.512492,-76.609550
169.371329,3552.988522,8956.491898,0.000000
169.371649,4071.132681,9030.512492,689.485948
169.371970,3997.112087,8956.491898,689.485948
169.372291,4515.256246,8586.388927,383.047749
169.372612,4515.256246,8512.368333,229.828649
169.372933,4737.318029,8142.265362,383.047749
169.373254,5107.421000,7846.182985,153.219100
169.373575,5255.462188,7476.080014,0.000000
169.373895,6143.709319,7550.100608,0.000000
169.374216,6365.771101,7624.121203,-153.219100
169.374537,6143.709319,7698.141797,-229.828649
169.374858,6365.771101,7179.997637,-612.876398
169.375179,6217.729913,7328.038826,-919.314598
169.375500,5847.626942,7846.182985,-995.924147
169.375821,5403.503377,7698.141797,-1072.533697
169.376141,4959.379811,7994.224174,-1225.752797
169.376462,4811.338623,7920.203579,-1149.143247
169.376783,4367.215058,8068.244768,-842.705048
169.377104,3849.070898,8512.368333,-689.485948
169.377425,3627.009116,8808.450710,-536.266849
169.377746,3552.988522,8512.368333,-153.219100
169.378067,3256.906145,8808.450710,76.609550
169.378387,3330.926739,8438.347739,153.219100
169.378708,3627.009116,8290.306550,153.219100
169.379029,3997.112087,8364.327145,0.000000
169.379350,4071.132681,8438.347739,306.438199
169.379671,4145.153275,8290.306550,536.266849
169.379992,4959.379811,7698.141797,536.266849
169.380312,5181.441594,7402.059420,536.266849
169.380633,5847.626942,7179.997637,919.314598
169.380954,6217.729913,7105.977043,383.047749
169.381275,6439.791695,6809.894666,0.000000
169.381596,6735.874072,6809.894666,-306.438199
169.381917,6957.935855,7328.038826,-383.047749
169.382238,7105.977043,7772.162391,-383.047749
169.382558,6661.853478,7698.141797,-689.485948
169.382879,6439.791695,7624.121203,-919.314598
169.383200,6217.729913,7698.141797,-689.485948
169.383521,5625.565159,7920.203579,-766.095498
169.383842,5107.421000,8216.285956,-689.485948
169.384163,4663.297435,8290.306550,-612.876398
169.384484,4441.235652,8734.430116,-612.876398
169.384804,3849.070898,8660.409521,-153.219100
169.385125,3997.112087,8660.409521,153.219100
169.385446,3627.009116,8882.471304,153.219100
169.385767,3627.009116,8956.491898,0.000000
169.386088,3404.947333,8882.471304,0.000000
169.386409,3552.988522,8512.368333,153.219100
169.386730,4145.153275,8660.409521,383.047749
169.387050,4367.215058,8956.491898,612.876398
169.387371,4145.153275,9104.533087,612.876398
169.387692,4145.153275,8438.347739,306.438199
169.388013,4515.256246,8290.306550,0.000000
169.388334,4811.338623,8216.285956,383.047749
169.388655,5181.441594,8068.244768,383.047749
169.388976,5477.523971,7550.100608,229.828649
169.389296,5477.523971,7772.162391,-153.219100
169.389617,5773.606348,7920.203579,-306.438199
169.389938,6143.709319,7772.162391,-76.609550
169.390259,5995.668130,7624.121203,-306.438199
169.390580,5921.647536,7476.080014,-459.657299
169.390901,5625.565159,7550.100608,-1072.533697
169.391222,4959.379811,7476.080014,-919.314598
169.391542,4885.359217,7402.059420,-766.095498
169.391863,4589.276840,8216.285956,-766.095498
169.392184,4071.132681,8438.347739,-689.485948
169.392505,3923.091493,8660.409521,-842.705048
169.392826,3775.050304,8882.471304,-766.095498
169.393147,3701.029710,8956.491898,-536.266849
169.393467,3627.009116,8882.471304,-612.876398
169.393788,3552.988522,8438.347739,0.000000
169.394109,3627.009116,8512.368333,0.000000
169.394430,4293.194464,8586.388927,0.000000
169.394751,4071.132681,8586.388927,76.609550
169.395072,4663.297435,8216.285956,76.609550
169.395393,5255.462188,7772.162391,459.657299
169.395713,5477.523971,7772.162391,689.485948
169.396034,5773.606348,7254.018232,459.657299
169.396355,6143.709319,6957.935855,306.438199
169.396676,6217.729913,6883.915261,153.219100
169.396997,6587.832884,6883.915261,76.609550
169.397318,7105.977043,7328.038826,-153.219100
169.397639,7031.956449,7254.018232,-612.876398
169.397959,7105.977043,7402.059420,-612.876398
169.398280,6809.894666,7920.203579,-1149.143247
169.398601,6217.729913,7846.182985,-995.924147
169.398922,5699.585753,7994.224174,-689.485948
169.399243,5477.523971,8068.244768,-689.485948
169.399564,5107.421000,8216.285956,-536.266849
169.399885,4737.318029,8364.327145,-612.876398
169.400205,4515.256246,8438.347739,-459.657299
169.400526,4219.173869,8364.327145,0.000000
169.400847,4515.256246,8808.450710,0.000000
169.401168,3775.050304,8512.368333,0.000000
169.401489,3849.070898,8660.409521,0.000000
169.401810,3923.091493,8438.347739,76.609550
169.402131,4293.194464,8734.430116,612.876398
169.402451,4293.194464,8586.388927,459.657299
169.402772,4293.194464,8438.347739,536.266849
169.403093,4589.276840,8512.368333,536.266849
169.403414,4737.318029,8216.285956,229.828649
169.403735,4811.338623,8068.244768,536.266849
169.404056,5329.482782,7772.162391,306.438199
169.404377,5551.544565,7624.121203,0.000000
169.404697,5847.626942,7698.141797,229.828649
169.405018,6143.709319,7698.141797,-229.828649
169.405339,6069.688724,7994.224174,-306.438199
169.405660,5847.626942,7698.141797,-612.876398
169.405981,5699.585753,7624.121203,-383.047749
169.406302,5625.565159,7550.100608,-612.876398
169.406622,5033.400406,7476.080014,-766.095498
169.406943,4737.318029,7994.224174,-1149.143247
169.407264,4589.276840,8068.244768,-1072.533697
169.407585,4145.153275,8512.368333,-306.438199
169.407906,3627.009116,8586.388927,-383.047749
169.408227,3404.947333,8956.491898,-306.438199
169.408548,3775.050304,9178.553681,-153.219100
169.408868,3404.947333,8438.347739,0.000000
169.409189,3034.844362,8882.471304,0.000000
169.409510,3256.906145,8586.388927,0.000000
169.409831,3256.906145,8734.430116,0.000000
169.410152,3701.029710,9030.512492,0.000000
169.410473,4441.235652,8290.306550,766.095498
169.410794,4811.338623,8142.265362,536.266849
169.411114,5255.462188,7698.141797,536.266849
169.411435,5921.647536,7254.018232,459.657299
169.411756,6365.771101,7031.956449,306.438199
169.412077,6809.894666,7105.977043,0.000000
169.412398,7105.977043,6957.935855,0.000000
169.412719,7550.100608,7105.977043,-306.438199
169.413040,7402.059420,7550.100608,-689.485948
169.413360,7105.977043,7624.121203,-612.876398
169.413681,7105.977043,7550.100608,-1149.143247
169.414002,6661.853478,7624.121203,-1149.143247
169.414323,6513.812290,7254.018232,-1149.143247
169.414644,6143.709319,7402.059420,-766.095498
169.414965,5329.482782,7846.182985,-842.705048
169.415286,5107.421000,8216.285956,-612.876398
169.415606,4811.338623,8290.306550,-306.438199
169.415927,4589.276840,8512.368333,0.000000
169.416248,4219.173869,8290.306550,0.000000
169.416569,4145.153275,8586.388927,153.219100
169.416890,3849.070898,8290.306550,76.609550
169.417211,4145.153275,8438.347739,153.219100
169.417532,4219.173869,8808.450710,459.657299
169.417852,4589.276840,8808.450710,459.657299
169.418173,4441.235652,8734.430116,0.000000
169.418494,4219.173869,8290.306550,0.000000
169.418815,4589.276840,8068.244768,153.219100
169.419136,4811.338623,8216.285956,536.266849
169.419457,5329.482782,7624.121203,383.047749
169.419777,5551.544565,7402.059420,76.609550
169.420098,5847.626942,8068.244768,-76.609550
169.420419,5773.606348,8290.306550,0.000000
169.420740,5773.606348,8290.306550,-459.657299
169.421061,5625.565159,8364.327145,-766.095498
169.421382,5699.585753,7624.121203,-229.828649
169.421702,5033.400406,7698.141797,-612.876398
169.422023,4737.318029,7624.121203,-689.485948
169.422344,4589.276840,8216.285956,-766.095498
169.422665,4367.215058,8586.388927,-306.438199
169.422986,3997.112087,8660.409521,-612.876398
169.423306,3478.967927,8808.450710,-229.828649
169.423627,3330.926739,9252.574275,-459.657299
169.423948,3404.947333,9104.533087,-153.219100
169.424269,3256.906145,9400.615463,-306.438199
169.424589,3182.885551,8882.471304,-459.657299
169.424910,3701.029710,8882.471304,229.828649
169.425231,3849.070898,8512.368333,0.000000
169.425552,3997.112087,8438.347739,0.000000
169.425873,4737.318029,8142.265362,689.485948
169.426193,5255.462188,7698.141797,612.876398
169.426514,5477.523971,7179.997637,459.657299
169.426835,5921.647536,7254.018232,766.095498
169.427156,6365.771101,6661.853478,153.219100
169.427476,7031.956449,6735.874072,306.438199
169.427797,7254.018232,6735.874072,-153.219100
169.428118,7254.018232,6883.915261,-612.876398
169.428439,7476.080014,7031.956449,-612.876398
169.428760,7254.018232,7105.977043,-842.705048
169.429080,7328.038826,7254.018232,-1072.533697
169.429401,6513.812290,7550.100608,-1302.362347
169.429722,5921.647536,7476.080014,-842.705048
169.430043,5551.544565,7846.182985,-919.314598
169.430364,5181.441594,7772.162391,0.000000
169.430684,4737.318029,8290.306550,-612.876398
169.431005,4367.215058,8438.347739,-383.047749
169.431326,4145.153275,8586.388927,0.000000
169.431647,3775.050304,8216.285956,76.609550
169.431967,3775.050304,8290.306550,383.047749
169.432288,3775.050304,8364.327145,306.438199
169.432609,3849.070898,8512.368333,306.438199
169.432930,3997.112087,8512.368333,383.047749
169.433251,4367.215058,8660.409521,842.705048
169.433571,4663.297435,8512.368333,153.219100
169.433892,4515.256246,8438.347739,76.609550
169.434213,5033.400406,8290.306550,229.828649
169.434534,5255.462188,8068.244768,153.219100
169.434854,5699.585753,7920.203579,-459.657299
169.435175,5847.626942,7476.080014,-306.438199
169.435496,5995.668130,7920.203579,-383.047749
169.435817,6513.812290,7772.162391,0.000000
169.436138,6143.709319,7846.182985,-459.657299
169.436458,6365.771101,8142.265362,-229.828649
169.436779,5995.668130,7846.182985,-766.095498
169.437100,5181.441594,7920.203579,-919.314598
169.437421,5033.400406,7772.162391,-689.485948
169.437741,4441.235652,8290.306550,-919.314598
169.438062,4441.235652,8438.347739,-536.266849
169.438383,3478.967927,9030.512492,-689.485948
169.438704,3256.906145,8660.409521,-153.219100
169.439025,3256.906145,9326.594869,-229.828649
169.439345,3182.885551,9400.615463,536.266849
169.439666,2738.761985,9252.574275,0.000000
169.439987,3108.864956,8956.491898,0.000000
169.440308,3108.864956,8882.471304,0.000000
169.440628,3478.967927,8734.430116,0.000000
169.440949,3923.091493,8438.347739,153.219100
169.441270,3997.112087,8512.368333,536.266849
169.441591,4737.318029,7920.203579,766.095498
169.441912,5255.462188,7402.059420,995.924147
169.442232,5699.585753,7328.038826,459.657299
169.442553,6291.750507,6957.935855,0.000000
169.442874,6365.771101,6735.874072,0.000000
169.443195,7254.018232,6883.915261,-459.657299
169.443515,7550.100608,7031.956449,-153.219100
169.443836,7476.080014,7476.080014,0.000000
169.444157,7105.977043,7105.977043,-612.876398
169.444478,6809.894666,7328.038826,-919.314598
169.444799,6587.832884,7328.038826,-919.314598
169.445119,6217.729913,7550.100608,-1149.143247
169.445440,5847.626942,7624.121203,-76.609550
169.445761,4663.297435,7994.224174,-766.095498
169.446082,4589.276840,7920.203579,-383.047749
169.446402,4663.297435,8216.285956,0.000000
169.446723,4145.153275,8438.347739,76.609550
169.447044,3849.070898,8438.347739,0.000000
169.447365,3701.029710,8512.368333,0.000000
169.447686,3775.050304,8364.327145,76.609550
169.448006,3775.050304,8364.327145,612.876398
169.448327,4145.153275,8438.347739,919.314598
169.448648,4663.297435,8290.306550,919.314598
169.448969,4515.256246,8216.285956,229.828649
169.449289,4589.276840,7994.224174,383.047749
169.449610,5107.421000,8068.244768,536.266849
169.449931,5181.441594,7624.121203,153.219100
169.450252,5921.647536,7476.080014,689.485948
169.450573,5995.668130,7254.018232,76.609550
169.450893,6365.771101,7698.141797,0.000000
169.451214,6069.688724,8216.285956,-383.047749
169.451535,6291.750507,7698.141797,-766.095498
169.451856,6291.750507,7920.203579,-842.705048
169.452176,5625.565159,7772.162391,-612.876398
169.452497,5551.544565,7772.162391,-1225.752797
169.452818,4737.318029,7846.182985,-1225.752797
169.453139,4293.194464,8290.306550,-689.485948
169.453460,4219.173869,8586.388927,-612.876398
169.453780,3849.070898,8882.471304,-766.095498
169.454101,3552.988522,8882.471304,-536.266849
169.454422,2960.823768,9104.533087,-459.657299
169.454743,2812.782580,9252.574275,153.219100
169.455063,3034.844362,9326.594869,0.000000
169.455384,2738.761985,8956.491898,0.000000
169.455705,3108.864956,9104.533087,-306.438199
169.456026,3552.988522,8956.491898,0.000000
169.456347,3775.050304,8734.430116,306.438199
169.456667,4367.215058,8512.368333,383.047749
169.456988,4885.359217,7994.224174,689.485948
169.457309,5255.462188,7624.121203,459.657299
169.457630,5625.565159,7402.059420,229.828649
169.457951,6291.750507,7328.038826,536.266849
169.458271,6587.832884,6883.915261,76.609550
169.458592,7031.956449,6809.894666,0.000000
169.458913,7105.977043,6809.894666,-153.219100
169.459234,7624.121203,7328.038826,-995.924147
169.459554,7328.038826,7550.100608,-1225.752797
169.459875,6957.935855,7550.100608,-995.924147
169.460196,6513.812290,7550.100608,-1072.533697
169.460517,6217.729913,7328.038826,-766.095498
169.460838,6143.709319,7624.121203,-842.705048
169.461158,5033.400406,8142.265362,-689.485948
169.461479,5181.441594,8438.347739,-689.485948
169.461800,4293.194464,8290.306550,0.000000
169.462121,4293.194464,8142.265362,0.000000
169.462441,4071.132681,8290.306550,76.609550
169.462762,3997.112087,8364.327145,-153.219100
169.463083,3775.050304,8438.347739,76.609550
169.463404,3627.009116,8512.368333,229.828649
169.463725,3775.050304,8290.306550,612.876398
169.464045,4071.132681,8512.368333,842.705048
169.464366,3997.112087,8586.388927,459.657299
169.464687,4737.318029,8142.265362,536.266849
169.465008,4737.318029,7846.182985,536.266849
169.465328,5033.400406,7550.100608,0.000000
169.465649,5625.565159,7328.038826,0.000000
169.465970,5847.626942,7698.141797,153.219100
169.466291,5995.668130,7402.059420,76.609550
169.466612,6365.771101,7402.059420,-153.219100
169.466932,6217.729913,7402.059420,-612.876398
169.467253,6143.709319,7402.059420,-383.047749
169.467574,5995.668130,7920.203579,-536.266849
169.467895,5551.544565,7624.121203,-919.314598
169.468215,5107.421000,7476.080014,-612.876398
169.468536,4811.338623,8142.265362,-995.924147
169.468857,4515.256246,8438.347739,-689.485948
169.469178,4145.153275,8660.409521,-689.485948
169.469499,3478.967927,9104.533087,-612.876398
169.469819,3256.906145,9252.574275,-459.657299
169.470140,2886.803174,9178.553681,0.000000
169.470461,3034.844362,9474.636058,306.438199
169.470782,2516.700203,9474.636058,229.828649
169.471102,3108.864956,9178.553681,229.828649
169.471423,2812.782580,9104.533087,76.609550
169.471744,3404.947333,8808.450710,306.438199
169.472065,3997.112087,8586.388927,1225.752797
169.472386,4367.215058,8216.285956,842.705048
169.472706,4737.318029,7994.224174,689.485948
169.473027,5329.482782,7698.141797,612.876398
169.473348,6143.709319,7254.018232,229.828649
169.473669,6365.771101,7179.997637,153.219100
169.473989,7031.956449,7105.977043,0.000000
169.474310,7402.059420,7328.038826,-306.438199
169.474631,7402.059420,7179.997637,-612.876398
169.474952,7328.038826,7254.018232,-842.705048
169.475273,7105.977043,7698.141797,-995.924147
169.475593,6809.894666,7402.059420,-1225.752797
169.475914,6439.791695,7476.080014,-995.924147
169.476235,5921.647536,7698.141797,-919.314598
169.476556,5847.626942,8142.265362,-306.438199
169.476876,5107.421000,8290.306550,-766.095498
169.477197,4885.359217,7994.224174,-383.047749
169.477518,4663.297435,7994.224174,-383.047749
169.477839,4441.235652,8068.244768,0.000000
169.478160,3849.070898,8660.409521,0.000000
169.478480,3701.029710,8142.265362,229.828649
169.478801,3701.029710,8216.285956,153.219100
169.479122,3997.112087,8364.327145,612.876398
169.479443,4441.235652,8512.368333,536.266849
169.479763,4515.256246,8290.306550,306.438199
169.480084,4441.235652,8068.244768,689.485948
169.480405,4737.318029,7920.203579,153.219100
169.480726,5033.400406,7994.224174,153.219100
169.481047,5551.544565,7920.203579,153.219100
169.481367,5847.626942,7476.080014,153.219100
169.481688,6143.709319,7772.162391,0.000000
169.482009,6143.709319,7772.162391,-383.047749
169.482330,6217.729913,7772.162391,-536.266849
169.482650,6217.729913,7476.080014,-536.266849
169.482971,5995.668130,7550.100608,-612.876398
169.483292,5329.482782,7402.059420,-995.924147
169.483613,4959.379811,7476.080014,-995.924147
169.483934,4737.318029,8068.244768,-383.047749
169.484254,4811.338623,8142.265362,-1302.362347
169.484575,4219.173869,8512.368333,-306.438199
169.484896,3627.009116,8808.450710,-459.657299
169.485217,3478.967927,9104.533087,-383.047749
169.485538,3182.885551,9030.512492,-306.438199
169.485858,3256.906145,8882.471304,0.000000
169.486179,3182.885551,8808.450710,0.000000
169.486500,3256.906145,9178.553681,0.000000
169.486821,3552.988522,9178.553681,153.219100
169.487141,3775.050304,8882.471304,306.438199
169.487462,4071.132681,8734.430116,76.609550
169.487783,4737.318029,8290.306550,536.266849
169.488104,5033.400406,8068.244768,536.266849
169.488425,5255.462188,7550.100608,766.095498
169.488745,5773.606348,7402.059420,842.705048
169.489066,6069.688724,7402.059420,383.047749
169.489387,6661.853478,7254.018232,306.438199
169.489708,6957.935855,7402.059420,0.000000
169.490028,6957.935855,7402.059420,-536.266849
169.490349,6957.935855,7402.059420,-612.876398
169.490670,6587.832884,7550.100608,-919.314598
169.490991,5995.668130,7402.059420,-766.095498
169.491312,5847.626942,7550.100608,-766.095498
169.491632,5625.565159,8068.244768,-689.485948
169.491953,5403.503377,8216.285956,-842.705048
169.492274,4737.318029,8142.265362,-612.876398
169.492595,4737.318029,7994.224174,-306.438199
169.492915,4663.297435,7846.182985,0.000000
169.493236,4293.194464,8142.265362,0.000000
169.493557,4367.215058,8660.409521,-153.219100
169.493878,4071.132681,8364.327145,0.000000
169.494199,4219.173869,8290.306550,153.219100
169.494519,4515.256246,8068.244768,229.828649
169.494840,4441.235652,8290.306550,306.438199
169.495161,4737.318029,8290.306550,766.095498
169.495482,4959.379811,8216.285956,306.438199
169.495802,5329.482782,7920.203579,153.219100
169.496123,5477.523971,7772.162391,0.000000
169.496444,5847.626942,7402.059420,459.657299
169.496765,6069.688724,7254.018232,76.609550
169.497086,5995.668130,7476.080014,459.657299
169.497406,6291.750507,7476.080014,0.000000
169.497727,6069.688724,7624.121203,-383.047749
169.498048,6143.709319,7550.100608,-383.047749
169.498369,5551.544565,7994.224174,-842.705048
169.498689,5699.585753,7550.100608,-612.876398
169.499010,5033.400406,7624.121203,-612.876398
169.499331,4737.318029,8068.244768,-689.485948
169.499652,4219.173869,8882.471304,-612.876398
169.499973,3997.112087,8882.471304,-229.828649
169.500293,3478.967927,8808.450710,-459.657299
169.500614,3478.967927,9178.553681,-383.047749
169.500935,2960.823768,9104.533087,-153.219100
169.501256,3256.906145,9252.574275,0.000000
169.501576,3404.947333,9104.533087,-306.438199
169.501897,3034.844362,9178.553681,0.000000
169.502218,3478.967927,9104.533087,0.000000
169.502539,3849.070898,8512.368333,229.828649
169.502860,4219.173869,8364.327145,459.657299
169.503180,4885.359217,8216.285956,842.705048
169.503501,5403.503377,7550.100608,919.314598
169.503822,5699.585753,7179.997637,153.219100
169.504143,6143.709319,7105.977043,153.219100
169.504463,6661.853478,7476.080014,0.000000
169.504784,7254.018232,6809.894666,-306.438199
169.505105,7624.121203,7105.977043,-153.219100
169.505426,7254.018232,7254.018232,-612.876398
169.505747,7179.997637,7254.018232,-919.314598
169.506067,7105.977043,7624.121203,-1532.190996
169.506388,6513.812290,7994.224174,-1532.190996
169.506709,5847.626942,7994.224174,-1225.752797
169.507030,5477.523971,8142.265362,-842.705048
169.507350,4885.359217,8142.265362,-919.314598
169.507671,4663.297435,8216.285956,-306.438199
169.507992,4219.173869,8142.265362,-459.657299
169.508313,3849.070898,8216.285956,0.000000
169.508634,3849.070898,8216.285956,153.219100
169.508954,3775.050304,8808.450710,459.657299
169.509275,3627.009116,9030.512492,153.219100
169.509596,3775.050304,8660.409521,383.047749
169.509917,4219.173869,8216.285956,842.705048
169.510237,4219.173869,8216.285956,536.266849
169.510558,4367.215058,8364.327145,229.828649
169.510879,4885.359217,8142.265362,0.000000
169.511200,5033.400406,8290.306550,153.219100
169.511521,5625.565159,7772.162391,153.219100
169.511841,5847.626942,7550.100608,76.609550
169.512162,6069.688724,7550.100608,-229.828649
169.512483,6809.894666,7476.080014,76.609550
169.512804,6735.874072,7402.059420,-383.047749
169.513125,6291.750507,7624.121203,-536.266849
169.513445,6217.729913,7476.080014,-612.876398
169.513766,6661.853478,7031.956449,-919.314598
169.514087,5625.565159,7476.080014,-919.314598
169.514408,5181.441594,7328.038826,-919.314598
169.514728,4885.359217,7772.162391,-536.266849
169.515049,4367.215058,8364.327145,-995.924147
169.515370,3997.112087,8660.409521,-383.047749
169.515691,3701.029710,9030.512492,-842.705048
169.516012,3552.988522,8734.430116,-689.485948
169.516332,3256.906145,8734.430116,-153.219100
169.516653,2960.823768,8808.450710,76.609550
169.516974,2960.823768,8882.471304,0.000000
169.517295,2886.803174,8882.471304,76.609550
169.517615,3552.988522,8882.471304,76.609550
169.517936,3775.050304,8438.347739,229.828649
169.518257,4293.194464,8068.244768,536.266849
169.518578,4959.379811,7846.182985,612.876398
169.518899,5699.585753,7402.059420,536.266849
169.519219,5551.544565,7550.100608,306.438199
169.519540,6143.709319,7254.018232,0.000000
169.519861,6587.832884,7105.977043,0.000000
169.520182,6957.935855,7105.977043,-229.828649
169.520502,7105.977043,7179.997637,-383.047749
169.520823,7031.956449,7402.059420,-612.876398
169.521144,6957.935855,7846.182985,-995.924147
169.521465,6587.832884,7402.059420,-1072.533697
169.521786,5995.668130,7698.141797,-1225.752797
169.522107,5329.482782,8068.244768,-1225.752797
169.522427,5255.462188,8216.285956,-842.705048
169.522748,4441.235652,8512.368333,-842.705048
169.523069,4145.153275,8734.430116,-459.657299
169.523390,4293.194464,8216.285956,-153.219100
169.523711,3923.091493,8586.388927,-153.219100
169.524032,3849.070898,8882.471304,0.000000
169.524352,3923.091493,8586.388927,76.609550
169.524673,3552.988522,8882.471304,0.000000
169.524994,3627.009116,8660.409521,306.438199
169.525315,3923.091493,8808.450710,842.705048
169.525636,4071.132681,8734.430116,842.705048
169.525957,4589.276840,8586.388927,383.047749
169.526277,4959.379811,7846.182985,459.657299
169.526598,5107.421000,8068.244768,306.438199
169.526919,5551.544565,7920.203579,0.000000
169.527240,6069.688724,7254.018232,383.047749
169.527561,6661.853478,7328.038826,0.000000
169.527882,6661.853478,7105.977043,-76.609550
169.528202,6883.915261,7402.059420,-229.828649
169.528523,6513.812290,7550.100608,-612.876398
169.528844,6513.812290,7476.080014,-689.485948
169.529165,6587.832884,7772.162391,-612.876398
169.529486,5921.647536,7476.080014,-766.095498
169.529807,5477.523971,7328.038826,-766.095498
169.530127,4959.379811,7846.182985,-766.095498
169.530448,4589.276840,8364.327145,-612.876398
169.530769,3923.091493,8660.409521,-612.876398
169.531090,3478.967927,9030.512492,-306.438199
169.531411,3404.947333,8882.471304,0.000000
169.531732,2886.803174,8882.471304,0.000000
169.532052,3034.844362,9252.574275,229.828649
169.532373,3256.906145,8882.471304,306.438199
169.532694,2886.803174,8956.491898,0.000000
169.533015,3330.926739,8438.347739,536.266849
169.533336,3330.926739,8364.327145,459.657299
169.533657,3923.091493,8216.285956,766.095498
169.533977,4663.297435,8142.265362,689.485948
169.534298,5107.421000,7402.059420,689.485948
169.534619,5551.544565,7254.018232,459.657299
169.534940,5921.647536,7179.997637,229.828649
169.535261,6735.874072,7105.977043,0.000000
169.535582,7179.997637,6957.935855,-306.438199
169.535902,7402.059420,7254.018232,-995.924147
169.536223,7476.080014,7179.997637,-842.705048
169.536544,7254.018232,7328.038826,-1302.362347
169.536865,7105.977043,7550.100608,-1072.533697
169.537186,6439.791695,7994.224174,-919.314598
169.537507,5773.606348,7994.224174,-1302.362347
169.537827,5551.544565,8142.265362,-1072.533697
169.538148,4885.359217,8290.306550,-995.924147
169.538469,4515.256246,8882.471304,-919.314598
169.538790,3997.112087,8364.327145,-612.876398
169.539111,4219.173869,8364.327145,-612.876398
169.539432,3552.988522,8660.409521,0.000000
169.539752,3404.947333,8882.471304,0.000000
169.540073,3552.988522,8956.491898,76.609550
169.540394,3552.988522,9252.574275,459.657299
169.540715,3775.050304,8956.491898,689.485948
169.541036,3923.091493,8808.450710,536.266849
169.541357,4145.153275,8512.368333,306.438199
169.541677,4515.256246,8512.368333,306.438199
169.541998,4737.318029,8586.388927,0.000000
169.542319,5255.462188,8364.327145,383.047749
169.542640,5551.544565,7994.224174,306.438199
169.542961,5921.647536,7624.121203,383.047749
169.543282,6069.688724,7772.162391,459.657299
169.543602,6439.791695,7698.141797,0.000000
169.543923,5921.647536,7476.080014,-306.438199
169.544244,6143.709319,7402.059420,-766.095498
169.544565,6291.750507,7476.080014,-842.705048
169.544886,5773.606348,7328.038826,-842.705048
169.545207,5255.462188,7476.080014,-1072.533697
169.545527,5107.421000,7846.182985,-919.314598
169.545848,4663.297435,8142.265362,-919.314598
169.546169,4219.173869,8216.285956,-842.705048
169.546490,4219.173869,8438.347739,-1072.533697
169.546811,4145.153275,8512.368333,-689.485948
169.547132,3404.947333,8808.450710,-229.828649
169.547452,3552.988522,8586.388927,153.219100
169.547773,3478.967927,8512.368333,0.000000
169.548094,3108.864956,8216.285956,0.000000
169.548415,3478.967927,8512.368333,-306.438199
169.548736,3627.009116,8438.347739,229.828649
169.549057,4145.153275,7994.224174,459.657299
169.549377,4737.318029,7920.203579,995.924147
169.549698,5403.503377,7550.100608,612.876398
169.550019,5477.523971,7624.121203,383.047749
169.550340,6069.688724,7476.080014,306.438199
169.550661,6439.791695,7179.997637,0.000000
169.550982,6587.832884,7105.977043,0.000000
169.551302,7105.977043,7328.038826,229.828649
169.551623,7328.038826,7402.059420,0.000000
169.551944,6735.874072,7402.059420,-1225.752797
169.552265,5921.647536,8068.244768,-1378.971896
169.552586,5773.606348,7994.224174,-1149.143247
169.552907,5625.565159,7920.203579,-995.924147
169.553227,5477.523971,7920.203579,-689.485948
169.553548,5107.421000,8216.285956,-306.438199
169.553869,4441.235652,7920.203579,-383.047749
169.554190,3997.112087,7994.224174,-153.219100
169.554511,4515.256246,8364.327145,0.000000
169.554832,4145.153275,8882.471304,0.000000
169.555152,3997.112087,8438.347739,-536.266849
169.555473,3775.050304,8734.430116,-229.828649
169.555794,3997.112087,8882.471304,459.657299
169.556115,4367.215058,8660.409521,766.095498
169.556436,4737.318029,8808.450710,536.266849
169.556757,4589.276840,8364.327145,153.219100
169.557077,4885.359217,8512.368333,0.000000
169.557398,4885.359217,8438.347739,-153.219100
169.557719,5403.503377,7698.141797,229.828649
169.558040,5995.668130,7698.141797,536.266849
169.558361,5995.668130,7476.080014,76.609550
169.558682,5921.647536,7402.059420,-459.657299
169.559002,5847.626942,7550.100608,-383.047749
169.559323,5847.626942,7772.162391,-536.266849
169.559644,5921.647536,7550.100608,-536.266849
169.559965,5699.585753,7550.100608,-612.876398
169.560286,5477.523971,7920.203579,-919.314598
169.560607,5033.400406,8216.285956,-612.876398
169.560927,4367.215058,8290.306550,-1149.143247
169.561248,4293.194464,8364.327145,-842.705048
169.561569,3701.029710,8660.409521,-383.047749
169.561890,3923.091493,8660.409521,0.000000
169.562211,3404.947333,8882.471304,-153.219100
169.562532,3108.864956,9178.553681,153.219100
169.562852,3404.947333,9252.574275,76.609550
169.563173,3034.844362,8734.430116,-229.828649
169.563494,3404.947333,8512.368333,-153.219100
169.563815,4071.132681,8512.368333,0.000000
169.564136,4071.132681,8512.368333,153.219100
169.564457,4737.318029,7698.141797,383.047749
169.564777,5033.400406,7550.100608,612.876398
169.565098,5995.668130,7402.059420,153.219100
169.565419,6143.709319,6809.894666,76.609550
169.565740,6661.853478,6809.894666,0.000000
169.566061,7254.018232,6809.894666,153.219100
169.566382,7698.141797,6809.894666,0.000000
169.566702,7402.059420,6883.915261,-612.876398
169.567023,7105.977043,7105.977043,-842.705048
169.567344,7105.977043,7105.977043,-1149.143247
169.567665,7105.977043,7550.100608,-383.047749
169.567986,6069.688724,7328.038826,-612.876398
169.568307,5847.626942,7624.121203,-919.314598
169.568627,5403.503377,7920.203579,-536.266849
169.568948,4589.276840,8438.347739,-689.485948
169.569269,4515.256246,8364.327145,-536.266849
169.569590,4145.153275,8068.244768,0.000000
169.569911,3627.009116,8364.327145,76.609550
169.570232,3552.988522,8586.388927,0.000000
169.570552,3775.050304,8660.409521,229.828649
169.570873,3478.967927,9104.533087,306.438199
169.571194,3627.009116,8512.368333,383.047749
169.571515,3849.070898,8512.368333,536.266849
169.571836,4219.173869,8586.388927,612.876398
169.572157,4589.276840,8290.306550,919.314598
169.572477,4885.359217,8364.327145,383.047749
169.572798,5255.462188,8142.265362,459.657299
169.573119,5403.503377,8290.306550,306.438199
169.573440,5773.606348,7772.162391,0.000000
169.573761,6069.688724,7402.059420,76.609550
169.574082,6143.709319,8142.265362,0.000000
169.574402,6143.709319,7402.059420,-76.609550
169.574723,6365.771101,7920.203579,-459.657299
169.575044,6143.709319,7550.100608,-842.705048
169.575365,5921.647536,7994.224174,-459.657299
169.575686,5329.482782,7772.162391,-536.266849
169.576007,4737.318029,7920.203579,-766.095498
169.576327,4663.297435,8068.244768,-766.095498
169.576648,4589.276840,8512.368333,-766.095498
169.576969,3478.967927,8956.491898,-306.438199
169.577290,3627.009116,9104.533087,-153.219100
169.577611,3404.947333,8808.450710,-306.438199
169.577932,3182.885551,8956.491898,-459.657299
169.578252,2812.782580,9178.553681,-612.876398
169.578573,3478.967927,9252.574275,-919.314598
169.578894,3478.967927,8882.471304,-229.828649
169.579215,3404.947333,8586.388927,766.095498
169.579536,4145.153275,8216.285956,842.705048
169.579857,4367.215058,7994.224174,306.438199
169.580177,4515.256246,7550.100608,306.438199
169.580498,5403.503377,7550.100608,306.438199
169.580819,6143.709319,7179.997637,536.266849
169.581140,6513.812290,6809.894666,153.219100
169.581461,6809.894666,6809.894666,383.047749
169.581782,7179.997637,6735.874072,0.000000
169.582102,7254.018232,6735.874072,-229.828649
169.582423,7105.977043,6957.935855,-1072.533697
169.582744,6957.935855,7328.038826,-1532.190996
169.583065,6883.915261,7105.977043,-1302.362347
169.583386,6513.812290,7550.100608,-1378.971896
169.583707,5921.647536,7698.141797,-1225.752797
169.584027,5625.565159,8068.244768,-536.266849
169.584348,4885.359217,8142.265362,-842.705048
169.584669,4441.235652,7994.224174,-995.924147
169.584990,4071.132681,8142.265362,-536.266849
169.585311,4219.173869,8438.347739,153.219100
169.585632,3849.070898,8586.388927,76.609550
169.585952,3478.967927,8660.409521,229.828649
169.586273,3701.029710,8956.491898,76.609550
169.586594,3701.029710,8956.491898,76.609550
169.586915,3627.009116,9030.512492,383.047749
169.587236,3849.070898,8882.471304,383.047749
169.587557,4441.235652,8660.409521,612.876398
169.587877,4441.235652,8290.306550,536.266849
169.588198,4737.318029,8438.347739,0.000000
169.588519,5033.400406,8142.265362,0.000000
169.588840,5625.565159,7698.141797,76.609550
169.589161,5995.668130,7698.141797,0.000000
169.589482,5995.668130,7920.203579,0.000000
169.589802,6513.812290,8142.265362,-536.266849
169.590123,5995.668130,8068.244768,-612.876398
169.590444,5995.668130,7846.182985,-689.485948
169.590765,5625.565159,7920.203579,-919.314598
169.591086,5773.606348,8364.327145,-995.924147
169.591407,5255.462188,7994.224174,-919.314598
169.591727,4737.318029,8216.285956,-842.705048
169.592048,4589.276840,8364.327145,-842.705048
169.592369,4071.132681,8586.388927,-536.266849
169.592690,3701.029710,8734.430116,0.000000
169.593011,3182.885551,9178.553681,-306.438199
169.593332,3256.906145,9030.512492,76.609550
169.593652,3330.926739,8882.471304,153.219100
169.593973,3182.885551,8438.347739,153.219100
169.594294,3108.864956,8660.409521,383.047749
169.594615,3849.070898,8586.388927,459.657299
169.594936,3997.112087,8142.265362,383.047749
169.595257,4367.215058,7698.141797,612.876398
169.595577,5181.441594,7772.162391,459.657299
169.595898,5551.544565,7105.977043,612.876398
169.596219,6217.729913,6735.874072,459.657299
169.596540,6587.832884,7179.997637,459.657299
169.596861,7105.977043,6809.894666,0.000000
169.597182,7402.059420,6587.832884,-229.828649
169.597502,7402.059420,6661.853478,-459.657299
169.597823,7179.997637,6957.935855,-919.314598
169.598144,7179.997637,7105.977043,-1149.143247
169.598465,6957.935855,7254.018232,-842.705048
169.598786,6587.832884,7476.080014,-842.705048
169.599107,6143.709319,7920.203579,-842.705048
169.599427,5403.503377,7698.141797,-689.485948
169.599748,4663.297435,8216.285956,-919.314598
169.600069,4293.194464,8142.265362,-306.438199
169.600390,4293.194464,8512.368333,-536.266849
169.600711,3923.091493,8290.306550,229.828649
169.601032,3478.967927,8586.388927,306.438199
169.601352,2886.803174,9104.533087,229.828649
169.601673,2960.823768,9178.553681,0.000000
169.601994,3478.967927,8808.450710,459.657299
169.602315,3997.112087,8882.471304,536.266849
169.602636,3775.050304,8364.327145,766.095498
169.602957,4145.153275,8364.327145,919.314598
169.603277,4293.194464,8882.471304,459.657299
169.603598,4663.297435,8364.327145,229.828649
169.603919,5255.462188,8142.265362,0.000000
169.604240,5995.668130,7624.121203,0.000000
169.604561,6291.750507,7476.080014,229.828649
169.604882,6513.812290,7698.141797,383.047749
169.605202,6513.812290,7624.121203,-229.828649
169.605523,6365.771101,7698.141797,-383.047749
169.605844,6143.709319,7698.141797,-612.876398
169.606165,6217.729913,7920.203579,-766.095498
169.606486,5625.565159,7476.080014,-766.095498
169.606807,5329.482782,7624.121203,-689.485948
169.607127,4737.318029,8142.265362,-689.485948
169.607448,4441.235652,7994.224174,-612.876398
169.607769,3849.070898,8586.388927,-919.314598
169.608090,3701.029710,8660.409521,-842.705048
169.608411,3182.885551,9252.574275,-459.657299
169.608732,3330.926739,9104.533087,0.000000
169.609052,3701.029710,8808.450710,-383.047749
169.609373,3330.926739,9400.615463,0.000000
169.609694,3404.947333,8882.471304,306.438199
169.610015,3404.947333,8512.368333,0.000000
169.610336,3627.009116,8290.306550,689.485948
169.610657,4293.194464,8142.265362,1072.533697
169.610977,4811.338623,7920.203579,612.876398
169.611298,5625.565159,7624.121203,536.266849
169.611619,5847.626942,7328.038826,459.657299
169.611940,6291.750507,7031.956449,306.438199
169.612261,6587.832884,7031.956449,229.828649
169.612582,6883.915261,7254.018232,-306.438199
169.612902,6957.935855,7031.956449,-459.657299
169.613223,6809.894666,7254.018232,-689.485948
169.613544,7105.977043,7698.141797,-995.924147
169.613865,6513.812290,7402.059420,-1149.143247
169.614186,6291.750507,7994.224174,-1302.362347
169.614507,5847.626942,7772.162391,-1149.143247
169.614827,5551.544565,7846.182985,-459.657299
169.615148,4811.338623,7772.162391,-383.047749
169.615469,4811.338623,7846.182985,-153.219100
169.615790,4663.297435,7698.141797,-229.828649
169.616111,3997.112087,8512.368333,-689.485948
169.616432,4145.153275,8660.409521,-612.876398
169.616752,4219.173869,8734.430116,-306.438199
169.617073,4219.173869,8808.450710,306.438199
169.617394,3923.091493,8808.450710,229.828649
169.617715,4663.297435,8142.265362,766.095498
169.618036,4367.215058,8364.327145,612.876398
169.618357,4663.297435,8216.285956,536.266849
169.618677,5107.421000,7920.203579,689.485948
169.618998,5181.441594,8142.265362,306.438199
169.619319,5255.462188,7846.182985,153.219100
169.619640,5625.565159,7698.141797,536.266849
169.619961,6143.709319,7254.018232,459.657299
169.620282,5847.626942,7772.162391,-383.047749
169.620602,6069.688724,7550.100608,-536.266849
169.620923,5847.626942,7846.182985,-612.876398
169.621244,5477.523971,7994.224174,-229.828649
169.621565,5477.523971,8290.306550,-995.924147
169.621886,5477.523971,7624.121203,-842.705048
169.622207,4737.318029,8364.327145,-1149.143247
169.622527,4145.153275,8364.327145,-536.266849
169.622848,3701.029710,8734.430116,-995.924147
169.623169,3552.988522,8882.471304,-536.266849
169.623490,3330.926739,9104.533087,0.000000
169.623811,3034.844362,9252.574275,0.000000
169.624132,2960.823768,9548.656652,-306.438199
169.624453,3034.844362,9104.533087,0.000000
169.624774,2960.823768,8808.450710,76.609550
169.625095,3256.906145,8956.491898,229.828649
169.625416,3627.009116,8364.327145,306.438199
169.625737,4145.153275,8216.285956,689.485948
169.626058,4663.297435,8142.265362,612.876398
169.626379,5181.441594,7772.162391,536.266849
169.626700,5551.544565,7402.059420,689.485948
169.627021,6143.709319,7105.977043,306.438199
169.627342,6883.915261,6809.894666,383.047749
169.627663,7031.956449,6439.791695,0.000000
169.627984,7476.080014,6735.874072,0.000000
169.628305,7698.141797,6735.874072,0.000000
169.628627,7328.038826,7105.977043,-995.924147
169.628948,7105.977043,7105.977043,-1072.533697
169.629269,6735.874072,7402.059420,-1225.752797
169.629590,6291.750507,7105.977043,-1149.143247
169.629911,6069.688724,7402.059420,-919.314598
169.630232,5329.482782,8068.244768,-842.705048
169.630553,4663.297435,8142.265362,-612.876398
169.630874,4293.194464,8364.327145,-612.876398
169.631195,4293.194464,7920.203579,-229.828649
169.631516,3997.112087,7994.224174,0.000000
169.631837,3552.988522,8660.409521,0.000000
169.632158,3627.009116,8660.409521,76.609550
169.632479,3404.947333,8882.471304,306.438199
169.632800,3478.967927,8142.265362,76.609550
169.633121,3997.112087,8364.327145,612.876398
169.633442,4071.132681,8512.368333,306.438199
169.633763,4219.173869,8512.368333,306.438199
169.634084,4515.256246,8290.306550,229.828649
169.634405,4885.359217,8290.306550,229.828649
169.634726,5329.482782,8290.306550,229.828649
169.635047,6069.688724,7624.121203,153.219100
169.635368,5847.626942,7846.182985,0.000000
169.635689,6069.688724,7772.162391,-153.219100
169.636010,6439.791695,7698.141797,-229.828649
169.636331,6217.729913,8068.244768,-842.705048
169.636652,5921.647536,7772.162391,-689.485948
169.636973,5403.503377,7994.224174,-612.876398
169.637294,5107.421000,7624.121203,-612.876398
169.637615,4737.318029,7994.224174,-459.657299
169.637936,4293.194464,7994.224174,-612.876398
169.638257,4663.297435,8586.388927,-689.485948
169.638578,3627.009116,8734.430116,-689.485948
169.638899,3775.050304,8734.430116,-536.266849
169.639220,3701.029710,9178.553681,0.000000
169.639541,3478.967927,8956.491898,-689.485948
169.639862,3108.864956,9252.574275,-766.095498
169.640183,3404.947333,9400.615463,-459.657299
169.640505,3849.070898,9400.615463,-229.828649
169.640826,4071.132681,8512.368333,536.266849
169.641147,4367.215058,8216.285956,1072.533697
169.641468,4959.379811,7624.121203,842.705048
169.641789,4885.359217,7550.100608,459.657299
169.642110,5477.523971,7402.059420,995.924147
169.642431,6143.709319,7179.997637,766.095498
169.642752,6957.935855,6735.874072,612.876398
169.643073,6809.894666,6735.874072,76.609550
169.643394,7105.977043,7031.956449,-306.438199
169.643715,6957.935855,7254.018232,-383.047749
169.644036,7031.956449,7105.977043,-536.266849
169.644357,6587.832884,7698.141797,-1378.971896
169.644678,6587.832884,7624.121203,-1149.143247
169.644999,5921.647536,7772.162391,-1149.143247
169.645320,5329.482782,8142.265362,-995.924147
169.645641,5107.421000,8364.327145,-383.047749
169.645962,4663.297435,8142.265362,-536.266849
169.646283,3923.091493,7920.203579,-766.095498
169.646604,3997.112087,8364.327145,-383.047749
169.646925,3775.050304,8068.244768,229.828649
169.647246,3552.988522,8586.388927,0.000000
169.647567,3701.029710,8364.327145,229.828649
169.647888,3701.029710,8734.430116,76.609550
169.648209,3849.070898,8586.388927,-76.609550
169.648530,3552.988522,8808.450710,383.047749
169.648851,4367.215058,8586.388927,536.266849
169.649172,4811.338623,8216.285956,459.657299
169.649493,5329.482782,8068.244768,229.828649
169.649814,5107.421000,7994.224174,306.438199
169.650135,5403.503377,7920.203579,383.047749
169.650456,5847.626942,7179.997637,383.047749
169.650777,6143.709319,7105.977043,0.000000
169.651098,6217.729913,7328.038826,-76.609550
169.651419,6439.791695,7328.038826,-459.657299
169.651740,6291.750507,7698.141797,-383.047749
169.652061,6069.688724,7698.141797,-612.876398
169.652382,5773.606348,7846.182985,-612.876398
169.652704,5625.565159,7846.182985,-1149.143247
169.653025,5107.421000,8142.265362,-1149.143247
169.653346,4663.297435,7994.224174,-995.924147
169.653667,4441.235652,8290.306550,-689.485948
169.653988,4145.153275,8512.368333,-229.828649
169.654309,3775.050304,9030.512492,-306.438199
169.654630,3108.864956,9104.533087,-383.047749
169.654951,3330.926739,9030.512492,-153.219100
169.655272,3108.864956,8956.491898,153.219100
169.655593,3404.947333,8660.409521,76.609550
169.655914,3701.029710,8660.409521,76.609550
169.656235,3701.029710,8660.409521,0.000000
169.656556,4071.132681,8290.306550,459.657299
169.656877,4737.318029,7846.182985,306.438199
169.657198,5403.503377,7624.121203,689.485948
169.657519,6069.688724,7105.977043,689.485948
169.657840,6809.894666,7105.977043,459.657299
169.658161,6661.853478,6735.874072,153.219100
169.658482,7031.956449,6587.832884,306.438199
169.658803,7550.100608,6809.894666,0.000000
169.659124,7254.018232,6883.915261,-459.657299
169.659445,7105.977043,7254.018232,-995.924147
169.659766,6735.874072,7624.121203,-1455.581446
169.660087,6291.750507,7994.224174,-1072.533697
169.660408,5921.647536,7920.203579,-1378.971896
169.660729,5699.585753,7994.224174,-766.095498
169.661050,4737.318029,8438.347739,-1225.752797
169.661371,4071.132681,8586.388927,-842.705048
169.661692,3775.050304,8586.388927,-459.657299
169.662013,3330.926739,8882.471304,-153.219100
169.662334,3701.029710,8808.450710,0.000000
169.662655,3404.947333,8734.430116,306.438199
169.662976,3330.926739,8660.409521,612.876398
169.663297,3404.947333,8808.450710,459.657299
169.663618,3404.947333,8808.450710,459.657299
169.663939,3849.070898,8734.430116,536.266849
169.664260,4515.256246,8586.388927,919.314598
169.664581,4737.318029,7994.224174,459.657299
169.664903,4959.379811,8290.306550,536.266849
169.665224,5255.462188,7920.203579,229.828649
169.665545,5625.565159,7846.182985,306.438199
169.665866,6069.688724,7328.038826,0.000000
169.666187,6513.812290,7476.080014,0.000000
169.666508,6735.874072,7698.141797,-153.219100
169.666829,6661.853478,7402.059420,-76.609550
169.667150,6513.812290,7624.121203,-536.266849
169.667471,6291.750507,7698.141797,-1072.533697
169.667792,5699.585753,7476.080014,-689.485948
169.668113,5773.606348,7328.038826,-919.314598
169.668434,5403.503377,7846.182985,-842.705048
169.668755,4737.318029,7994.224174,-766.095498
169.669076,4441.235652,8290.306550,-612.876398
169.669397,4071.132681,8586.388927,-919.314598
169.669718,3923.091493,8512.368333,-306.438199
169.670039,3997.112087,8512.368333,0.000000
169.670360,3552.988522,8734.430116,0.000000
169.670681,3775.050304,8660.409521,-306.438199
169.671002,3627.009116,8512.368333,0.000000
169.671323,3849.070898,8512.368333,153.219100
169.671644,4219.173869,8734.430116,612.876398
169.671965,4441.235652,8142.265362,612.876398
169.672286,4811.338623,7994.224174,383.047749
169.672607,5329.482782,7624.121203,153.219100
169.672928,5847.626942,7105.977043,229.828649
169.673249,6069.688724,7105.977043,459.657299
169.673570,6809.894666,7105.977043,229.828649
169.673891,6883.915261,7105.977043,0.000000
169.674212,6513.812290,7254.018232,-459.657299
169.674533,6365.771101,7402.059420,-919.314598
169.674854,6513.812290,7846.182985,-995.924147
169.675175,6217.729913,8068.244768,-689.485948
169.675496,6069.688724,7994.224174,-612.876398
169.675817,5403.503377,8068.244768,-689.485948
169.676138,4737.318029,8512.368333,-766.095498
169.676459,4293.194464,8586.388927,-536.266849
169.676781,3775.050304,8660.409521,-536.266849
169.677102,3849.070898,8512.368333,0.000000
169.677423,3849.070898,8956.491898,0.000000
169.677744,3552.988522,9178.553681,-383.047749
169.678065,3627.009116,9030.512492,-306.438199
169.678386,3552.988522,8956.491898,0.000000
169.678707,3775.050304,8660.409521,459.657299
169.679028,4071.132681,8512.368333,842.705048
169.679349,4441.235652,8956.491898,689.485948
169.679670,4737.318029,8438.347739,919.314598
169.679991,5107.421000,7994.224174,689.485948
169.680312,5181.441594,7920.203579,536.266849
169.680633,5699.585753,7550.100608,306.438199
169.680954,5921.647536,7105.977043,536.266849
169.681275,5921.647536,7105.977043,229.828649
169.681596,6587.832884,6883.915261,0.000000
169.681917,6513.812290,7179.997637,-229.828649
169.682238,6661.853478,7550.100608,0.000000
169.682559,6661.853478,7402.059420,-459.657299
169.682880,6143.709319,7328.038826,-153.219100
169.683201,5847.626942,7994.224174,-995.924147
169.683522,5551.544565,7624.121203,-919.314598
169.683843,4959.379811,8068.244768,-536.266849
169.684164,4737.318029,8068.244768,-919.314598
169.684485,3997.112087,8364.327145,-612.876398
169.684806,3478.967927,8512.368333,-919.314598
169.685127,3330.926739,8808.450710,-229.828649
169.685448,3182.885551,8734.430116,76.609550
169.685769,3034.844362,8882.471304,229.828649
169.686090,3478.967927,8882.471304,0.000000
169.686411,3330.926739,8660.409521,0.000000
169.686732,3627.009116,8512.368333,0.000000
169.687053,3849.070898,8142.265362,919.314598
169.687374,4145.153275,7994.224174,612.876398
169.687695,4885.359217,7698.141797,842.705048
169.688016,5477.523971,7550.100608,229.828649
169.688337,5995.668130,7105.977043,612.876398
169.688658,6587.832884,7105.977043,229.828649
169.688980,6809.894666,6883.915261,306.438199
169.689301,6957.935855,6587.832884,-76.609550
169.689622,7476.080014,7105.977043,-689.485948
169.689943,7402.059420,7105.977043,-919.314598
169.690264,7402.059420,7254.018232,-995.924147
169.690585,7105.977043,7550.100608,-1225.752797
169.690906,6661.853478,7624.121203,-1378.971896
169.691227,6069.688724,8068.244768,-1149.143247
169.691548,5107.421000,8364.327145,-766.095498
169.691869,4811.338623,8364.327145,-842.705048
169.692190,4737.318029,8512.368333,-689.485948
169.692511,4145.153275,8586.388927,-383.047749
169.692832,3701.029710,8808.450710,-229.828649
169.693153,3478.967927,8882.471304,0.000000
169.693474,3256.906145,9326.594869,76.609550
169.693795,3034.844362,9178.553681,76.609550
169.694116,3108.864956,9326.594869,153.219100
169.694437,3256.906145,9252.574275,306.438199
169.694758,3552.988522,8956.491898,536.266849
169.695079,3923.091493,8956.491898,766.095498
169.695400,3997.112087,8660.409521,842.705048
169.695721,4515.256246,8586.388927,536.266849
169.696042,4885.359217,7698.141797,383.047749
169.696363,5329.482782,8142.265362,76.609550
169.696684,5625.565159,7994.224174,0.000000
169.697005,5921.647536,7550.100608,0.000000
169.697326,6291.750507,7402.059420,0.000000
169.697647,6217.729913,7846.182985,-536.266849
169.697968,6143.709319,7624.121203,-612.876398
169.698289,5847.626942,7624.121203,-919.314598
169.698610,5773.606348,7476.080014,-995.924147
169.698931,5699.585753,7772.162391,-1149.143247
169.699252,5625.565159,7550.100608,-612.876398
169.699573,4959.379811,7846.182985,-842.705048
169.699894,4663.297435,8068.244768,-766.095498
169.700215,4071.132681,8364.327145,-766.095498
169.700536,3997.112087,8512.368333,-689.485948
169.700858,4145.153275,8512.368333,-612.876398
169.701179,3701.029710,8364.327145,76.609550
169.701500,3701.029710,8660.409521,0.000000
169.701821,3478.967927,8512.368333,229.828649
169.702142,3701.029710,8364.327145,0.000000
169.702463,4071.132681,8142.265362,0.000000
169.702784,4219.173869,7920.203579,459.657299
169.703105,4737.318029,7476.080014,766.095498
169.703426,5551.544565,7328.038826,766.095498
169.703747,5699.585753,7476.080014,995.924147
169.704068,6143.709319,7105.977043,1302.362347
169.704389,6513.812290,6587.832884,536.266849
169.704710,6661.853478,6957.935855,229.828649
169.705031,6957.935855,7105.977043,0.000000
169.705352,7105.977043,7402.059420,-383.047749
169.705673,7031.956449,7994.224174,-689.485948
169.705994,6735.874072,7772.162391,-1455.581446
169.706315,6069.688724,7550.100608,-1072.533697
169.706636,5773.606348,7772.162391,-842.705048
169.706957,5033.400406,8364.327145,-842.705048
169.707278,5033.400406,8512.368333,-995.924147
169.707599,4441.235652,8438.347739,-536.266849
169.707920,4219.173869,8438.347739,-306.438199
169.708241,4145.153275,8660.409521,0.000000
169.708562,3849.070898,8734.430116,306.438199
169.708883,3552.988522,9104.533087,0.000000
169.709204,3478.967927,9252.574275,76.609550
169.709525,3627.009116,8438.347739,229.828649
169.709846,3775.050304,8586.388927,459.657299
169.710167,4145.153275,8882.471304,766.095498
169.710488,4441.235652,8956.491898,536.266849
169.710809,4515.256246,8586.388927,0.000000
169.711130,4885.359217,8438.347739,306.438199
169.711451,4959.379811,8290.306550,383.047749
169.711772,5551.544565,8142.265362,229.828649
169.712093,5847.626942,7476.080014,612.876398
169.712414,5921.647536,7550.100608,0.000000
169.712735,5921.647536,7402.059420,-153.219100
169.713057,5625.565159,7920.203579,-459.657299
169.713378,5477.523971,7920.203579,-383.047749
169.713699,5625.565159,8068.244768,-306.438199
169.714020,5773.606348,7624.121203,-1072.533697
169.714341,5107.421000,7920.203579,-1378.971896
169.714662,4663.297435,8142.265362,-995.924147
169.714983,4293.194464,8290.306550,-612.876398
169.715304,3923.091493,8438.347739,-995.924147
169.715625,3775.050304,8956.491898,-536.266849
169.715946,3701.029710,9104.533087,-842.705048
169.716267,3552.988522,8956.491898,-306.438199
169.716588,3404.947333,9030.512492,-306.438199
169.716909,3478.967927,9326.594869,76.609550
169.717230,3701.029710,8586.388927,0.000000
169.717551,4071.132681,8512.368333,-229.828649
169.717872,4145.153275,8290.306550,153.219100
169.718193,4515.256246,7846.182985,1378.971896
169.718514,5181.441594,7698.141797,842.705048
169.718835,5625.565159,7476.080014,306.438199
169.719156,6143.709319,7031.956449,153.219100
169.719477,6661.853478,6809.894666,229.828649
169.719798,6957.935855,6661.853478,459.657299
169.720119,7179.997637,6883.915261,0.000000
169.720440,7402.059420,6809.894666,-229.828649
169.720761,7328.038826,7105.977043,-842.705048
169.721082,7105.977043,7254.018232,-919.314598
169.721403,7105.977043,7772.162391,-995.924147
169.721724,6587.832884,7328.038826,-919.314598
169.722045,6143.709319,7772.162391,-995.924147
169.722366,5625.565159,7772.162391,-995.924147
169.722687,5107.421000,8586.388927,-1072.533697
169.723008,4515.256246,8586.388927,-766.095498
169.723329,4367.215058,8438.347739,-995.924147
169.723650,3627.009116,8660.409521,-229.828649
169.723971,3775.050304,8808.450710,0.000000
169.724292,3330.926739,9178.553681,0.000000
169.724613,3404.947333,9178.553681,229.828649
169.724934,3182.885551,8882.471304,0.000000
169.725255,3627.009116,9178.553681,612.876398
169.725575,3775.050304,8438.347739,842.705048
169.725896,4219.173869,8512.368333,766.095498
169.726217,4367.215058,8216.285956,919.314598
169.726538,4589.276840,8364.327145,1072.533697
169.726859,5255.462188,8142.265362,459.657299
169.727180,5625.565159,7698.141797,306.438199
169.727501,5625.565159,7402.059420,153.219100
169.727822,6069.688724,7328.038826,0.000000
169.728143,6883.915261,7920.203579,-153.219100
169.728464,6291.750507,7920.203579,-383.047749
169.728784,6143.709319,7772.162391,-459.657299
169.729105,5625.565159,7994.224174,-689.485948
169.729426,5699.585753,7698.141797,-766.095498
169.729747,5107.421000,7772.162391,-766.095498
169.730068,4811.338623,8142.265362,-536.266849
169.730389,4589.276840,8364.327145,-612.876398
169.730710,3997.112087,8512.368333,-306.438199
169.731031,3701.029710,8512.368333,-536.266849
169.731352,3552.988522,8956.491898,-766.095498
169.731673,3404.947333,8586.388927,-612.876398
169.731994,3034.844362,8660.409521,153.219100
169.732314,3108.864956,8512.368333,153.219100
169.732635,3478.967927,8438.347739,76.609550
169.732956,3849.070898,8438.347739,153.219100
169.733277,4219.173869,8290.306550,689.485948
169.733598,4589.276840,7698.141797,536.266849
169.733919,5255.462188,7550.100608,766.095498
169.734240,5995.668130,7179.997637,612.876398
169.734561,6735.874072,6883.915261,383.047749
169.734882,6365.771101,6439.791695,459.657299
169.735203,7105.977043,6661.853478,229.828649
169.735523,7402.059420,6217.729913,-229.828649
169.735844,7328.038826,6661.853478,-383.047749
169.736165,7328.038826,7105.977043,-995.924147
169.736486,7254.018232,7328.038826,-1302.362347
169.736807,6513.812290,7772.162391,-1149.143247
169.737128,6439.791695,7624.121203,-1532.190996
169.737449,6143.709319,7920.203579,-1302.362347
169.737770,5181.441594,8216.285956,-1302.362347
169.738091,4589.276840,8438.347739,-842.705048
169.738412,4145.153275,8586.388927,-995.924147
169.738733,3701.029710,8808.450710,-459.657299
169.739053,3775.050304,9104.533087,153.219100
169.739374,3552.988522,9030.512492,-383.047749
169.739695,3404.947333,9400.615463,-306.438199
169.740016,3478.967927,9400.615463,0.000000
169.740337,3701.029710,9252.574275,459.657299
169.740658,4219.173869,8882.471304,1072.533697
169.740979,4145.153275,9178.553681,842.705048
169.741300,4441.235652,8734.430116,612.876398
169.741621,4959.379811,8290.306550,383.047749
169.741942,5403.503377,8142.265362,306.438199
169.742262,5995.668130,7920.203579,459.657299
169.742583,6217.729913,7772.162391,383.047749
169.742904,6439.791695,7698.141797,383.047749
169.743225,6291.750507,7476.080014,153.219100
169.743546,6661.853478,7698.141797,0.000000
169.743867,6587.832884,7920.203579,-459.657299
169.744188,5995.668130,7994.224174,-612.876398
169.744509,6217.729913,7994.224174,-689.485948
169.744830,5699.585753,7550.100608,-919.314598
169.745151,5403.503377,7698.141797,-995.924147
169.745472,5181.441594,7846.182985,-995.924147
169.745792,4145.153275,8438.347739,-919.314598
169.746113,3627.009116,8512.368333,-995.924147
169.746434,3256.906145,8808.450710,-306.438199
169.746755,2960.823768,9474.636058,-229.828649
169.747076,2516.700203,9326.594869,-153.219100
169.747397,2738.761985,9178.553681,-536.266849
169.747718,2590.720797,8882.471304,-383.047749
169.748039,2812.782580,8734.430116,0.000000
169.748360,3034.844362,8438.347739,459.657299
169.748681,3404.947333,8512.368333,919.314598
169.749002,4071.132681,7920.203579,842.705048
169.749322,4589.276840,7550.100608,919.314598
169.749643,5181.441594,7105.977043,1149.143247
169.749964,5921.647536,7105.977043,842.705048
169.750285,6587.832884,6809.894666,612.876398
169.750606,6957.935855,6809.894666,0.000000
169.750927,7179.997637,6291.750507,0.000000
169.751248,7550.100608,6513.812290,-229.828649
169.751569,7328.038826,6587.832884,-766.095498
169.751890,7476.080014,6809.894666,-995.924147
169.752211,7105.977043,7550.100608,-1302.362347
169.752531,6883.915261,7624.121203,-1225.752797
169.752852,6217.729913,7698.141797,-1072.533697
169.753173,6069.688724,7994.224174,-1072.533697
169.753494,5255.462188,8216.285956,-1225.752797
169.753815,4589.276840,8290.306550,-536.266849
169.754136,3997.112087,8512.368333,-612.876398
169.754457,3923.091493,8586.388927,0.000000
169.754778,3701.029710,9252.574275,612.876398
169.755099,3849.070898,8808.450710,76.609550
169.755420,3552.988522,8808.450710,76.609550
169.755741,3701.029710,9104.533087,612.876398
169.756061,3627.009116,8956.491898,153.219100
169.756382,4367.215058,8512.368333,383.047749
169.756703,4367.215058,8216.285956,612.876398
169.757024,4885.359217,7920.203579,1149.143247
169.757345,5181.441594,8068.244768,612.876398
169.757666,5477.523971,7994.224174,536.266849
169.757987,5773.606348,7920.203579,229.828649
169.758308,5995.668130,7772.162391,-306.438199
169.758629,6217.729913,7550.100608,153.219100
169.758950,6439.791695,7402.059420,-459.657299
169.759270,6587.832884,8068.244768,-766.095498
169.759591,6143.709319,8216.285956,-612.876398
169.759912,5847.626942,7698.141797,-1225.752797
169.760233,5477.523971,7920.203579,-766.095498
169.760554,5329.482782,7994.224174,-1225.752797
169.760875,4737.318029,8216.285956,-536.266849
169.761196,4145.153275,8512.368333,-1149.143247
169.761517,3849.070898,8586.388927,-842.705048
169.761838,3478.967927,8882.471304,-842.705048
169.762159,3256.906145,9104.533087,-766.095498
169.762480,2886.803174,8808.450710,-459.657299
169.762800,2886.803174,9252.574275,-153.219100
169.763121,3034.844362,9252.574275,0.000000
169.763442,3256.906145,8586.388927,0.000000
169.763763,3404.947333,8882.471304,306.438199
169.764084,4071.132681,8734.430116,306.438199
169.764405,4145.153275,8364.327145,536.266849
169.764726,4811.338623,7698.141797,459.657299
169.765047,5329.482782,7550.100608,689.485948
169.765368,5551.544565,7105.977043,766.095498
169.765689,6291.750507,6883.915261,536.266849
169.766009,6957.935855,6957.935855,612.876398
169.766330,7179.997637,6587.832884,0.000000
169.766651,7254.018232,6957.935855,-306.438199
169.766972,7179.997637,6957.935855,-612.876398
169.767293,6957.935855,7402.059420,-919.314598
169.767614,6735.874072,7624.121203,-995.924147
169.767935,6291.750507,7846.182985,-995.924147
169.768256,5921.647536,7846.182985,-995.924147
169.768577,5329.482782,7920.203579,-919.314598
169.768898,4959.379811,8068.244768,-1072.533697
169.769219,4515.256246,8290.306550,-842.705048
169.769539,4219.173869,8068.244768,-612.876398
169.769860,4145.153275,8734.430116,0.000000
169.770181,4219.173869,8290.306550,0.000000
169.770502,3775.050304,8586.388927,0.000000
169.770823,4071.132681,8808.450710,0.000000
169.771144,3923.091493,8290.306550,536.266849
169.771465,4367.215058,8290.306550,842.705048
169.771786,4663.297435,8142.265362,919.314598
169.772107,4811.338623,7920.203579,842.705048
169.772428,5107.421000,7772.162391,689.485948
169.772748,5255.462188,7846.182985,612.876398
169.773069,5625.565159,7698.141797,689.485948
169.773390,5699.585753,7920.203579,306.438199
169.773711,5921.647536,7328.038826,0.000000
169.774032,6365.771101,7328.038826,0.000000
169.774353,6217.729913,7698.141797,-153.219100
169.774674,5921.647536,7772.162391,-306.438199
169.774995,5773.606348,7994.224174,-842.705048
169.775316,5477.523971,7846.182985,-995.924147
169.775637,5625.565159,8068.244768,-919.314598
169.775958,5255.462188,8068.244768,-1225.752797
169.776278,4589.276840,8216.285956,-1302.362347
169.776599,3627.009116,8586.388927,-1225.752797
169.776920,3552.988522,8512.368333,-766.095498
169.777241,3256.906145,9178.553681,-612.876398
169.777562,3108.864956,9326.594869,-536.266849
169.777883,3034.844362,9178.553681,-153.219100
169.778204,2960.823768,9030.512492,0.000000
169.778525,2812.782580,8956.491898,229.828649
169.778846,3108.864956,8882.471304,306.438199
169.779167,3552.988522,8438.347739,306.438199
169.779487,3923.091493,8142.265362,459.657299
169.779808,4441.235652,8142.265362,153.219100
169.780129,4737.318029,7994.224174,306.438199
169.780450,5477.523971,7476.080014,459.657299
169.780771,5847.626942,7254.018232,842.705048
169.781092,6587.832884,7254.018232,76.609550
169.781413,6883.915261,6809.894666,153.219100
169.781734,7105.977043,7105.977043,0.000000
169.782055,7328.038826,7179.997637,76.609550
169.782376,7105.977043,7254.018232,-1225.752797
169.782697,7105.977043,7179.997637,-995.924147
169.783017,7031.956449,7328.038826,-1378.971896
169.783338,6587.832884,7550.100608,-1378.971896
169.783659,5995.668130,7698.141797,-995.924147
169.783980,5773.606348,7624.121203,-842.705048
169.784301,4959.379811,8364.327145,-995.924147
169.784622,4293.194464,8660.409521,-842.705048
169.784943,4145.153275,8364.327145,-459.657299
169.785264,4145.153275,8364.327145,-229.828649
169.785585,3997.112087,8438.347739,0.000000
169.785906,3701.029710,9104.533087,153.219100
169.786226,3108.864956,9030.512492,0.000000
169.786547,3627.009116,8660.409521,153.219100
169.786868,4071.132681,8438.347739,689.485948
169.787189,4589.276840,8216.285956,689.485948
169.787510,4589.276840,7994.224174,689.485948
169.787831,4811.338623,7772.162391,612.876398
169.788152,4959.379811,7920.203579,383.047749
169.788473,5625.565159,7624.121203,536.266849
169.788794,5995.668130,7402.059420,689.485948
169.789115,6217.729913,7624.121203,76.609550
169.789436,6217.729913,7476.080014,76.609550
169.789756,6439.791695,7624.121203,-229.828649
169.790077,6513.812290,8364.327145,-536.266849
169.790398,5773.606348,7772.162391,-766.095498
169.790719,5699.585753,7624.121203,-766.095498
169.791040,5477.523971,7772.162391,-995.924147
169.791361,4959.379811,7698.141797,-1072.533697
169.791682,4441.235652,8142.265362,-766.095498
169.792003,4441.235652,8142.265362,-612.876398
169.792324,3849.070898,8512.368333,-306.438199
169.792645,3552.988522,8882.471304,-383.047749
169.792965,2960.823768,8882.471304,-459.657299
169.793286,3182.885551,8808.450710,153.219100
169.793607,3034.844362,8808.450710,76.609550
169.793928,3108.864956,9030.512492,0.000000
169.794249,3108.864956,8882.471304,153.219100
169.794570,3552.988522,8956.491898,306.438199
169.794891,3923.091493,8808.450710,-229.828649
169.795212,4219.173869,8216.285956,459.657299
169.795533,4885.359217,7846.182985,383.047749
169.795854,5329.482782,7698.141797,766.095498
169.796175,5625.565159,7031.956449,689.485948
169.796495,6587.832884,6809.894666,689.485948
169.796816,6883.915261,6957.935855,153.219100
169.797137,7031.956449,6957.935855,0.000000
169.797458,7105.977043,7105.977043,-766.095498
169.797779,6735.874072,7402.059420,-842.705048
169.798100,6513.812290,7772.162391,-842.705048
169.798421,6439.791695,7772.162391,-1302.362347
169.798742,5921.647536,7772.162391,-1072.533697
169.799063,5773.606348,7698.141797,-1532.190996
169.799384,5329.482782,8364.327145,-766.095498
169.799704,4811.338623,8216.285956,-919.314598
169.800025,4145.153275,8290.306550,-536.266849
169.800346,4219.173869,8438.347739,-229.828649
169.800667,3849.070898,8660.409521,0.000000
169.800988,3701.029710,8586.388927,-153.219100
169.801309,3775.050304,8512.368333,-383.047749
169.801630,3923.091493,8808.450710,0.000000
169.801951,3997.112087,8660.409521,383.047749
169.802272,4293.194464,8068.244768,766.095498
169.802593,4219.173869,8438.347739,1378.971896
169.802914,4589.276840,8290.306550,842.705048
169.803234,4811.338623,7994.224174,536.266849
169.803555,5181.441594,7920.203579,229.828649
169.803876,5625.565159,7624.121203,689.485948
169.804197,6365.771101,7846.182985,383.047749
169.804518,6143.709319,7624.121203,0.000000
169.804839,6069.688724,7179.997637,76.609550
169.805160,6365.771101,7550.100608,0.000000
169.805481,6291.750507,7994.224174,-536.266849
169.805802,6143.709319,7772.162391,-1072.533697
169.806123,6143.709319,7920.203579,-919.314598
169.806443,5773.606348,7624.121203,-995.924147
169.806764,5255.462188,7698.141797,-919.314598
169.807085,4811.338623,7550.100608,-919.314598
169.807406,4441.235652,8216.285956,-1072.533697
169.807727,3923.091493,8512.368333,-1072.533697
169.808048,3775.050304,8586.388927,-383.047749
169.808369,3404.947333,9178.553681,-153.219100
169.808690,3404.947333,8808.450710,76.609550
169.809011,3256.906145,8808.450710,153.219100
169.809332,3108.864956,8808.450710,-229.828649
169.809653,3256.906145,8734.430116,-153.219100
169.809973,3478.967927,8660.409521,153.219100
169.810294,3997.112087,8512.368333,536.266849
169.810615,4515.256246,8142.265362,842.705048
169.810936,4737.318029,7846.182985,612.876398
169.811257,5181.441594,7698.141797,383.047749
169.811578,5551.544565,7328.038826,766.095498
169.811899,6587.832884,7105.977043,229.828649
169.812220,6587.832884,7105.977043,76.609550
169.812541,6809.894666,7254.018232,0.000000
169.812862,6883.915261,7698.141797,0.000000
169.813182,7105.977043,7254.018232,-612.876398
169.813503,6661.853478,7328.038826,-766.095498
169.813824,6365.771101,7476.080014,-1072.533697
169.814145,6217.729913,7846.182985,-1302.362347
169.814466,5625.565159,8068.244768,-1532.190996
169.814787,5625.565159,8438.347739,-1302.362347
169.815108,4737.318029,8364.327145,-919.314598
169.815429,4515.256246,8512.368333,-612.876398
169.815750,4219.173869,8660.409521,-76.609550
169.816071,3775.050304,8882.471304,229.828649
169.816392,3923.091493,8882.471304,76.609550
169.816712,3701.029710,8734.430116,229.828649
169.817033,3849.070898,8364.327145,0.000000
169.817354,3701.029710,8512.368333,306.438199
169.817675,4219.173869,8808.450710,995.924147
169.817996,4367.215058,8216.285956,536.266849
169.818317,4219.173869,7772.162391,1072.533697
169.818638,4811.338623,7920.203579,612.876398
169.818959,4885.359217,7698.141797,536.266849
169.819280,5847.626942,7624.121203,229.828649
169.819601,5847.626942,7698.141797,153.219100
169.819921,6069.688724,7550.100608,-459.657299
169.820242,6217.729913,7698.141797,-383.047749
169.820563,6365.771101,7476.080014,-383.047749
169.820884,6587.832884,7698.141797,-842.705048
169.821205,6365.771101,7624.121203,-1378.971896
169.821526,6217.729913,7698.141797,-995.924147
169.821847,5625.565159,7772.162391,-1302.362347
169.822168,4959.379811,7920.203579,-995.924147
169.822489,4811.338623,8216.285956,-689.485948
169.822810,4293.194464,8216.285956,-689.485948
169.823131,3775.050304,8438.347739,-306.438199
169.823451,3627.009116,8660.409521,-536.266849
169.823772,3404.947333,9104.533087,-536.266849
169.824093,3330.926739,8956.491898,0.000000
169.824414,3256.906145,8734.430116,0.000000
169.824735,3034.844362,8808.450710,0.000000
169.825056,2960.823768,8808.450710,0.000000
169.825377,3627.009116,8808.450710,306.438199
169.825698,4071.132681,8438.347739,153.219100
169.826019,4515.256246,8216.285956,383.047749
169.826339,5033.400406,7994.224174,459.657299
169.826660,5625.565159,7698.141797,536.266849
169.826981,5921.647536,7402.059420,459.657299
169.827302,6439.791695,7105.977043,459.657299
169.827623,6587.832884,7031.956449,0.000000
169.827944,6809.894666,7105.977043,0.000000
169.828265,7105.977043,6957.935855,0.000000
169.828585,7328.038826,7179.997637,-842.705048
169.828906,6883.915261,7254.018232,-536.266849
169.829227,6587.832884,7254.018232,-919.314598
169.829548,6439.791695,7328.038826,-995.924147
169.829869,6069.688724,7476.080014,-1072.533697
169.830190,5403.503377,8438.347739,-612.876398
169.830511,4959.379811,8142.265362,-842.705048
169.830832,4367.215058,8438.347739,-383.047749
169.831152,4219.173869,8660.409521,-383.047749
169.831473,4219.173869,8586.388927,0.000000
169.831794,3923.091493,8808.450710,0.000000
169.832115,4071.132681,8808.450710,0.000000
169.832436,3701.029710,8660.409521,0.000000
169.832757,3849.070898,8808.450710,536.266849
169.833078,3997.112087,8660.409521,612.876398
169.833398,4145.153275,8216.285956,766.095498
169.833719,4219.173869,8438.347739,766.095498
169.834040,4737.318029,7994.224174,612.876398
169.834361,4737.318029,8290.306550,459.657299
169.834682,5329.482782,7846.182985,536.266849
169.835003,5847.626942,7550.100608,383.047749
169.835324,5921.647536,7550.100608,459.657299
169.835645,5921.647536,7624.121203,0.000000
169.835965,6143.709319,7624.121203,0.000000
169.836286,6217.729913,7920.203579,-383.047749
169.836607,5773.606348,8068.244768,-766.095498
169.836928,5847.626942,8068.244768,-1072.533697
169.837249,5255.462188,7772.162391,-1149.143247
169.837570,5033.400406,7920.203579,-1149.143247
169.837891,4663.297435,7846.182985,-842.705048
169.838211,4071.132681,8438.347739,-612.876398
169.838532,3775.050304,8438.347739,-689.485948
169.838853,3775.050304,8660.409521,-229.828649
169.839174,3478.967927,8882.471304,-383.047749
169.839495,3478.967927,9104.533087,0.000000
169.839816,3034.844362,8660.409521,0.000000
169.840137,3404.947333,8734.430116,-383.047749
169.840458,3552.988522,8512.368333,76.609550
169.840778,3701.029710,8586.388927,153.219100
169.841099,4071.132681,8364.327145,536.266849
169.841420,4515.256246,8142.265362,536.266849
169.841741,5033.400406,7846.182985,459.657299
169.842062,5625.565159,7402.059420,536.266849
169.842383,6069.688724,7254.018232,612.876398
169.842704,6661.853478,7328.038826,-153.219100
169.843024,6957.935855,7105.977043,0.000000
169.843345,7105.977043,6883.915261,0.000000
169.843666,7402.059420,7254.018232,-459.657299
169.843987,7254.018232,7550.100608,-459.657299
169.844308,6809.894666,7328.038826,-689.485948
169.844629,6587.832884,7105.977043,-1072.533697
169.844950,6217.729913,7698.141797,-1149.143247
169.845271,5847.626942,7920.203579,-1072.533697
169.845591,5033.400406,8290.306550,-842.705048
169.845912,4959.379811,8734.430116,-612.876398
169.846233,4663.297435,8364.327145,-459.657299
169.846554,4663.297435,8438.347739,-459.657299
169.846875,3849.070898,8734.430116,0.000000
169.847196,3849.070898,8660.409521,0.000000
169.847517,3701.029710,8956.491898,0.000000
169.847838,3627.009116,8660.409521,0.000000
169.848158,3849.070898,8586.388927,229.828649
169.848479,4145.153275,8660.409521,306.438199
169.848800,4145.153275,8216.285956,612.876398
169.849121,4441.235652,7994.224174,766.095498
169.849442,4811.338623,7846.182985,766.095498
169.849763,5107.421000,7846.182985,536.266849
169.850084,5551.544565,7698.141797,842.705048
169.850404,6069.688724,7698.141797,229.828649
169.850725,6143.709319,7772.162391,0.000000
169.851046,5995.668130,7772.162391,-153.219100
169.851367,6513.812290,7550.100608,-383.047749
169.851688,6217.729913,7846.182985,-536.266849
169.852009,5995.668130,7772.162391,-766.095498
169.852330,5625.565159,7920.203579,-1225.752797
169.852651,5033.400406,8068.244768,-919.314598
169.852971,4589.276840,8290.306550,-612.876398
169.853292,4885.359217,7994.224174,-536.266849
169.853613,3775.050304,8512.368333,-383.047749
169.853934,3478.967927,8734.430116,0.000000
169.854255,3256.906145,8734.430116,-229.828649
169.854576,3182.885551,8734.430116,-153.219100
169.854897,2960.823768,8882.471304,0.000000
169.855217,2812.782580,8734.430116,153.219100
169.855538,3108.864956,8808.450710,153.219100
169.855859,3552.988522,8734.430116,153.219100
169.856180,3627.009116,8586.388927,153.219100
169.856501,4219.173869,8586.388927,612.876398
169.856822,4589.276840,8290.306550,612.876398
169.857143,5181.441594,7624.121203,689.485948
169.857464,5699.585753,7624.121203,536.266849
169.857784,6217.729913,7031.956449,459.657299
169.858105,6809.894666,6883.915261,76.609550
169.858426,7031.956449,6883.915261,-153.219100
169.858747,7328.038826,7105.977043,-612.876398
169.859068,7476.080014,7179.997637,-842.705048
169.859389,7254.018232,7254.018232,-919.314598
169.859710,6957.935855,7476.080014,-612.876398
169.860030,6217.729913,7550.100608,-306.438199
169.860351,5699.585753,7550.100608,-1149.143247
169.860672,5551.544565,7920.203579,-1302.362347
169.860993,5329.482782,8216.285956,-689.485948
169.861314,4441.235652,8808.450710,-689.485948
169.861635,3997.112087,8882.471304,-306.438199
169.861956,3775.050304,8734.430116,0.000000
169.862277,3775.050304,8734.430116,0.000000
169.862597,3478.967927,8956.491898,-229.828649
169.862918,3404.947333,9252.574275,229.828649
169.863239,3627.009116,8882.471304,383.047749
169.863560,3701.029710,8956.491898,459.657299
169.863881,4071.132681,8808.450710,459.657299
169.864202,4293.194464,8734.430116,459.657299
169.864523,4441.235652,8290.306550,383.047749
169.864843,4737.318029,8216.285956,306.438199
169.865164,5181.441594,7920.203579,76.609550
169.865485,5551.544565,7698.141797,76.609550
169.865806,6143.709319,7550.100608,153.219100
169.866127,6217.729913,7402.059420,153.219100
169.866448,6513.812290,7254.018232,0.000000
169.866769,6661.853478,7476.080014,-612.876398
169.867090,6439.791695,7624.121203,-919.314598
169.867410,6365.771101,7994.224174,-919.314598
169.867731,6143.709319,7624.121203,-842.705048
169.868052,5921.647536,7402.059420,-995.924147
169.868373,5181.441594,7772.162391,-919.314598
169.868694,4959.379811,7698.141797,-995.924147
169.869015,4441.235652,8068.244768,-995.924147
169.869336,3627.009116,8364.327145,-536.266849
169.869656,3552.988522,8438.347739,0.000000
169.869977,3256.906145,8660.409521,-383.047749
169.870298,2886.803174,8808.450710,-229.828649
169.870619,2812.782580,8586.388927,76.609550
169.870940,2812.782580,8660.409521,306.438199
169.871261,3256.906145,8512.368333,229.828649
169.871582,3404.947333,8438.347739,229.828649
169.871903,3775.050304,8290.306550,306.438199
169.872223,4367.215058,7994.224174,536.266849
169.872544,5033.400406,7846.182985,766.095498
169.872865,5551.544565,7476.080014,459.657299
169.873186,5625.565159,7105.977043,536.266849
169.873507,6365.771101,7031.956449,766.095498
169.873828,6957.935855,7031.956449,0.000000
169.874149,7105.977043,7031.956449,0.000000
169.874469,7328.038826,7179.997637,-306.438199
169.874790,7179.997637,7031.956449,-842.705048
169.875111,7105.977043,7402.059420,-1149.143247
169.875432,6883.915261,7550.100608,-1378.971896
169.875753,6587.832884,7698.141797,-1378.971896
169.876074,5773.606348,8142.265362,-1072.533697
169.876395,5403.503377,8068.244768,-995.924147
169.876716,4959.379811,9104.533087,-1072.533697
169.877036,4441.235652,8808.450710,-766.095498
169.877357,4145.153275,8586.388927,-459.657299
169.877678,3701.029710,8660.409521,0.000000
169.877999,3701.029710,8734.430116,0.000000
169.878320,3478.967927,8956.491898,383.047749
169.878641,3478.967927,9178.553681,0.000000
169.878962,3701.029710,8586.388927,766.095498
169.879282,3627.009116,8808.450710,689.485948
169.879603,3997.112087,8512.368333,689.485948
169.879924,4441.235652,7846.182985,842.705048
169.880245,4589.276840,8068.244768,536.266849
169.880566,5033.400406,7994.224174,612.876398
169.880887,5403.503377,7994.224174,536.266849
169.881208,6143.709319,7624.121203,76.609550
169.881529,6143.709319,7254.018232,0.000000
169.881849,6513.812290,7402.059420,76.609550
169.882170,6513.812290,7476.080014,-612.876398
169.882491,6217.729913,7550.100608,-766.095498
169.882812,6217.729913,7772.162391,-842.705048
169.883133,6217.729913,7772.162391,-995.924147
169.883454,5699.585753,7846.182985,-919.314598
169.883775,5625.565159,7920.203579,-1072.533697
169.884095,4885.359217,8142.265362,-612.876398
169.884416,4219.173869,8512.368333,-842.705048
169.884737,3997.112087,8586.388927,-612.876398
169.885058,3552.988522,8808.450710,-536.266849
169.885379,3108.864956,8734.430116,-459.657299
169.885700,3330.926739,8586.388927,0.000000
169.886021,3182.885551,9030.512492,459.657299
169.886342,3404.947333,8364.327145,0.000000
169.886662,3108.864956,8808.450710,76.609550
169.886983,3701.029710,8438.347739,383.047749
169.887304,3997.112087,8364.327145,536.266849
169.887625,4441.235652,8142.265362,459.657299
169.887946,4959.379811,7994.224174,383.047749
169.888267,5403.503377,7624.121203,459.657299
169.888588,5921.647536,7254.018232,306.438199
169.888908,6365.771101,7105.977043,536.266849
169.889229,6661.853478,7105.977043,229.828649
169.889550,7031.956449,7328.038826,0.000000
169.889871,7179.997637,7105.977043,-306.438199
169.890192,6957.935855,7254.018232,-766.095498
169.890513,6661.853478,7772.162391,-612.876398
169.890834,6291.750507,7772.162391,-689.485948
169.891155,6143.709319,7994.224174,-1072.533697
169.891475,5625.565159,7920.203579,-919.314598
169.891796,5255.462188,8290.306550,-1072.533697
169.892117,4737.318029,8438.347739,-1149.143247
169.892438,4293.194464,8660.409521,-536.266849
169.892759,4071.132681,8734.430116,-306.438199
169.893080,3701.029710,8808.450710,0.000000
169.893401,3701.029710,8882.471304,0.000000
169.893721,3404.947333,9326.594869,-153.219100
169.894042,3775.050304,8586.388927,459.657299
169.894363,4293.194464,8364.327145,689.485948
169.894684,4663.297435,8216.285956,842.705048
169.895005,4737.318029,8290.306550,1378.971896
169.895326,4737.318029,8068.244768,612.876398
169.895647,4811.338623,8142.265362,766.095498
169.895968,5181.441594,7920.203579,536.266849
169.896288,5625.565159,7920.203579,459.657299
169.896609,6217.729913,7624.121203,229.828649
169.896930,6143.709319,7328.038826,0.000000
169.897251,6439.791695,7476.080014,0.000000
169.897572,6143.709319,7624.121203,0.000000
169.897893,5773.606348,7772.162391,-383.047749
169.898214,6069.688724,8290.306550,-766.095498
169.898534,5773.606348,7920.203579,-689.485948
169.898855,5329.482782,7772.162391,-995.924147
169.899176,4811.338623,7920.203579,-995.924147
169.899497,4367.215058,7994.224174,-995.924147
169.899818,4071.132681,8216.285956,-766.095498
169.900139,3552.988522,8512.368333,-689.485948
169.900460,3627.009116,8660.409521,-536.266849
169.900781,3478.967927,8734.430116,0.000000
169.901101,3256.906145,8660.409521,-153.219100
169.901422,3627.009116,8660.409521,1072.533697
169.901743,3478.967927,8290.306550,0.000000
169.902064,3552.988522,8290.306550,0.000000
169.902385,4071.132681,8068.244768,76.609550
169.902706,4441.235652,8142.265362,76.609550
169.903027,5181.441594,7846.182985,766.095498
169.903348,5625.565159,7550.100608,459.657299
169.903668,6143.709319,7254.018232,383.047749
169.903989,6513.812290,7031.956449,229.828649
169.904310,7105.977043,6735.874072,306.438199
169.904631,6883.915261,7031.956449,0.000000
169.904952,7254.018232,7105.977043,-306.438199
169.905273,7105.977043,7328.038826,-459.657299
169.905594,6957.935855,7402.059420,-919.314598
169.905914,6735.874072,7179.997637,-766.095498
169.906235,6513.812290,7624.121203,-995.924147
169.906556,5847.626942,7920.203579,-919.314598
169.906877,5255.462188,8216.285956,-919.314598
169.907198,4737.318029,8290.306550,-919.314598
169.907519,4219.173869,8808.450710,-766.095498
169.907840,4293.194464,8956.491898,-536.266849
169.908161,3256.906145,9104.533087,-76.609550
169.908481,3775.050304,9104.533087,76.609550
169.908802,2960.823768,9400.615463,0.000000
169.909123,3034.844362,9400.615463,383.047749
169.909444,3552.988522,9326.594869,0.000000
169.909765,3775.050304,8734.430116,383.047749
169.910086,3849.070898,8438.347739,689.485948
169.910407,4293.194464,8068.244768,612.876398
169.910727,4589.276840,7846.182985,306.438199
169.911048,5107.421000,8068.244768,919.314598
169.911369,5403.503377,7624.121203,612.876398
169.911690,5921.647536,7328.038826,383.047749
169.912011,6513.812290,7105.977043,0.000000
169.912332,6883.915261,7105.977043,0.000000
169.912653,6883.915261,7179.997637,-536.266849
169.912974,7031.956449,7254.018232,-612.876398
169.913294,6661.853478,7402.059420,-1225.752797
169.913615,6365.771101,7476.080014,-1072.533697
169.913936,5921.647536,7254.018232,-1302.362347
169.914257,5625.565159,7846.182985,-1455.581446
169.914578,4959.379811,8068.244768,-842.705048
169.914899,4515.256246,7846.182985,-689.485948
169.915220,3627.009116,8364.327145,-766.095498
169.915540,3256.906145,8586.388927,-536.266849
169.915861,2960.823768,9474.636058,0.000000
169.916182,2664.741391,9178.553681,0.000000
169.916503,2516.700203,9178.553681,0.000000
169.916824,2738.761985,8956.491898,383.047749
169.917145,2664.741391,9252.574275,229.828649
169.917466,3404.947333,8734.430116,459.657299
169.917787,3478.967927,8586.388927,306.438199
169.918107,3997.112087,8142.265362,612.876398
169.918428,4737.318029,8068.244768,995.924147
169.918749,5403.503377,7772.162391,995.924147
169.919070,6217.729913,7254.018232,995.924147
169.919391,6365.771101,7031.956449,459.657299
169.919712,7179.997637,6587.832884,153.219100
169.920033,7476.080014,6735.874072,0.000000
169.920353,7476.080014,6957.935855,-229.828649
169.920674,7698.141797,7105.977043,0.000000
169.920995,7476.080014,7402.059420,-689.485948
169.921316,7328.038826,7402.059420,-1302.362347
169.921637,6809.894666,7550.100608,-995.924147
169.921958,6291.750507,7624.121203,-1225.752797
169.922279,5329.482782,7624.121203,-995.924147
169.922600,5107.421000,7920.203579,-1149.143247
169.922920,4663.297435,8142.265362,-995.924147
169.923241,4219.173869,8364.327145,-689.485948
169.923562,3923.091493,8956.491898,229.828649
169.923883,3849.070898,9178.553681,-383.047749
169.924204,3404.947333,9104.533087,0.000000
169.924525,3627.009116,9178.553681,0.000000
169.924846,3404.947333,9252.574275,229.828649
169.925167,3552.988522,9030.512492,612.876398
169.925488,3478.967927,8956.491898,919.314598
169.925808,3849.070898,8364.327145,842.705048
169.926129,4219.173869,8216.285956,842.705048
169.926450,4293.194464,8142.265362,842.705048
169.926771,4811.338623,7772.162391,842.705048
169.927092,5403.503377,7846.182985,612.876398
169.927413,5699.585753,7846.182985,459.657299
169.927734,5995.668130,7476.080014,459.657299
169.928055,5921.647536,7476.080014,0.000000
169.928376,6143.709319,7772.162391,-536.266849
169.928697,6143.709319,7920.203579,-689.485948
169.929018,6217.729913,7772.162391,-1149.143247
169.929339,5773.606348,8068.244768,-1149.143247
169.929660,5551.544565,8142.265362,-1149.143247
169.929981,5033.400406,8512.368333,-842.705048
169.930302,4663.297435,8364.327145,-1302.362347
169.930623,4441.235652,8142.265362,-1072.533697
169.930944,3923.091493,8586.388927,-842.705048
169.931265,3701.029710,8808.450710,-229.828649
169.931586,3330.926739,8956.491898,0.000000
169.931907,3182.885551,8734.430116,-383.047749
169.932228,3256.906145,8512.368333,0.000000
169.932549,3256.906145,8660.409521,383.047749
169.932870,3552.988522,8586.388927,0.000000
169.933191,3849.070898,8512.368333,306.438199
169.933512,4293.194464,8216.285956,612.876398
169.933833,4885.359217,7698.141797,536.266849
169.934154,5255.462188,7328.038826,459.657299
169.934475,5995.668130,7105.977043,689.485948
169.934796,6513.812290,6735.874072,459.657299
169.935116,6735.874072,6809.894666,459.657299
169.935437,7105.977043,7031.956449,0.000000
169.935758,7550.100608,6661.853478,-536.266849
169.936079,7402.059420,6809.894666,-459.657299
169.936400,7105.977043,7105.977043,-842.705048
169.936721,6809.894666,7254.018232,-1532.190996
169.937042,6513.812290,7550.100608,-1149.143247
169.937363,5995.668130,7846.182985,-919.314598
169.937684,5477.523971,8068.244768,-842.705048
169.938005,4959.379811,8364.327145,-1225.752797
169.938326,4367.215058,9030.512492,-919.314598
169.938647,4071.132681,9104.533087,-536.266849
169.938968,3775.050304,8808.450710,-306.438199
169.939289,3330.926739,8808.450710,0.000000
169.939610,3256.906145,8660.409521,383.047749
169.939931,3256.906145,8956.491898,306.438199
169.940252,3552.988522,9104.533087,153.219100
169.940573,3775.050304,8734.430116,459.657299
169.940894,3849.070898,8734.430116,919.314598
169.941215,4219.173869,8364.327145,689.485948
169.941536,4589.276840,8586.388927,842.705048
169.941857,4885.359217,7994.224174,842.705048
169.942178,4959.379811,8290.306550,459.657299
169.942499,5477.523971,7846.182985,459.657299
169.942820,6069.688724,7846.182985,306.438199
169.943141,6365.771101,7772.162391,-229.828649
169.943462,6143.709319,7624.121203,0.000000
169.943783,6143.709319,7772.162391,-612.876398
169.944104,6069.688724,7624.121203,-842.705048
169.944424,5699.585753,7846.182985,-995.924147
169.944745,6069.688724,8068.244768,-1302.362347
169.945066,5255.462188,8068.244768,-995.924147
169.945387,4811.338623,7994.224174,-919.314598
169.945708,4367.215058,8438.347739,-536.266849
169.946029,4589.276840,8660.409521,-766.095498
169.946350,3775.050304,8882.471304,-383.047749
169.946671,3182.885551,8734.430116,-766.095498
169.946992,3330.926739,9030.512492,0.000000
169.947313,3182.885551,8956.491898,76.609550
169.947634,3256.906145,8438.347739,0.000000
169.947955,3552.988522,9030.512492,229.828649
169.948276,3552.988522,8438.347739,306.438199
169.948597,3775.050304,8364.327145,536.266849
169.948918,4663.297435,7698.141797,306.438199
169.949239,5403.503377,7550.100608,306.438199
169.949560,5699.585753,7179.997637,1302.362347
169.949881,6143.709319,6883.915261,689.485948
169.950202,6587.832884,6513.812290,383.047749
169.950523,7105.977043,6661.853478,153.219100
169.950844,7402.059420,6809.894666,0.000000
169.951165,7698.141797,7105.977043,-306.438199
169.951486,7402.059420,7254.018232,-766.095498
169.951807,7105.977043,7105.977043,-995.924147
169.952128,6809.894666,7328.038826,-995.924147
169.952449,6661.853478,7402.059420,-995.924147
169.952770,5995.668130,7698.141797,-1072.533697
169.953091,5107.421000,8290.306550,-1302.362347
169.953412,4663.297435,8364.327145,-1225.752797
169.953732,4071.132681,8586.388927,-766.095498
169.954053,3849.070898,8734.430116,0.000000
169.954374,3701.029710,9178.553681,76.609550
169.954695,3552.988522,8956.491898,0.000000
169.955016,3034.844362,9178.553681,76.609550
169.955337,3256.906145,9030.512492,0.000000
169.955658,3404.947333,8808.450710,766.095498
169.955979,3849.070898,9178.553681,995.924147
169.956300,3552.988522,8586.388927,766.095498
169.956621,4219.173869,8364.327145,842.705048
169.956942,4441.235652,8290.306550,689.485948
169.957263,4589.276840,8216.285956,766.095498
169.957584,5033.400406,8216.285956,612.876398
169.957905,5625.565159,7846.182985,229.828649
169.958226,5921.647536,7698.141797,306.438199
169.958547,6143.709319,7624.121203,0.000000
169.958868,6439.791695,7698.141797,0.000000
169.959189,6291.750507,8216.285956,-306.438199
169.959510,6217.729913,7624.121203,-612.876398
169.959831,5995.668130,7920.203579,-919.314598
169.960152,5847.626942,7846.182985,-919.314598
169.960473,5773.606348,7698.141797,-1072.533697
169.960794,5107.421000,7846.182985,-1302.362347
169.961115,4663.297435,7994.224174,-995.924147
169.961436,4145.153275,8068.244768,-1072.533697
169.961757,4071.132681,8438.347739,-842.705048
169.962078,4071.132681,8586.388927,-383.047749
169.962399,3923.091493,8364.327145,-153.219100
169.962720,3923.091493,8364.327145,0.000000
169.963040,3478.967927,8734.430116,-76.609550
169.963361,3775.050304,8364.327145,0.000000
169.963682,4293.194464,8142.265362,-153.219100
169.964003,4367.215058,8216.285956,229.828649
169.964324,4367.215058,7994.224174,459.657299
169.964645,5107.421000,7698.141797,383.047749
169.964966,5625.565159,7105.977043,842.705048
169.965287,6217.729913,7031.956449,689.485948
169.965608,6809.894666,6883.915261,536.266849
169.965929,6735.874072,6735.874072,153.219100
169.966250,6883.915261,7105.977043,-306.438199
169.966571,7179.997637,7328.038826,0.000000
169.966892,7328.038826,7402.059420,-612.876398
169.967213,7179.997637,7550.100608,-1532.190996
169.967534,6735.874072,7402.059420,-1532.190996
169.967855,5995.668130,7920.203579,-1225.752797
169.968176,5551.544565,8290.306550,-842.705048
169.968497,4959.379811,8512.368333,-1302.362347
169.968818,4589.276840,9104.533087,-766.095498
169.969139,4367.215058,9252.574275,-612.876398
169.969460,3552.988522,9178.553681,-229.828649
169.969781,3182.885551,9252.574275,0.000000
169.970102,2960.823768,9030.512492,229.828649
169.970423,3182.885551,8956.491898,76.609550
169.970744,3182.885551,8956.491898,306.438199
169.971065,3404.947333,8586.388927,536.266849
169.971386,3552.988522,8660.409521,689.485948
169.971707,3701.029710,8364.327145,536.266849
169.972028,4367.215058,8364.327145,689.485948
169.972348,4219.173869,7920.203579,612.876398
169.972669,4811.338623,7846.182985,689.485948
169.972990,5329.482782,7550.100608,383.047749
169.973311,5847.626942,7550.100608,76.609550
169.973632,6217.729913,7550.100608,-153.219100
169.973953,6365.771101,7254.018232,0.000000
169.974274,6439.791695,7550.100608,0.000000
169.974595,6513.812290,7402.059420,-919.314598
169.974916,6143.709319,7402.059420,-842.705048
169.975237,6291.750507,7846.182985,-1302.362347
169.975558,5699.585753,7624.121203,-995.924147
169.975879,5551.544565,7550.100608,-995.924147
169.976200,4959.379811,7772.162391,-689.485948
169.976521,4293.194464,8068.244768,-459.657299
169.976842,3923.091493,8512.368333,-842.705048
169.977163,3552.988522,8734.430116,-919.314598
169.977484,3034.844362,8660.409521,-536.266849
169.977805,2886.803174,9030.512492,-76.609550
169.978126,3034.844362,8808.450710,0.000000
169.978447,2886.803174,8882.471304,612.876398
169.978768,2812.782580,8808.450710,0.000000
169.979089,3108.864956,8734.430116,383.047749
169.979410,3627.009116,8512.368333,459.657299
169.979731,4515.256246,8142.265362,536.266849
169.980052,5033.400406,7920.203579,536.266849
169.980373,5625.565159,7476.080014,842.705048
169.980694,5995.668130,7254.018232,459.657299
169.981015,6587.832884,6735.874072,229.828649
169.981335,7328.038826,6587.832884,0.000000
169.981656,7772.162391,6661.853478,-306.438199
169.981977,7846.182985,7031.956449,0.000000
169.982298,7994.224174,7179.997637,-842.705048
169.982619,7698.141797,7254.018232,-1072.533697
169.982940,7328.038826,7402.059420,-1378.971896
169.983261,7031.956449,7402.059420,-1378.971896
169.983582,6365.771101,7846.182985,-1225.752797
169.983903,5995.668130,7994.224174,-1225.752797
169.984224,5255.462188,8216.285956,-1149.143247
169.984545,4663.297435,8290.306550,-306.438199
169.984866,4071.132681,8364.327145,-536.266849
169.985187,3997.112087,8808.450710,-229.828649
169.985508,3552.988522,8808.450710,0.000000
169.985829,3404.947333,8882.471304,76.609550
169.986150,3627.009116,8956.491898,612.876398
169.986471,3330.926739,8660.409521,459.657299
169.986792,3478.967927,8882.471304,689.485948
169.987113,3404.947333,8956.491898,459.657299
169.987434,3775.050304,8660.409521,383.047749
169.987755,4219.173869,7994.224174,689.485948
169.988076,4441.235652,8512.368333,383.047749
169.988397,4589.276840,7994.224174,689.485948
169.988718,5329.482782,7920.203579,612.876398
169.989039,5625.565159,7772.162391,459.657299
169.989360,5921.647536,8068.244768,0.000000
169.989681,6069.688724,7698.141797,-306.438199
169.990002,6069.688724,7698.141797,-306.438199
169.990323,6217.729913,7772.162391,-383.047749
169.990643,6143.709319,7476.080014,-842.705048
169.990964,6143.709319,7476.080014,-842.705048
169.991285,5699.585753,7328.038826,-1149.143247
169.991606,5255.462188,7550.100608,-1225.752797
169.991927,4811.338623,7920.203579,-1072.533697
169.992248,4441.235652,8290.306550,-1149.143247
169.992569,4515.256246,8512.368333,-383.047749
169.992890,4071.132681,8586.388927,-459.657299
169.993211,3701.029710,8734.430116,-383.047749
169.993532,3330.926739,8660.409521,-383.047749
169.993853,3108.864956,8512.368333,0.000000
169.994174,3701.029710,8586.388927,229.828649
169.994495,3775.050304,8216.285956,76.609550
169.994816,3775.050304,8364.327145,383.047749
169.995137,4441.235652,7920.203579,612.876398
169.995458,4737.318029,7994.224174,459.657299
169.995779,5033.400406,7328.038826,919.314598
169.996100,5625.565159,7179.997637,842.705048
169.996421,6143.709319,7031.956449,612.876398
169.996742,6587.832884,6883.915261,612.876398
169.997063,6809.894666,7105.977043,153.219100
169.997384,7179.997637,7254.018232,-76.609550
169.997705,7179.997637,7698.141797,-766.095498
169.998026,6957.935855,7846.182985,-919.314598
169.998347,6735.874072,7550.100608,-995.924147
169.998668,6143.709319,7920.203579,-919.314598
169.998989,5921.647536,7920.203579,-995.924147
169.999310,5551.544565,7994.224174,-1225.752797
169.999631,4885.359217,8512.368333,-689.485948
169.999951,4589.276840,8512.368333,0.000000
170.000272,4515.256246,8512.368333,-612.876398
170.000593,3849.070898,8808.450710,0.000000
170.000914,3552.988522,8586.388927,0.000000
170.001235,3552.988522,8734.430116,0.000000
170.001556,3775.050304,8512.368333,0.000000
170.001877,3701.029710,8290.306550,229.828649
170.002198,3701.029710,8734.430116,459.657299
170.002519,4145.153275,8512.368333,153.219100
170.002840,4515.256246,7994.224174,229.828649
170.003161,4737.318029,7994.224174,306.438199
170.003482,5329.482782,7772.162391,383.047749
170.003803,5329.482782,7698.141797,383.047749
170.004124,5921.647536,7476.080014,383.047749
170.004445,5995.668130,7402.059420,0.000000
170.004766,6365.771101,7624.121203,0.000000
170.005087,6513.812290,7550.100608,-229.828649
170.005408,6513.812290,7920.203579,-842.705048
170.005729,6661.853478,7550.100608,-1072.533697
170.006050,5847.626942,7624.121203,-842.705048
170.006371,5699.585753,7624.121203,-1149.143247
170.006692,5477.523971,7698.141797,-1149.143247
170.007013,4663.297435,7994.224174,-766.095498
170.007334,4293.194464,8438.347739,-766.095498
170.007655,3627.009116,8660.409521,-766.095498
170.007976,3478.967927,9104.533087,-689.485948
170.008297,3108.864956,9474.636058,-383.047749
170.008618,2886.803174,9326.594869,0.000000
170.008939,2590.720797,9326.594869,0.000000
170.009259,2590.720797,8956.491898,229.828649
170.009580,2368.659014,9400.615463,459.657299
170.009901,3182.885551,9030.512492,459.657299
170.010222,3552.988522,9252.574275,459.657299
170.010543,3849.070898,8586.388927,689.485948
170.010864,4441.235652,7994.224174,842.705048
170.011185,5107.421000,7624.121203,689.485948
170.011506,5477.523971,7031.956449,612.876398
170.011827,6365.771101,6439.791695,459.657299
170.012148,6957.935855,6809.894666,229.828649
170.012469,7476.080014,6957.935855,0.000000
170.012790,7920.203579,6809.894666,-383.047749
170.013111,7624.121203,7476.080014,-995.924147
170.013432,7328.038826,7328.038826,-919.314598
170.013753,7179.997637,7179.997637,-612.876398
170.014074,7031.956449,7105.977043,-995.924147
170.014395,6365.771101,7254.018232,-1225.752797
170.014716,5921.647536,7402.059420,-1225.752797
170.015037,5181.441594,8142.265362,-1149.143247
170.015358,4737.318029,8142.265362,-995.924147
170.015679,4367.215058,8142.265362,-612.876398
170.016000,4145.153275,8290.306550,-306.438199
170.016321,3627.009116,8364.327145,0.000000
170.016642,3552.988522,8438.347739,0.000000
170.016963,3478.967927,8882.471304,306.438199
170.017284,3775.050304,8808.450710,153.219100
170.017605,3997.112087,8438.347739,612.876398
170.017926,4071.132681,8364.327145,919.314598
170.018247,4145.153275,8438.347739,842.705048
170.018567,4515.256246,8142.265362,459.657299
170.018888,4737.318029,8068.244768,536.266849
170.019209,5255.462188,7402.059420,612.876398
170.019530,5921.647536,7476.080014,383.047749
170.019851,5921.647536,7624.121203,229.828649
170.020172,6439.791695,7698.141797,0.000000
170.020493,6439.791695,7920.203579,-153.219100
170.020814,6735.874072,7846.182985,-689.485948
170.021135,6365.771101,7920.203579,-766.095498
170.021456,6365.771101,7698.141797,-689.485948
170.021777,5921.647536,7624.121203,-995.924147
170.022098,5403.503377,7994.224174,-919.314598
170.022419,4885.359217,7920.203579,-995.924147
170.022740,4293.194464,8142.265362,-1149.143247
170.023061,3627.009116,8808.450710,-536.266849
170.023382,3478.967927,8882.471304,-689.485948
170.023703,3108.864956,9104.533087,-459.657299
170.024024,3108.864956,8882.471304,0.000000
170.024345,3034.844362,9252.574275,0.000000
170.024666,3108.864956,9622.677246,-229.828649
170.024987,2812.782580,8808.450710,0.000000
170.025308,3404.947333,8512.368333,153.219100
170.025629,3552.988522,8438.347739,153.219100
170.025950,4071.132681,7846.182985,459.657299
170.026271,5033.400406,8068.244768,306.438199
170.026592,5255.462188,7550.100608,842.705048
170.026913,6069.688724,7328.038826,229.828649
170.027234,6439.791695,6957.935855,229.828649
170.027555,6957.935855,6587.832884,76.609550
170.027876,7402.059420,6661.853478,-306.438199
170.028197,7328.038826,6957.935855,0.000000
170.028518,7402.059420,7328.038826,-689.485948
170.028839,6809.894666,7772.162391,-842.705048
170.029160,6809.894666,7698.141797,-1608.800546
170.029480,6513.812290,7698.141797,-919.314598
170.029801,6143.709319,7846.182985,-1072.533697
170.030122,5477.523971,8364.327145,-1455.581446
170.030443,4885.359217,8660.409521,-995.924147
170.030764,4293.194464,8956.491898,-919.314598
170.031085,4219.173869,9030.512492,-383.047749
170.031406,3627.009116,9252.574275,-306.438199
170.031727,3256.906145,8956.491898,76.609550
170.032048,3182.885551,8808.450710,306.438199
170.032369,3256.906145,9178.553681,459.657299
170.032690,3256.906145,9104.533087,612.876398
170.033011,3701.029710,8734.430116,229.828649
170.033332,3997.112087,8660.409521,919.314598
170.033653,4293.194464,8068.244768,842.705048
170.033974,4663.297435,8364.327145,919.314598
170.034295,5255.462188,7624.121203,766.095498
170.034616,5921.647536,7550.100608,612.876398
170.034937,6143.709319,7328.038826,383.047749
170.035258,6365.771101,7476.080014,0.000000
170.035579,6957.935855,7402.059420,-383.047749
170.035900,7105.977043,7402.059420,-536.266849
170.036221,7031.956449,7476.080014,-766.095498
170.036542,6735.874072,7402.059420,-995.924147
170.036863,6513.812290,7328.038826,-1149.143247
170.037184,6365.771101,7624.121203,-1302.362347
170.037505,5477.523971,7698.141797,-1072.533697
170.037826,5181.441594,7772.162391,-995.924147
170.038147,4515.256246,7772.162391,-766.095498
170.038468,3849.070898,8290.306550,-536.266849
170.038789,3330.926739,8586.388927,-76.609550
170.039110,2738.761985,8956.491898,-306.438199
170.039431,2738.761985,9178.553681,-536.266849
170.039752,2516.700203,9030.512492,0.000000
170.040073,2516.700203,8808.450710,153.219100
170.040394,2664.741391,9104.533087,459.657299
170.040715,2886.803174,8734.430116,306.438199
170.041036,3182.885551,8660.409521,536.266849
170.041357,3923.091493,8290.306550,842.705048
170.041678,4885.359217,8142.265362,995.924147
170.041999,5255.462188,7624.121203,919.314598
170.042320,5921.647536,7402.059420,536.266849
170.042641,6291.750507,6883.915261,612.876398
170.042961,7031.956449,7105.977043,229.828649
170.043282,7105.977043,6957.935855,0.000000
170.043603,7698.141797,6957.935855,-536.266849
170.043924,7550.100608,7402.059420,-919.314598
170.044245,7179.997637,7105.977043,-1302.362347
170.044566,7031.956449,7772.162391,-1225.752797
170.044887,6735.874072,7772.162391,-1378.971896
170.045208,6069.688724,7846.182985,-1378.971896
170.045529,5181.441594,7994.224174,-1608.800546
170.045850,4737.318029,8438.347739,-1378.971896
170.046171,4293.194464,8734.430116,-842.705048
170.046492,4589.276840,8956.491898,0.000000
170.046813,3775.050304,8956.491898,-383.047749
170.047134,3478.967927,8956.491898,0.000000
170.047455,3404.947333,9178.553681,0.000000
170.047776,3256.906145,8956.491898,842.705048
170.048097,3627.009116,9104.533087,536.266849
170.048418,3923.091493,9030.512492,919.314598
170.048739,3775.050304,8882.471304,766.095498
170.049060,4219.173869,8142.265362,612.876398
170.049381,4441.235652,8290.306550,919.314598
170.049702,4811.338623,8068.244768,842.705048
170.050023,5329.482782,7624.121203,842.705048
170.050344,5921.647536,7476.080014,459.657299
170.050665,6143.709319,7624.121203,306.438199
170.050986,6217.729913,7624.121203,0.000000
170.051307,6143.709319,7698.141797,0.000000
170.051628,6513.812290,8068.244768,-459.657299
170.051949,6513.812290,7550.100608,-612.876398
170.052270,6291.750507,7698.141797,-919.314598
170.052591,5847.626942,7698.141797,-919.314598
170.052912,5403.503377,7624.121203,-1225.752797
170.053233,4885.359217,7772.162391,-766.095498
170.053554,4367.215058,7624.121203,-1072.533697
170.053875,3701.029710,8364.327145,-689.485948
170.054196,3701.029710,8438.347739,-459.657299
170.054517,3256.906145,8808.450710,-689.485948
170.054838,3182.885551,8956.491898,0.000000
170.055159,3330.926739,8512.368333,0.000000
170.055480,3182.885551,8438.347739,1072.533697
170.055801,3034.844362,8364.327145,76.609550
170.056122,3552.988522,8364.327145,76.609550
170.056443,3997.112087,8364.327145,0.000000
170.056763,4367.215058,7994.224174,229.828649
170.057084,5255.462188,7476.080014,383.047749
170.057405,5551.544565,7105.977043,612.876398
170.057726,6143.709319,6883.915261,383.047749
170.058047,6365.771101,6661.853478,306.438199
170.058368,7105.977043,6735.874072,76.609550
170.058689,7328.038826,7031.956449,-766.095498
170.059010,7328.038826,7254.018232,-612.876398
170.059331,7550.100608,7402.059420,-689.485948
170.059652,7105.977043,7476.080014,-1225.752797
170.059973,6809.894666,7550.100608,-1302.362347
170.060294,6365.771101,7624.121203,-1149.143247
170.060615,5699.585753,8068.244768,-995.924147
170.060936,5033.400406,8512.368333,-919.314598
170.061257,4589.276840,9030.512492,-919.314598
170.061578,4071.132681,8956.491898,-536.266849
170.061899,3849.070898,9178.553681,-383.047749
170.062220,3404.947333,9400.615463,-459.657299
170.062541,2886.803174,9252.574275,229.828649
170.062862,3182.885551,9178.553681,459.657299
170.063183,3108.864956,8882.471304,383.047749
170.063504,3256.906145,8882.471304,689.485948
170.063825,3923.091493,8734.430116,689.485948
170.064146,4145.153275,8438.347739,536.266849
170.064467,4293.194464,8290.306550,689.485948
170.064788,4811.338623,8216.285956,689.485948
170.065109,5403.503377,7698.141797,766.095498
170.065430,5625.565159,7624.121203,306.438199
170.065751,5847.626942,7254.018232,76.609550
170.066072,6587.832884,7179.997637,0.000000
170.066393,6883.915261,7920.203579,0.000000
170.066714,6809.894666,7624.121203,-383.047749
170.067035,6883.915261,7698.141797,-919.314598
170.067356,6513.812290,7550.100608,-995.924147
170.067677,5995.668130,7550.100608,-1072.533697
170.067998,5625.565159,7994.224174,-766.095498
170.068319,4959.379811,7772.162391,-919.314598
170.068640,4441.235652,7846.182985,-842.705048
170.068961,4071.132681,8068.244768,-842.705048
170.069282,3701.029710,8290.306550,-766.095498
170.069603,2960.823768,8438.347739,-536.266849
170.069924,2738.761985,8956.491898,-229.828649
170.070245,2516.700203,9030.512492,0.000000
170.070565,2738.761985,8734.430116,383.047749
170.070886,2590.720797,8882.471304,306.438199
170.071207,3108.864956,8512.368333,76.609550
170.071528,3404.947333,8660.409521,766.095498
170.071849,3923.091493,8512.368333,383.047749
170.072170,4145.153275,8142.265362,612.876398
170.072491,5255.462188,7550.100608,229.828649
170.072812,6143.709319,7105.977043,459.657299
170.073133,6291.750507,6513.812290,306.438199
170.073454,6809.894666,6513.812290,229.828649
170.073775,7402.059420,6365.771101,0.000000
170.074096,7846.182985,6957.935855,-383.047749
170.074417,7994.224174,7105.977043,-459.657299
170.074738,7994.224174,7105.977043,-842.705048
170.075059,7846.182985,7105.977043,-1225.752797
170.075380,7179.997637,7402.059420,-1225.752797
170.075701,6883.915261,7105.977043,-1149.143247
170.076022,6069.688724,7550.100608,-1149.143247
170.076343,5477.523971,7920.203579,-1149.143247
170.076664,4959.379811,8512.368333,-1225.752797
170.076985,4219.173869,9030.512492,-689.485948
170.077306,3997.112087,9252.574275,-306.438199
170.077627,3997.112087,9178.553681,229.828649
170.077948,3775.050304,9104.533087,0.000000
170.078269,3108.864956,9252.574275,229.828649
170.078590,2960.823768,8956.491898,153.219100
170.078911,2886.803174,8882.471304,919.314598
170.079232,3478.967927,8882.471304,1225.752797
170.079553,3552.988522,8586.388927,995.924147
170.079874,3849.070898,8660.409521,612.876398
170.080195,4293.194464,8438.347739,766.095498
170.080516,5033.400406,8216.285956,536.266849
170.080837,5181.441594,7772.162391,383.047749
170.081158,5403.503377,7476.080014,842.705048
170.081479,5847.626942,7698.141797,229.828649
170.081800,6069.688724,7846.182985,0.000000
170.082121,6439.791695,8216.285956,-612.876398
170.082442,6439.791695,7994.224174,-689.485948
170.082763,6365.771101,7772.162391,-919.314598
170.083084,5995.668130,7624.121203,-766.095498
170.083405,5625.565159,7920.203579,-842.705048
170.083726,4959.379811,7550.100608,-995.924147
170.084047,4293.194464,7846.182985,-1378.971896
170.084367,3923.091493,7846.182985,-612.876398
170.084688,3627.009116,8364.327145,-689.485948
170.085009,3478.967927,8734.430116,-306.438199
170.085330,3256.906145,9326.594869,-306.438199
170.085651,2886.803174,8808.450710,-153.219100
170.085972,3034.844362,8586.388927,0.000000
170.086293,2960.823768,8660.409521,153.219100
170.086614,2886.803174,8882.471304,383.047749
170.086935,3701.029710,8734.430116,229.828649
170.087256,3701.029710,8512.368333,459.657299
170.087577,4293.194464,7994.224174,153.219100
170.087898,4811.338623,7698.141797,919.314598
170.088219,5551.544565,6809.894666,1532.190996
170.088540,6291.750507,6957.935855,766.095498
170.088861,6883.915261,6809.894666,536.266849
170.089182,7179.997637,6439.791695,0.000000
170.089503,7550.100608,6587.832884,0.000000
170.089824,7846.182985,7105.977043,0.000000
170.090145,7698.141797,7105.977043,-612.876398
170.090466,7772.162391,7328.038826,-1302.362347
170.090787,7105.977043,7105.977043,-1225.752797
170.091108,6809.894666,7402.059420,-1378.971896
170.091429,6513.812290,7772.162391,-1225.752797
170.091750,5773.606348,7846.182985,-919.314598
170.092071,5107.421000,8216.285956,-919.314598
170.092392,4441.235652,8808.450710,-766.095498
170.092713,4367.215058,9326.594869,0.000000
170.093034,3775.050304,8882.471304,-383.047749
170.093355,3775.050304,8586.388927,0.000000
170.093676,3627.009116,8882.471304,0.000000
170.093997,3478.967927,8586.388927,306.438199
170.094318,3404.947333,9178.553681,612.876398
