#time,accel_x,accel_y,accel_z
595.466838,5107.421000,7994.224174,0.000000
595.467158,5033.400406,7920.203579,0.000000
595.467479,4959.379811,8142.265362,-383.047749
595.467799,4959.379811,8216.285956,0.000000
595.468120,5107.421000,7920.203579,0.000000
595.468440,5181.441594,7846.182985,-229.828649
595.468760,5181.441594,8216.285956,-153.219100
595.469081,4959.379811,8142.265362,-229.828649
595.469401,5033.400406,8142.265362,-459.657299
595.469722,4885.359217,7994.224174,0.000000
595.470042,5033.400406,8142.265362,-153.219100
595.470363,4885.359217,7994.224174,0.000000
595.470683,4959.379811,7846.182985,-306.438199
595.471004,5033.400406,7772.162391,-536.266849
595.471324,5181.441594,7994.224174,76.609550
595.471645,4959.379811,8216.285956,-306.438199
595.471965,5033.400406,7772.162391,0.000000
595.472286,5033.400406,7698.141797,-153.219100
595.472606,5181.441594,8216.285956,536.266849
595.472927,4959.379811,8290.306550,-153.219100
595.473247,4885.359217,7846.182985,0.000000
595.473568,4811.338623,7994.224174,-153.219100
595.473888,4885.359217,7846.182985,-153.219100
595.474208,4885.359217,7550.100608,0.000000
595.474529,4959.379811,7920.203579,0.000000
595.474849,4959.379811,8068.244768,-612.876398
595.475170,4885.359217,8216.285956,0.000000
595.475490,5033.400406,8068.244768,-306.438199
595.475811,5477.523971,8068.244768,306.438199
595.476131,4811.338623,7994.224174,-76.609550
595.476452,4811.338623,8142.265362,-153.219100
595.476772,5033.400406,8216.285956,0.000000
595.477093,4959.379811,7772.162391,-76.609550
595.477413,4441.235652,7772.162391,76.609550
595.477734,4293.194464,7476.080014,-383.047749
595.478054,4219.173869,8068.244768,-76.609550
595.478375,4293.194464,9030.512492,-306.438199
595.478695,4663.297435,9918.759623,-842.705048
595.479016,4959.379811,10214.842000,-1225.752797
595.479336,4515.256246,9992.780217,-919.314598
595.479656,3997.112087,9400.615463,-306.438199
595.479977,2960.823768,9178.553681,842.705048
595.480297,2812.782580,9474.636058,689.485948
595.480618,2516.700203,9622.677246,536.266849
595.480938,2442.679609,9104.533087,-229.828649
595.481259,2516.700203,8364.327145,-383.047749
595.481579,3108.864956,9104.533087,-306.438199
595.481900,3034.844362,9548.656652,0.000000
595.482220,3108.864956,9770.718434,306.438199
595.482541,2294.638420,9104.533087,229.828649
595.482861,2442.679609,9104.533087,76.609550
595.483182,2072.576638,10066.800811,-229.828649
595.483502,1776.494261,11177.109724,-1302.362347
595.483823,1628.453072,11843.295072,-1225.752797
595.484143,1702.473667,11843.295072,-995.924147
595.484464,592.164754,11177.109724,-1149.143247
595.484784,74.020594,11029.068536,-1532.190996
595.485104,-148.041188,11621.233289,-1225.752797
595.485425,-1036.288319,12509.480420,0.000000
595.485745,-1184.329507,12509.480420,842.705048
595.486066,-1036.288319,11917.315666,995.924147
595.486386,-740.205942,11547.212695,1608.800546
595.486707,-1554.432478,11547.212695,1685.410096
595.487027,-2442.679609,11621.233289,1072.533697
595.487348,-2368.659014,10881.027347,-306.438199
595.487668,-1554.432478,9992.780217,-766.095498
595.487989,-814.226536,9622.677246,0.000000
595.488309,-222.061783,10214.842000,919.314598
595.488630,148.041188,11251.130318,689.485948
595.488950,370.102971,11547.212695,-306.438199
595.489271,1036.288319,11621.233289,-1608.800546
595.489591,1332.370696,10807.006753,-1225.752797
595.489912,2146.597232,9696.697840,0.000000
595.490232,2960.823768,10288.862594,536.266849
595.490552,2294.638420,9844.739029,-459.657299
595.490873,1702.473667,9474.636058,-2221.676944
595.491193,1406.391290,9400.615463,-2374.896044
595.491514,1702.473667,9548.656652,-1302.362347
595.491834,2368.659014,9844.739029,-612.876398
595.492155,1850.514855,10510.924376,76.609550
595.492475,1258.350101,10732.986159,-383.047749
595.492796,814.226536,11251.130318,-153.219100
595.493116,592.164754,10436.903782,459.657299
595.493437,-74.020594,9992.780217,229.828649
595.493757,0.000000,9622.677246,459.657299
595.494078,74.020594,10140.821405,459.657299
595.494398,-444.123565,10955.047942,383.047749
595.494719,-592.164754,11473.192101,536.266849
595.495039,0.000000,11473.192101,766.095498
595.495360,740.205942,11547.212695,995.924147
595.495680,518.144159,10881.027347,153.219100
595.496000,888.247130,10510.924376,-383.047749
595.496321,1258.350101,10510.924376,-1072.533697
595.496641,1702.473667,10140.821405,-766.095498
595.496962,1776.494261,9622.677246,153.219100
595.497282,1702.473667,8956.491898,76.609550
595.497603,2146.597232,9400.615463,0.000000
595.497923,2220.617826,10362.883188,-153.219100
595.498244,2146.597232,10955.047942,-229.828649
595.498564,2516.700203,10436.903782,-612.876398
595.498885,2886.803174,9992.780217,-766.095498
595.499205,3034.844362,9622.677246,-842.705048
595.499526,2220.617826,9918.759623,-1072.533697
595.499846,2220.617826,11103.089130,-612.876398
595.500167,1776.494261,11843.295072,-1302.362347
595.500487,1184.329507,11843.295072,-842.705048
595.500808,1332.370696,11325.150913,-536.266849
595.501128,222.061783,10288.862594,-1225.752797
595.501448,-296.082377,9770.718434,-1225.752797
595.501769,-1554.432478,9326.594869,-459.657299
595.502089,-1554.432478,9104.533087,153.219100
595.502410,-814.226536,9992.780217,1608.800546
595.502730,370.102971,11325.150913,2451.505594
595.503051,814.226536,12435.459826,1608.800546
595.503371,222.061783,12805.562797,536.266849
595.503692,592.164754,11917.315666,153.219100
595.504012,1332.370696,10584.944971,0.000000
595.504333,1110.308913,9030.512492,-306.438199
595.504653,1184.329507,8734.430116,-612.876398
595.504974,592.164754,9548.656652,-1685.410096
595.505294,222.061783,10214.842000,-2451.505594
595.505615,0.000000,10955.047942,-2221.676944
595.505935,296.082377,11325.150913,-1455.581446
595.506256,1036.288319,12361.439231,0.000000
595.506576,1184.329507,13101.645173,612.876398
595.506896,370.102971,13101.645173,76.609550
595.507217,-1036.288319,12287.418637,-689.485948
595.507537,-296.082377,11695.253884,-459.657299
595.507858,222.061783,10955.047942,459.657299
595.508178,0.000000,8882.471304,76.609550
595.508499,1258.350101,8512.368333,0.000000
595.508819,962.267725,9770.718434,76.609550
595.509140,0.000000,11251.130318,383.047749
595.509460,148.041188,11473.192101,919.314598
595.509781,296.082377,10066.800811,689.485948
595.510101,814.226536,8586.388927,229.828649
595.510422,1258.350101,8142.265362,383.047749
595.510742,1184.329507,9696.697840,-459.657299
595.511063,814.226536,11991.336260,-1302.362347
595.511383,74.020594,13249.686362,-1991.848295
595.511704,666.185348,13101.645173,-1991.848295
595.512024,1480.411884,12731.542202,-1149.143247
595.512344,1258.350101,13249.686362,-383.047749
595.512665,74.020594,13397.727550,-229.828649
595.512985,0.000000,12731.542202,459.657299
595.513306,-444.123565,11473.192101,1302.362347
595.513626,-814.226536,8660.409521,1608.800546
595.513947,-666.185348,7179.997637,1378.971896
595.514267,-1924.535449,7550.100608,1608.800546
595.514588,-2220.617826,9104.533087,766.095498
595.514908,-296.082377,9474.636058,0.000000
595.515229,1036.288319,11399.171507,-153.219100
595.515549,1924.535449,12583.501014,459.657299
595.515870,2220.617826,13175.665768,-153.219100
595.516190,1776.494261,12361.439231,-1302.362347
595.516511,592.164754,9696.697840,-2604.724693
595.516831,1406.391290,7920.203579,-1991.848295
595.517152,3108.864956,9178.553681,306.438199
595.517472,2664.741391,11769.274478,459.657299
595.517792,592.164754,12731.542202,-766.095498
595.518113,814.226536,12065.356855,-2604.724693
595.518433,1184.329507,10584.944971,-2834.553343
595.518754,-296.082377,8438.347739,-1225.752797
595.519074,-666.185348,8068.244768,-306.438199
595.519395,296.082377,9548.656652,-383.047749
595.519715,-296.082377,12731.542202,689.485948
595.520036,-1184.329507,14434.015869,1225.752797
595.520356,-1406.391290,14211.954086,689.485948
595.520677,-1924.535449,13323.706956,0.000000
595.520997,-1332.370696,12435.459826,919.314598
595.521318,0.000000,10658.965565,995.924147
595.521638,-740.205942,9104.533087,0.000000
595.521959,296.082377,8882.471304,-229.828649
595.522279,1406.391290,10066.800811,842.705048
595.522600,74.020594,10881.027347,76.609550
595.522920,814.226536,9770.718434,0.000000
595.523240,3552.988522,8660.409521,1072.533697
595.523561,3849.070898,9770.718434,1302.362347
595.523881,3997.112087,10510.924376,76.609550
595.524202,4515.256246,10510.924376,-2221.676944
595.524522,3775.050304,11029.068536,-3907.087040
595.524843,2960.823768,10584.944971,-3447.429741
595.525163,2368.659014,8660.409521,-1991.848295
595.525484,2664.741391,7994.224174,-995.924147
595.525804,3701.029710,11769.274478,919.314598
595.526125,1258.350101,13989.892304,1149.143247
595.526445,592.164754,12731.542202,-306.438199
595.526766,0.000000,10436.903782,-919.314598
595.527086,-2886.803174,8882.471304,-766.095498
595.527407,-3034.844362,8438.347739,612.876398
595.527727,-888.247130,10881.027347,1455.581446
595.528047,-740.205942,12583.501014,-383.047749
595.528368,-1480.411884,14285.974681,-2221.676944
595.528688,-518.144159,15248.242405,-1072.533697
595.529009,-2442.679609,14285.974681,1072.533697
595.529329,-3923.091493,11991.336260,2757.943793
595.529650,-1702.473667,10510.924376,4443.353888
595.529970,370.102971,10436.903782,2145.067394
595.530290,-1628.453072,9622.677246,-536.266849
595.530611,-666.185348,10510.924376,-536.266849
595.530931,1258.350101,10288.862594,-306.438199
595.531252,1850.514855,9326.594869,1455.581446
595.531572,2442.679609,7698.141797,2145.067394
595.531893,4367.215058,7624.121203,0.000000
595.532213,3849.070898,10214.842000,-766.095498
595.532534,2516.700203,11473.192101,-1685.410096
595.532854,3997.112087,10732.986159,-2374.896044
595.533174,5847.626942,9770.718434,-2221.676944
595.533495,4441.235652,8882.471304,-2145.067394
595.533815,2146.597232,7994.224174,-1685.410096
595.534136,1258.350101,9252.574275,-1455.581446
595.534456,518.144159,11843.295072,-2221.676944
595.534777,74.020594,12583.501014,-2221.676944
595.535097,592.164754,10807.006753,-1685.410096
595.535417,814.226536,9474.636058,459.657299
595.535738,-962.267725,10362.883188,2604.724693
595.536058,-2664.741391,11843.295072,3064.381992
595.536379,-3108.864956,12953.603985,1378.971896
595.536699,-3627.009116,12213.398043,-229.828649
595.537020,-2368.659014,10881.027347,76.609550
595.537340,-296.082377,10955.047942,1149.143247
595.537661,-592.164754,11695.253884,1762.019645
595.537981,-1702.473667,13397.727550,1608.800546
595.538301,-2072.576638,14285.974681,612.876398
595.538622,-1184.329507,11917.315666,306.438199
595.538942,1554.432478,10732.986159,1149.143247
595.539263,2220.617826,9918.759623,1915.238745
595.539583,2812.782580,9252.574275,612.876398
595.539904,1628.453072,7328.038826,-306.438199
595.540224,1406.391290,6809.894666,-1225.752797
595.540544,4145.153275,8956.491898,-306.438199
595.540865,5477.523971,10584.944971,153.219100
595.541185,4219.173869,10584.944971,-1915.238745
595.541506,4663.297435,9178.553681,-3600.648841
595.541826,3478.967927,8216.285956,-3600.648841
595.542147,3552.988522,9178.553681,-2757.943793
595.542467,3627.009116,10288.862594,-995.924147
595.542788,1628.453072,12213.398043,-1838.629195
595.543108,814.226536,13323.706956,-2604.724693
595.543428,962.267725,13101.645173,-2451.505594
595.543749,-1110.308913,11473.192101,-1685.410096
595.544069,-1628.453072,11473.192101,383.047749
595.544390,-2220.617826,12583.501014,2987.772442
595.544710,-3997.112087,12509.480420,2145.067394
595.545031,-3997.112087,11325.150913,1302.362347
595.545351,-3108.864956,12731.542202,1915.238745
595.545671,-3849.070898,14656.077652,3753.867940
595.545992,-4145.153275,14508.036463,4136.915689
595.546312,-2516.700203,11621.233289,2298.286494
595.546633,-3330.926739,8882.471304,-306.438199
595.546953,-2368.659014,8364.327145,1455.581446
595.547274,-888.247130,10436.903782,2221.676944
595.547594,-1036.288319,11177.109724,459.657299
595.547915,1924.535449,11917.315666,-766.095498
595.548235,5773.606348,11473.192101,-153.219100
595.548555,5033.400406,9696.697840,-459.657299
595.548876,5403.503377,9326.594869,-919.314598
595.549196,4737.318029,8216.285956,-2451.505594
595.549517,4885.359217,7105.977043,-3140.991542
595.549837,7550.100608,7105.977043,-2068.457845
595.550158,7846.182985,6883.915261,-1762.019645
595.550478,5477.523971,9104.533087,-2987.772442
595.550798,4293.194464,11917.315666,-2374.896044
595.551119,2590.720797,12583.501014,-2374.896044
595.551439,1850.514855,8438.347739,-1991.848295
595.551760,2442.679609,5847.626942,-842.705048
595.552080,1110.308913,7254.018232,-459.657299
595.552401,-2220.617826,11029.068536,306.438199
595.552721,-2590.720797,13767.830521,2451.505594
595.553042,-3256.906145,12435.459826,2451.505594
595.553362,-2220.617826,11251.130318,2681.334243
595.553682,-1332.370696,11917.315666,4136.915689
595.554003,-1998.556043,13545.768739,2834.553343
595.554323,-2664.741391,12583.501014,0.000000
595.554644,-3256.906145,9696.697840,-612.876398
595.554964,-1850.514855,7550.100608,612.876398
595.555285,518.144159,7624.121203,2528.115143
595.555605,-518.144159,9622.677246,1762.019645
595.555925,962.267725,12509.480420,-612.876398
595.556246,3256.906145,11843.295072,-1225.752797
595.556566,3775.050304,9030.512492,-2374.896044
595.556887,4811.338623,7179.997637,-1225.752797
595.557207,5847.626942,7402.059420,-919.314598
595.557528,4737.318029,8216.285956,-2068.457845
595.557848,5403.503377,9326.594869,-3370.820191
595.558169,5181.441594,8068.244768,-4673.182538
595.558489,4589.276840,8512.368333,-5822.325785
595.558809,5921.647536,12953.603985,-4213.525239
595.559130,3478.967927,15174.221811,-1685.410096
595.559450,0.000000,12731.542202,-1455.581446
595.559771,148.041188,9252.574275,-383.047749
595.560091,-2738.761985,9548.656652,-766.095498
595.560412,-5403.503377,11177.109724,383.047749
595.560732,-4145.153275,12435.459826,689.485948
595.561052,-3627.009116,13249.686362,-383.047749
595.561373,-3478.967927,12953.603985,-306.438199
595.561693,-1184.329507,14359.995275,2374.896044
595.562014,-3552.988522,13027.624579,2757.943793
595.562334,-6809.894666,11251.130318,2068.457845
595.562655,-2368.659014,11103.089130,3064.381992
595.562975,0.000000,11325.150913,1915.238745
595.563296,-1406.391290,11991.336260,0.000000
595.563616,2368.659014,14211.954086,229.828649
595.563936,4441.235652,14359.995275,-229.828649
595.564257,2146.597232,12657.521608,-1378.971896
595.564577,3404.947333,7772.162391,-2068.457845
595.564898,3775.050304,6439.791695,-2451.505594
595.565218,4367.215058,8142.265362,76.609550
595.565539,2960.823768,10955.047942,689.485948
595.565859,4589.276840,9696.697840,-2374.896044
595.566179,5551.544565,7994.224174,-2834.553343
595.566500,5995.668130,7402.059420,536.266849
595.566820,2516.700203,8586.388927,1532.190996
595.567141,1110.308913,9622.677246,-1225.752797
595.567461,2072.576638,8882.471304,-3830.477490
595.567782,3182.885551,9918.759623,-3064.381992
595.568102,2886.803174,9474.636058,-2068.457845
595.568423,2368.659014,11547.212695,-766.095498
595.568743,444.123565,11843.295072,-689.485948
595.569063,-888.247130,11473.192101,76.609550
595.569384,1036.288319,11399.171507,2681.334243
595.569704,-592.164754,8882.471304,1532.190996
595.570025,-3256.906145,9474.636058,-383.047749
595.570345,-2368.659014,10955.047942,-306.438199
595.570666,-3775.050304,11547.212695,919.314598
595.570986,-3923.091493,10955.047942,3294.210641
595.571306,148.041188,8068.244768,3600.648841
595.571627,-1850.514855,10510.924376,1455.581446
595.571947,-1406.391290,13693.809927,0.000000
595.572268,-1184.329507,16802.674883,0.000000
595.572588,-370.102971,13841.851115,0.000000
595.572909,3404.947333,10955.047942,383.047749
595.573229,5995.668130,9252.574275,1532.190996
595.573550,1776.494261,8512.368333,-919.314598
595.573870,-370.102971,8512.368333,-1225.752797
595.574190,1036.288319,8660.409521,-1149.143247
595.574511,3997.112087,7772.162391,-306.438199
595.574831,4663.297435,6809.894666,1072.533697
595.575152,4959.379811,6439.791695,766.095498
595.575472,4885.359217,8290.306550,0.000000
595.575793,3701.029710,8882.471304,-383.047749
595.576113,3478.967927,8216.285956,-2528.115143
595.576433,6661.853478,6809.894666,-2987.772442
595.576754,7550.100608,6069.688724,-2068.457845
595.577074,6439.791695,8734.430116,0.000000
595.577395,4219.173869,9770.718434,-1302.362347
595.577715,2812.782580,10732.986159,-4213.525239
595.578036,2812.782580,11325.150913,-4519.963438
595.578356,3182.885551,11103.089130,-1532.190996
595.578677,3256.906145,11769.274478,1455.581446
595.578997,1702.473667,12879.583391,1532.190996
595.579317,-1554.432478,13323.706956,1685.410096
595.579638,-1258.350101,11399.171507,1685.410096
595.579958,-1702.473667,9030.512492,2451.505594
595.580279,-2146.597232,8512.368333,3294.210641
595.580599,592.164754,10881.027347,2298.286494
595.580920,-740.205942,11621.233289,1225.752797
595.581240,296.082377,11251.130318,919.314598
595.581560,5255.462188,10140.821405,3064.381992
595.581881,2960.823768,6735.874072,2451.505594
595.582201,3997.112087,5329.482782,689.485948
595.582522,6513.812290,6883.915261,0.000000
595.582842,4589.276840,6143.709319,-1378.971896
595.583163,8734.430116,4737.318029,-1762.019645
595.583483,13841.851115,6069.688724,-1532.190996
595.583804,13249.686362,6957.935855,-3677.258390
595.584124,11177.109724,7254.018232,-4136.915689
595.584444,11177.109724,5625.565159,-3753.867940
595.584765,11103.089130,5551.544565,-3677.258390
595.585085,11473.192101,4885.359217,-1532.190996
595.585406,11547.212695,7328.038826,-1915.238745
595.585726,9178.553681,9622.677246,-3217.601092
595.586047,5033.400406,10881.027347,-2757.943793
595.586367,4737.318029,10066.800811,-1915.238745
595.586687,1480.411884,5181.441594,-1149.143247
595.587008,888.247130,2664.741391,459.657299
595.587328,2220.617826,7476.080014,3983.696590
595.587649,148.041188,9992.780217,2911.162892
595.587969,1554.432478,10066.800811,2374.896044
595.588290,4145.153275,9844.739029,1991.848295
595.588610,2220.617826,7772.162391,2451.505594
595.588931,2664.741391,7402.059420,4519.963438
595.589251,3627.009116,6513.812290,2298.286494
595.589571,5773.606348,7550.100608,-1072.533697
595.589892,7624.121203,7402.059420,-1072.533697
595.590212,5773.606348,7328.038826,-1532.190996
595.590533,8438.347739,10807.006753,-1225.752797
595.590853,5329.482782,10732.986159,-229.828649
595.591174,3849.070898,8512.368333,-1455.581446
595.591494,9696.697840,5847.626942,-612.876398
595.591814,8142.265362,5181.441594,766.095498
595.592135,4515.256246,5847.626942,-612.876398
595.592455,5921.647536,8216.285956,-1302.362347
595.592776,5921.647536,9992.780217,-1762.019645
595.593096,3034.844362,8808.450710,-3677.258390
595.593417,7179.997637,9178.553681,-1991.848295
595.593737,8364.327145,7698.141797,-1685.410096
595.594058,1776.494261,7179.997637,-2145.067394
595.594378,1924.535449,8142.265362,1455.581446
595.594698,2590.720797,9474.636058,1685.410096
595.595019,2294.638420,12509.480420,842.705048
595.595339,1036.288319,11695.253884,919.314598
595.595660,666.185348,11325.150913,-1762.019645
595.595980,814.226536,10140.821405,-1532.190996
595.596301,1036.288319,7994.224174,1685.410096
595.596621,1406.391290,4959.379811,3294.210641
595.596941,2368.659014,6143.709319,4443.353888
595.597262,4515.256246,10362.883188,5056.230287
595.597582,2516.700203,12435.459826,2911.162892
595.597903,4293.194464,9622.677246,-995.924147
595.598223,6661.853478,8142.265362,-1532.190996
595.598544,7031.956449,6809.894666,-919.314598
595.598864,6217.729913,4811.338623,306.438199
595.599185,7105.977043,5921.647536,459.657299
595.599505,7179.997637,6883.915261,-536.266849
595.599825,5329.482782,6365.771101,-1608.800546
595.600146,4441.235652,3701.029710,-2528.115143
595.600466,7402.059420,6587.832884,-2528.115143
595.600787,8068.244768,8364.327145,-919.314598
595.601107,7031.956449,6439.791695,153.219100
595.601428,10362.883188,5921.647536,-2451.505594
595.601748,7698.141797,5329.482782,-3064.381992
595.602068,4589.276840,7994.224174,-1608.800546
595.602389,7328.038826,10881.027347,-229.828649
595.602709,6661.853478,10807.006753,-995.924147
595.603030,7031.956449,7772.162391,-1072.533697
595.603350,8364.327145,6883.915261,-689.485948
595.603671,6143.709319,7179.997637,-1072.533697
595.603991,592.164754,8808.450710,-1532.190996
595.604312,296.082377,8586.388927,842.705048
595.604632,2664.741391,8512.368333,2451.505594
595.604952,4737.318029,8216.285956,4673.182538
595.605273,2886.803174,7624.121203,5362.668486
595.605593,2294.638420,11473.192101,1072.533697
595.605914,1184.329507,11917.315666,-1149.143247
595.606234,1036.288319,9844.739029,-842.705048
595.606555,5329.482782,7476.080014,1762.019645
595.606875,6439.791695,6291.750507,2911.162892
595.607195,3997.112087,9696.697840,766.095498
595.607516,4515.256246,11991.336260,-1838.629195
595.607836,4441.235652,11399.171507,-3217.601092
595.608157,6587.832884,8586.388927,-3217.601092
595.608477,8586.388927,6513.812290,-1225.752797
595.608798,5995.668130,6513.812290,0.000000
595.609118,6291.750507,9030.512492,766.095498
595.609439,4811.338623,8438.347739,919.314598
595.609759,4145.153275,4441.235652,-2145.067394
595.610079,7550.100608,4589.276840,-2451.505594
595.610400,7846.182985,8808.450710,-995.924147
595.610720,6883.915261,10732.986159,-229.828649
595.611041,6143.709319,9030.512492,-919.314598
595.611361,7031.956449,6661.853478,-2221.676944
595.611682,5255.462188,4885.359217,-1302.362347
595.612002,4885.359217,5255.462188,1455.581446
595.612322,4515.256246,9104.533087,383.047749
595.612643,3552.988522,9844.739029,-1838.629195
595.612963,4885.359217,9030.512492,-1455.581446
595.613284,6143.709319,8216.285956,-306.438199
595.613604,4441.235652,7846.182985,766.095498
595.613925,2442.679609,7698.141797,2451.505594
595.614245,2294.638420,8364.327145,2604.724693
595.614566,3775.050304,9918.759623,1302.362347
595.614886,3775.050304,8364.327145,1685.410096
595.615206,3478.967927,8660.409521,689.485948
595.615527,4959.379811,10140.821405,766.095498
595.615847,4737.318029,10288.862594,919.314598
595.616168,3404.947333,6439.791695,459.657299
595.616488,5847.626942,4367.215058,0.000000
595.616809,4737.318029,4959.379811,919.314598
595.617129,4145.153275,7328.038826,612.876398
595.617449,7031.956449,8586.388927,-689.485948
595.617770,8438.347739,8586.388927,-2604.724693
595.618090,8586.388927,8290.306550,-1915.238745
595.618411,8438.347739,8364.327145,-153.219100
595.618731,7846.182985,7328.038826,-76.609550
595.619052,7402.059420,6513.812290,612.876398
595.619372,7550.100608,5847.626942,0.000000
595.619693,6513.812290,5255.462188,-2145.067394
595.620013,6439.791695,7624.121203,-2221.676944
595.620333,6143.709319,10140.821405,-766.095498
595.620654,4959.379811,10584.944971,689.485948
595.620974,4515.256246,7624.121203,689.485948
595.621295,5403.503377,5255.462188,536.266849
595.621615,3478.967927,5995.668130,459.657299
595.621936,2516.700203,6735.874072,689.485948
595.622256,2664.741391,8734.430116,1072.533697
595.622576,4293.194464,9770.718434,919.314598
595.622897,6143.709319,9844.739029,842.705048
595.623217,7031.956449,9326.594869,153.219100
595.623538,2812.782580,7624.121203,-1915.238745
595.623858,3256.906145,8364.327145,-612.876398
595.624179,3997.112087,7920.203579,1608.800546
595.624499,5107.421000,6809.894666,76.609550
595.624820,4885.359217,6439.791695,-229.828649
595.625140,4663.297435,8364.327145,-1455.581446
595.625460,3923.091493,11177.109724,-1762.019645
595.625781,4441.235652,11473.192101,306.438199
595.626101,5033.400406,9326.594869,-153.219100
595.626422,5625.565159,4959.379811,-995.924147
595.626743,5921.647536,6661.853478,-383.047749
595.627063,5329.482782,8808.450710,0.000000
595.627384,3330.926739,9548.656652,-1378.971896
595.627704,5699.585753,9400.615463,-2145.067394
595.628025,6957.935855,9400.615463,-2757.943793
595.628345,4885.359217,8586.388927,-1762.019645
595.628666,5403.503377,9400.615463,536.266849
595.628986,4885.359217,8882.471304,995.924147
595.629307,2812.782580,7254.018232,76.609550
595.629628,3627.009116,6957.935855,306.438199
595.629948,5181.441594,8364.327145,-383.047749
595.630269,4145.153275,9992.780217,-153.219100
595.630589,5181.441594,10658.965565,1149.143247
595.630910,6365.771101,8290.306550,689.485948
595.631230,4515.256246,6291.750507,-919.314598
595.631551,5181.441594,5403.503377,0.000000
595.631871,6291.750507,7846.182985,1302.362347
595.632192,4959.379811,8660.409521,229.828649
595.632513,5551.544565,8364.327145,0.000000
595.632833,7179.997637,8660.409521,-1915.238745
595.633154,7920.203579,8734.430116,-1838.629195
595.633474,4811.338623,7624.121203,-383.047749
595.633795,6069.688724,7772.162391,0.000000
595.634115,6587.832884,8808.450710,76.609550
595.634436,4367.215058,7846.182985,842.705048
595.634756,4145.153275,8068.244768,0.000000
595.635077,5921.647536,7550.100608,383.047749
595.635398,4811.338623,9474.636058,0.000000
595.635718,6809.894666,9030.512492,536.266849
595.636039,4737.318029,6217.729913,0.000000
595.636359,5477.523971,6587.832884,0.000000
595.636680,3627.009116,6069.688724,2374.896044
595.637000,2664.741391,6735.874072,1838.629195
595.637321,5699.585753,6957.935855,76.609550
595.637641,5995.668130,7105.977043,-612.876398
595.637962,6217.729913,8660.409521,-1762.019645
595.638283,7254.018232,10362.883188,-995.924147
595.638603,5255.462188,9178.553681,383.047749
595.638924,4145.153275,6513.812290,1072.533697
595.639244,5773.606348,4737.318029,2298.286494
595.639565,5107.421000,5995.668130,1685.410096
595.639885,4441.235652,9474.636058,-919.314598
595.640206,3330.926739,9548.656652,-1685.410096
595.640526,5403.503377,8068.244768,-766.095498
595.640847,7624.121203,7402.059420,306.438199
595.641168,4737.318029,4959.379811,306.438199
595.641488,3849.070898,5329.482782,-1455.581446
595.641809,4071.132681,8956.491898,-919.314598
595.642129,3330.926739,9770.718434,0.000000
595.642450,5995.668130,8512.368333,0.000000
595.642770,8956.491898,7105.977043,-459.657299
595.643091,5329.482782,7772.162391,-1991.848295
595.643411,2886.803174,9178.553681,-2068.457845
595.643732,4145.153275,8438.347739,-766.095498
595.644053,4071.132681,8438.347739,-1072.533697
595.644373,5403.503377,8660.409521,0.000000
595.644694,6217.729913,9400.615463,153.219100
595.645014,3701.029710,11103.089130,-995.924147
595.645335,2738.761985,10881.027347,-383.047749
595.645655,3182.885551,8956.491898,919.314598
595.645976,4293.194464,5773.606348,306.438199
595.646296,4219.173869,6883.915261,536.266849
595.646617,3182.885551,9030.512492,306.438199
595.646938,2664.741391,9178.553681,-1149.143247
595.647258,3701.029710,9400.615463,-153.219100
595.647579,4737.318029,7328.038826,229.828649
595.647899,6143.709319,7624.121203,0.000000
595.648220,6809.894666,10214.842000,-229.828649
595.648540,5181.441594,10510.924376,-1762.019645
595.648861,4441.235652,8142.265362,-1838.629195
595.649181,6365.771101,6069.688724,-995.924147
595.649502,7624.121203,8068.244768,-1225.752797
595.649823,5329.482782,9030.512492,-1762.019645
595.650143,5329.482782,8142.265362,-2145.067394
595.650464,8068.244768,8068.244768,-2757.943793
595.650784,6143.709319,7179.997637,-2221.676944
595.651105,5255.462188,6217.729913,-766.095498
595.651425,7105.977043,6809.894666,76.609550
595.651746,5255.462188,7179.997637,-229.828649
595.652066,5699.585753,7698.141797,306.438199
595.652387,7846.182985,7624.121203,0.000000
595.652708,5699.585753,6587.832884,-2451.505594
595.653028,4811.338623,8068.244768,-1762.019645
595.653349,6587.832884,9178.553681,383.047749
595.653669,4811.338623,9622.677246,-1302.362347
595.653990,5625.565159,7624.121203,0.000000
595.654310,5033.400406,7179.997637,0.000000
595.654631,3775.050304,8660.409521,0.000000
595.654951,2664.741391,9474.636058,612.876398
595.655272,2738.761985,9326.594869,919.314598
595.655593,3627.009116,7550.100608,153.219100
595.655913,4441.235652,7402.059420,1991.848295
595.656234,3701.029710,8660.409521,842.705048
595.656554,2812.782580,8808.450710,-1149.143247
595.656875,4145.153275,10584.944971,-2068.457845
595.657195,4367.215058,8734.430116,-1378.971896
595.657516,5625.565159,7994.224174,536.266849
595.657836,6439.791695,9178.553681,2374.896044
595.658157,6217.729913,9030.512492,1225.752797
595.658478,4515.256246,6587.832884,-612.876398
595.658798,4589.276840,6365.771101,-995.924147
595.659119,7179.997637,8290.306550,-153.219100
595.659439,5033.400406,8364.327145,536.266849
595.659760,5625.565159,7846.182985,0.000000
595.660080,7550.100608,7698.141797,-229.828649
595.660401,6365.771101,7624.121203,229.828649
595.660721,4737.318029,6735.874072,-536.266849
595.661042,4515.256246,6217.729913,-689.485948
595.661363,4737.318029,7179.997637,-536.266849
595.661683,5551.544565,8438.347739,1608.800546
595.662004,6069.688724,8290.306550,1455.581446
595.662324,4959.379811,8290.306550,-2374.896044
595.662645,4071.132681,9400.615463,-2911.162892
595.662965,2516.700203,10658.965565,-612.876398
595.663286,2294.638420,9326.594869,0.000000
595.663606,3552.988522,6883.915261,1991.848295
595.663927,4663.297435,7179.997637,1532.190996
595.664248,3034.844362,8290.306550,76.609550
595.664568,1406.391290,9992.780217,-919.314598
595.664889,2664.741391,8882.471304,-459.657299
595.665209,4663.297435,7402.059420,842.705048
595.665530,6735.874072,6661.853478,2374.896044
595.665850,5773.606348,7179.997637,1072.533697
595.666171,4663.297435,8586.388927,-383.047749
595.666491,4441.235652,9548.656652,-2528.115143
595.666812,5033.400406,8290.306550,-2451.505594
595.667133,6365.771101,5773.606348,-995.924147
595.667453,8142.265362,7254.018232,842.705048
595.667774,8068.244768,9844.739029,306.438199
595.668094,5033.400406,7994.224174,-1225.752797
595.668415,5255.462188,5847.626942,-2374.896044
595.668735,6809.894666,6143.709319,-1149.143247
595.669056,7624.121203,7476.080014,0.000000
595.669377,4737.318029,7105.977043,-383.047749
595.669697,7031.956449,8808.450710,-2451.505594
595.670018,7920.203579,10436.903782,-2374.896044
595.670338,2960.823768,8586.388927,-2068.457845
595.670659,5033.400406,7476.080014,-1685.410096
595.670979,6217.729913,10066.800811,306.438199
595.671300,2590.720797,9918.759623,995.924147
595.671620,4737.318029,9770.718434,1072.533697
595.671941,5255.462188,8956.491898,0.000000
595.672262,2220.617826,8882.471304,-1608.800546
595.672582,3182.885551,9252.574275,766.095498
595.672903,3997.112087,6069.688724,1915.238745
595.673223,4145.153275,8216.285956,689.485948
595.673544,5033.400406,8216.285956,1685.410096
595.673864,3034.844362,9474.636058,-1302.362347
595.674185,4737.318029,10288.862594,-2528.115143
595.674505,4737.318029,9844.739029,-536.266849
595.674826,5699.585753,7550.100608,383.047749
595.675147,6661.853478,6587.832884,612.876398
595.675467,6291.750507,7624.121203,689.485948
595.675788,4441.235652,9474.636058,-766.095498
595.676108,5033.400406,9474.636058,-2298.286494
595.676429,6291.750507,7476.080014,-1991.848295
595.676749,6809.894666,6439.791695,-1302.362347
595.677070,6439.791695,6587.832884,612.876398
595.677390,6143.709319,8512.368333,1149.143247
595.677711,4515.256246,8364.327145,459.657299
595.678032,3849.070898,6661.853478,-1149.143247
595.678352,5255.462188,5107.421000,-536.266849
595.678673,4219.173869,6883.915261,153.219100
595.678993,5107.421000,9030.512492,383.047749
595.679314,3182.885551,9622.677246,766.095498
595.679634,5255.462188,7402.059420,-766.095498
595.679955,5847.626942,6365.771101,-612.876398
595.680275,2886.803174,6143.709319,0.000000
595.680596,3775.050304,6513.812290,306.438199
595.680917,5107.421000,8364.327145,2068.457845
595.681237,3775.050304,8216.285956,612.876398
595.681558,6809.894666,8956.491898,612.876398
595.681878,5181.441594,8364.327145,-76.609550
595.682199,4367.215058,8512.368333,-1302.362347
595.682519,4071.132681,8438.347739,0.000000
595.682840,5477.523971,6217.729913,1685.410096
595.683160,6513.812290,7402.059420,1378.971896
595.683481,5329.482782,6809.894666,383.047749
595.683802,1776.494261,6735.874072,-1838.629195
595.684122,5847.626942,9400.615463,-1072.533697
595.684443,5847.626942,8364.327145,536.266849
595.684763,5181.441594,7994.224174,1149.143247
595.685084,6217.729913,6365.771101,229.828649
595.685404,6587.832884,9844.739029,306.438199
595.685725,3627.009116,11547.212695,995.924147
595.686045,4515.256246,9992.780217,-306.438199
595.686366,6513.812290,9178.553681,-1149.143247
595.686687,6513.812290,7994.224174,-766.095498
595.687007,4737.318029,8216.285956,919.314598
595.687328,4145.153275,9474.636058,1225.752797
595.687648,4071.132681,9326.594869,995.924147
595.687969,2516.700203,7105.977043,459.657299
595.688289,3034.844362,4441.235652,1685.410096
595.688610,5255.462188,7550.100608,1532.190996
595.688930,4367.215058,9030.512492,2298.286494
595.689251,2960.823768,8808.450710,153.219100
595.689572,7105.977043,7920.203579,-1072.533697
595.689892,5773.606348,7920.203579,-919.314598
595.690213,4663.297435,6291.750507,-229.828649
595.690533,6069.688724,5773.606348,-306.438199
595.690854,7402.059420,8882.471304,-1378.971896
595.691174,5033.400406,9770.718434,-2145.067394
595.691495,5625.565159,8734.430116,-2145.067394
595.691815,5181.441594,6735.874072,-1685.410096
595.692136,4811.338623,7105.977043,-995.924147
595.692457,3775.050304,7328.038826,1762.019645
595.692777,4515.256246,7772.162391,1072.533697
595.693098,3923.091493,7994.224174,-1072.533697
595.693418,4293.194464,7476.080014,-612.876398
595.693739,3775.050304,8290.306550,-612.876398
595.694059,5329.482782,8882.471304,-306.438199
595.694380,3478.967927,7994.224174,383.047749
595.694700,3627.009116,6513.812290,0.000000
595.695021,5329.482782,6735.874072,-306.438199
595.695342,5551.544565,8660.409521,153.219100
595.695662,4145.153275,8216.285956,0.000000
595.695983,6143.709319,8808.450710,-919.314598
595.696303,6957.935855,9696.697840,-2068.457845
595.696624,5477.523971,8068.244768,-1685.410096
595.696944,8142.265362,6513.812290,689.485948
595.697265,8586.388927,8364.327145,1378.971896
595.697585,4589.276840,7846.182985,1685.410096
595.697906,4441.235652,7994.224174,1532.190996
595.698227,5847.626942,7254.018232,-1225.752797
595.698547,5255.462188,7550.100608,-1225.752797
595.698868,8956.491898,7254.018232,1608.800546
595.699188,7624.121203,7105.977043,0.000000
595.699509,4737.318029,8290.306550,-4290.134789
595.699829,6069.688724,9326.594869,-2145.067394
595.700150,5477.523971,9622.677246,1685.410096
595.700470,6587.832884,8512.368333,1762.019645
595.700791,7105.977043,8512.368333,2451.505594
595.701112,5551.544565,7772.162391,0.000000
595.701432,3627.009116,7105.977043,-1991.848295
595.701753,5477.523971,8734.430116,766.095498
595.702073,5033.400406,9474.636058,153.219100
595.702394,3108.864956,7920.203579,536.266849
595.702714,4515.256246,6513.812290,1072.533697
595.703035,4293.194464,7105.977043,153.219100
595.703355,1406.391290,7846.182985,689.485948
595.703676,2294.638420,7920.203579,689.485948
595.703997,4071.132681,8364.327145,-766.095498
595.704317,4663.297435,7402.059420,306.438199
595.704638,5995.668130,8808.450710,2604.724693
595.704958,6957.935855,8808.450710,459.657299
595.705279,2294.638420,7476.080014,-2528.115143
595.705599,4515.256246,7328.038826,-612.876398
595.705920,4441.235652,5625.565159,612.876398
595.706240,6883.915261,6587.832884,612.876398
595.706561,6809.894666,6883.915261,0.000000
595.706882,4071.132681,7402.059420,-2528.115143
595.707202,4441.235652,8512.368333,-2987.772442
595.707523,4145.153275,8512.368333,-612.876398
595.707843,3552.988522,7772.162391,995.924147
595.708164,6217.729913,6587.832884,76.609550
595.708484,4959.379811,7402.059420,842.705048
595.708805,3182.885551,8808.450710,76.609550
595.709125,3923.091493,8364.327145,-536.266849
595.709446,4515.256246,7402.059420,-612.876398
595.709767,4959.379811,7846.182985,-612.876398
595.710087,5699.585753,8364.327145,536.266849
595.710408,5255.462188,8586.388927,1455.581446
595.710728,5625.565159,7328.038826,536.266849
595.711049,5033.400406,5847.626942,153.219100
595.711369,3108.864956,7402.059420,-1762.019645
595.711690,5773.606348,9992.780217,-1149.143247
595.712010,3923.091493,10362.883188,612.876398
595.712331,5773.606348,9326.594869,-459.657299
595.712652,9326.594869,7994.224174,76.609550
595.712972,4959.379811,8882.471304,229.828649
595.713293,2442.679609,7772.162391,-1378.971896
595.713613,5033.400406,8882.471304,76.609550
595.713934,4663.297435,8956.491898,459.657299
595.714254,5551.544565,8882.471304,383.047749
595.714575,6809.894666,8290.306550,689.485948
595.714895,4441.235652,8808.450710,-2298.286494
595.715216,2812.782580,10066.800811,-995.924147
595.715537,4959.379811,9400.615463,306.438199
595.715857,5773.606348,8142.265362,-536.266849
595.716178,5551.544565,7105.977043,229.828649
595.716498,4737.318029,8290.306550,0.000000
595.716819,3849.070898,9844.739029,-1072.533697
595.717139,2516.700203,9844.739029,-306.438199
595.717460,7328.038826,8734.430116,459.657299
595.717780,7105.977043,5551.544565,76.609550
595.718101,3701.029710,6513.812290,-459.657299
595.718422,5477.523971,8364.327145,306.438199
595.718742,3108.864956,7179.997637,-383.047749
595.719063,6143.709319,8512.368333,-306.438199
595.719383,8364.327145,7179.997637,383.047749
595.719704,6883.915261,7179.997637,-2145.067394
595.720024,6513.812290,8734.430116,-1915.238745
595.720345,4219.173869,7698.141797,-536.266849
595.720665,4959.379811,6291.750507,-766.095498
595.720986,8364.327145,4959.379811,-459.657299
595.721307,6291.750507,4663.297435,-536.266849
595.721627,4737.318029,7402.059420,-1378.971896
595.721948,5329.482782,9770.718434,-1378.971896
595.722268,2220.617826,9252.574275,-1149.143247
595.722589,5255.462188,7920.203579,-536.266849
595.722909,7994.224174,7476.080014,306.438199
595.723230,3923.091493,8142.265362,-919.314598
595.723551,2294.638420,8438.347739,-1915.238745
595.723871,1998.556043,9400.615463,-229.828649
595.724192,2738.761985,9548.656652,306.438199
595.724512,5773.606348,8290.306550,1072.533697
595.724833,3775.050304,7550.100608,383.047749
595.725153,3775.050304,10658.965565,-1685.410096
595.725474,2738.761985,11769.274478,0.000000
595.725794,1332.370696,9326.594869,1149.143247
595.726115,4959.379811,7105.977043,76.609550
595.726436,6883.915261,6883.915261,1072.533697
595.726756,4441.235652,7624.121203,383.047749
595.727077,3923.091493,10584.944971,-306.438199
595.727397,4367.215058,10658.965565,229.828649
595.727718,5403.503377,9030.512492,-536.266849
595.728038,7328.038826,6735.874072,0.000000
595.728359,7328.038826,6809.894666,0.000000
595.728679,5921.647536,7698.141797,-306.438199
595.729000,5625.565159,8216.285956,-229.828649
595.729320,5181.441594,7994.224174,-1302.362347
595.729641,5551.544565,7698.141797,-1915.238745
595.729961,7105.977043,6513.812290,-995.924147
595.730282,7476.080014,8734.430116,1608.800546
595.730602,5255.462188,7254.018232,536.266849
595.730923,3997.112087,4811.338623,-306.438199
595.731243,5033.400406,6439.791695,-995.924147
595.731564,4663.297435,8216.285956,-919.314598
595.731884,3775.050304,9474.636058,76.609550
595.732205,7179.997637,9326.594869,-76.609550
595.732525,6957.935855,7772.162391,-1762.019645
595.732846,3256.906145,7031.956449,-536.266849
595.733166,3997.112087,6439.791695,-229.828649
595.733487,2812.782580,8068.244768,-612.876398
595.733807,2664.741391,8512.368333,-536.266849
595.734127,6365.771101,7920.203579,1149.143247
595.734448,6365.771101,6809.894666,306.438199
595.734768,2442.679609,6661.853478,-919.314598
595.735089,4441.235652,8142.265362,153.219100
595.735409,5033.400406,7846.182985,1302.362347
595.735730,5847.626942,7772.162391,383.047749
595.736050,5773.606348,7105.977043,229.828649
595.736371,5329.482782,7031.956449,-2451.505594
595.736691,5033.400406,9104.533087,-2221.676944
595.737012,4737.318029,10140.821405,995.924147
595.737332,5403.503377,9178.553681,306.438199
595.737653,6883.915261,8586.388927,-689.485948
595.737973,4293.194464,9178.553681,-766.095498
595.738294,2442.679609,8734.430116,-383.047749
595.738614,2664.741391,9178.553681,612.876398
595.738935,4293.194464,8216.285956,0.000000
595.739255,3775.050304,7328.038826,-766.095498
595.739576,5033.400406,8660.409521,-612.876398
595.739896,5181.441594,9696.697840,536.266849
595.740217,3701.029710,10066.800811,689.485948
595.740537,3627.009116,8586.388927,612.876398
595.740858,5477.523971,8586.388927,0.000000
595.741178,5181.441594,8512.368333,689.485948
595.741498,3923.091493,9474.636058,1149.143247
595.741819,6735.874072,8364.327145,919.314598
595.742139,6365.771101,7698.141797,-459.657299
595.742460,4515.256246,7402.059420,-1302.362347
595.742780,3775.050304,4959.379811,-306.438199
595.743101,6587.832884,6883.915261,153.219100
595.743421,6661.853478,9104.533087,1225.752797
595.743742,5181.441594,8068.244768,153.219100
595.744062,7328.038826,7179.997637,-2298.286494
595.744383,6217.729913,7698.141797,-2911.162892
595.744703,3182.885551,7476.080014,-919.314598
595.745024,5255.462188,7105.977043,995.924147
595.745344,6883.915261,8142.265362,919.314598
595.745665,4441.235652,8586.388927,459.657299
595.745985,4219.173869,8586.388927,-1762.019645
595.746306,3775.050304,7994.224174,-3064.381992
595.746626,4515.256246,7624.121203,-919.314598
595.746947,3478.967927,5995.668130,2681.334243
595.747267,3923.091493,5551.544565,1991.848295
595.747588,4811.338623,6809.894666,0.000000
595.747908,3182.885551,9252.574275,-766.095498
595.748229,4293.194464,10807.006753,-1378.971896
595.748549,5921.647536,9178.553681,-1149.143247
595.748869,6217.729913,8142.265362,-766.095498
595.749190,6513.812290,7772.162391,-306.438199
595.749510,5181.441594,8364.327145,0.000000
595.749831,4589.276840,7772.162391,306.438199
595.750151,4737.318029,7031.956449,0.000000
595.750472,3701.029710,6069.688724,-689.485948
595.750792,5107.421000,7254.018232,-383.047749
595.751113,6661.853478,10066.800811,689.485948
595.751433,4515.256246,9178.553681,536.266849
595.751754,7402.059420,7920.203579,229.828649
595.752074,7772.162391,6957.935855,0.000000
595.752395,4071.132681,6439.791695,-1072.533697
595.752715,4441.235652,6735.874072,0.000000
595.753036,6143.709319,9326.594869,536.266849
595.753356,5551.544565,10214.842000,-536.266849
595.753677,6735.874072,8808.450710,76.609550
595.753997,5921.647536,7476.080014,-1225.752797
595.754318,4367.215058,7920.203579,-2604.724693
595.754638,2590.720797,7994.224174,383.047749
595.754959,4071.132681,7624.121203,1838.629195
595.755279,5773.606348,8586.388927,1915.238745
595.755600,5033.400406,8364.327145,1072.533697
595.755920,2738.761985,8290.306550,-1302.362347
595.756240,4589.276840,9844.739029,-1378.971896
595.756561,4589.276840,8734.430116,689.485948
595.756881,3775.050304,7402.059420,1762.019645
595.757202,5847.626942,6143.709319,306.438199
595.757522,4071.132681,7550.100608,-995.924147
595.757843,2294.638420,8808.450710,-612.876398
595.758163,3256.906145,9622.677246,-612.876398
595.758484,6217.729913,9252.574275,-1532.190996
595.758804,5699.585753,7698.141797,-1685.410096
595.759125,5773.606348,7254.018232,-612.876398
595.759445,5625.565159,8290.306550,1455.581446
595.759766,5403.503377,7920.203579,766.095498
595.760086,4367.215058,5995.668130,-229.828649
595.760407,5625.565159,6957.935855,-1762.019645
595.760727,6513.812290,8438.347739,-1302.362347
595.761048,4589.276840,8512.368333,459.657299
595.761368,6365.771101,7550.100608,0.000000
595.761689,8734.430116,7698.141797,-1149.143247
595.762009,4367.215058,7031.956449,-1915.238745
595.762330,3552.988522,5107.421000,-2451.505594
595.762650,7476.080014,7550.100608,0.000000
595.762971,4959.379811,9178.553681,1225.752797
595.763291,5551.544565,9252.574275,1302.362347
595.763611,6809.894666,9252.574275,459.657299
595.763932,4293.194464,9252.574275,-1991.848295
595.764252,1850.514855,8734.430116,229.828649
595.764573,4367.215058,7105.977043,2068.457845
595.764893,5773.606348,7476.080014,995.924147
595.765214,3923.091493,7772.162391,842.705048
595.765534,4441.235652,8068.244768,-153.219100
595.765855,3849.070898,9474.636058,-1608.800546
595.766175,5255.462188,9622.677246,536.266849
595.766496,6217.729913,9400.615463,1991.848295
595.766816,5033.400406,7105.977043,76.609550
595.767137,5477.523971,7254.018232,-1072.533697
595.767457,5181.441594,7698.141797,995.924147
595.767778,4589.276840,7772.162391,766.095498
595.768098,7402.059420,9770.718434,-536.266849
595.768419,5699.585753,8068.244768,-1762.019645
595.768739,6143.709319,7920.203579,-2221.676944
595.769060,8216.285956,8808.450710,842.705048
595.769380,6365.771101,7624.121203,1991.848295
595.769701,4811.338623,4811.338623,919.314598
595.770021,5329.482782,4071.132681,-612.876398
595.770342,5995.668130,9474.636058,-842.705048
595.770662,3997.112087,9770.718434,-689.485948
595.770982,5255.462188,7402.059420,-459.657299
595.771303,9696.697840,6809.894666,-919.314598
595.771623,5773.606348,8068.244768,76.609550
595.771944,1998.556043,6291.750507,0.000000
595.772264,4737.318029,7994.224174,-766.095498
595.772585,5921.647536,9030.512492,0.000000
595.772905,3330.926739,9104.533087,842.705048
595.773226,5551.544565,9178.553681,153.219100
595.773546,3775.050304,8734.430116,-1608.800546
595.773867,2368.659014,8586.388927,-536.266849
595.774187,2664.741391,7994.224174,1838.629195
595.774508,4071.132681,7994.224174,766.095498
595.774828,3182.885551,7105.977043,306.438199
595.775149,3923.091493,7105.977043,0.000000
595.775469,4293.194464,9474.636058,-995.924147
595.775790,4071.132681,10732.986159,306.438199
595.776110,4663.297435,8512.368333,1378.971896
595.776431,6735.874072,7031.956449,995.924147
595.776751,6069.688724,7402.059420,229.828649
595.777072,4515.256246,8586.388927,383.047749
595.777392,4219.173869,7846.182985,-689.485948
595.777713,7772.162391,7994.224174,-1378.971896
595.778033,7328.038826,8734.430116,-995.924147
595.778353,6217.729913,8216.285956,-1302.362347
595.778674,4959.379811,7846.182985,-1072.533697
595.778994,6365.771101,8660.409521,1378.971896
595.779315,4737.318029,7179.997637,1532.190996
595.779635,3404.947333,4071.132681,306.438199
595.779956,5107.421000,6883.915261,-995.924147
595.780276,6217.729913,11473.192101,0.000000
595.780597,2516.700203,10362.883188,536.266849
595.780917,6365.771101,7402.059420,-383.047749
595.781238,8216.285956,6809.894666,153.219100
595.781558,3182.885551,6735.874072,153.219100
595.781879,3034.844362,6809.894666,0.000000
595.782199,4885.359217,7846.182985,153.219100
595.782520,4071.132681,8290.306550,-153.219100
595.782840,7031.956449,8808.450710,1072.533697
595.783161,7105.977043,8364.327145,-306.438199
595.783481,2960.823768,7550.100608,-3753.867940
595.783802,4367.215058,8512.368333,0.000000
595.784122,6217.729913,6661.853478,2451.505594
595.784443,5329.482782,6217.729913,2604.724693
595.784763,5477.523971,3775.050304,1072.533697
595.785084,4737.318029,6439.791695,-1072.533697
595.785404,4515.256246,10066.800811,-2757.943793
595.785724,4515.256246,8512.368333,-1149.143247
595.786045,7624.121203,7624.121203,76.609550
595.786365,8734.430116,5773.606348,-842.705048
595.786686,4071.132681,7846.182985,-995.924147
595.787006,2590.720797,9030.512492,-1149.143247
595.787327,4737.318029,8586.388927,-1838.629195
595.787647,7402.059420,8956.491898,612.876398
595.787968,5551.544565,8586.388927,-229.828649
595.788288,5181.441594,9770.718434,-1915.238745
595.788609,2294.638420,9548.656652,-306.438199
595.788929,3627.009116,9400.615463,2374.896044
595.789250,4589.276840,7994.224174,2987.772442
595.789570,2664.741391,5477.523971,1225.752797
595.789891,3775.050304,9030.512492,-306.438199
595.790211,4589.276840,11399.171507,153.219100
595.790532,2812.782580,10362.883188,766.095498
595.790852,7994.224174,6735.874072,1378.971896
595.791173,7846.182985,6069.688724,689.485948
595.791493,5921.647536,5773.606348,-919.314598
595.791814,5921.647536,5403.503377,-153.219100
595.792134,7328.038826,7105.977043,383.047749
595.792455,9104.533087,7550.100608,-306.438199
595.792775,10881.027347,7920.203579,459.657299
595.793095,8734.430116,5403.503377,-1991.848295
595.793416,8142.265362,5773.606348,-2757.943793
595.793736,8290.306550,5551.544565,76.609550
595.794057,7846.182985,5551.544565,229.828649
595.794377,8956.491898,4959.379811,0.000000
595.794698,8216.285956,4959.379811,-1762.019645
595.795018,5699.585753,7254.018232,-2528.115143
595.795339,6957.935855,8586.388927,-1378.971896
595.795659,9252.574275,8808.450710,76.609550
595.795980,8956.491898,7624.121203,919.314598
595.796300,7105.977043,6587.832884,306.438199
595.796621,6143.709319,6365.771101,306.438199
595.796941,3775.050304,4515.256246,536.266849
595.797262,6365.771101,3923.091493,2681.334243
595.797582,9030.512492,4071.132681,2987.772442
595.797903,7179.997637,4071.132681,-383.047749
595.798223,8882.471304,5847.626942,-2451.505594
595.798544,8660.409521,5551.544565,-1149.143247
595.798864,11399.171507,5551.544565,1072.533697
595.799185,12139.377449,3478.967927,1915.238745
595.799505,9992.780217,1332.370696,-1532.190996
595.799826,11843.295072,4885.359217,-3447.429741
595.800146,12065.356855,8956.491898,-2681.334243
595.800466,9326.594869,7772.162391,-1838.629195
595.800787,13841.851115,4885.359217,-1915.238745
595.801107,13767.830521,3627.009116,-1149.143247
595.801428,8068.244768,4071.132681,-995.924147
595.801748,6365.771101,3478.967927,766.095498
595.802069,7846.182985,4515.256246,1685.410096
595.802389,9770.718434,5773.606348,1072.533697
595.802710,8956.491898,4663.297435,-383.047749
595.803030,8734.430116,4589.276840,-2987.772442
595.803351,7920.203579,7698.141797,-3217.601092
595.803671,6957.935855,9326.594869,919.314598
595.803992,7698.141797,7179.997637,1762.019645
595.804312,10214.842000,4959.379811,766.095498
595.804633,8364.327145,4441.235652,0.000000
595.804953,5847.626942,7920.203579,-995.924147
595.805274,4515.256246,8216.285956,-1149.143247
595.805594,7994.224174,6365.771101,383.047749
595.805915,11769.274478,6143.709319,2604.724693
595.806235,10362.883188,4441.235652,1685.410096
595.806556,8882.471304,4663.297435,-1378.971896
595.806876,7994.224174,4071.132681,-3064.381992
595.807197,8808.450710,4219.173869,-1455.581446
595.807517,11695.253884,2738.761985,2374.896044
595.807837,13175.665768,2368.659014,1225.752797
595.808158,13175.665768,5329.482782,-842.705048
595.808478,10881.027347,8512.368333,-1608.800546
595.808799,8364.327145,8512.368333,-2604.724693
595.809119,11547.212695,6735.874072,-2834.553343
595.809440,11991.336260,4145.153275,-1762.019645
595.809760,11177.109724,3627.009116,-1378.971896
595.810081,9770.718434,4737.318029,-842.705048
595.810401,8808.450710,5477.523971,-842.705048
595.810722,6587.832884,4663.297435,-1378.971896
595.811042,7698.141797,3849.070898,0.000000
595.811363,9622.677246,6513.812290,842.705048
595.811683,8438.347739,8068.244768,-76.609550
595.812004,6735.874072,5847.626942,383.047749
595.812324,9770.718434,3849.070898,383.047749
595.812645,7624.121203,3478.967927,536.266849
595.812965,5255.462188,5773.606348,-76.609550
595.813286,6439.791695,8660.409521,-1762.019645
595.813606,7476.080014,9844.739029,-2068.457845
595.813927,8290.306550,9474.636058,919.314598
595.814247,9548.656652,7476.080014,2451.505594
595.814568,7624.121203,6217.729913,919.314598
595.814888,6365.771101,7254.018232,-306.438199
595.815208,5329.482782,6883.915261,689.485948
595.815529,7476.080014,6143.709319,229.828649
595.815849,8142.265362,4293.194464,1608.800546
595.816170,7550.100608,3404.947333,1225.752797
595.816490,8438.347739,5773.606348,-689.485948
595.816811,8216.285956,5699.585753,-1838.629195
595.817131,9548.656652,5551.544565,-689.485948
595.817452,11843.295072,4145.153275,383.047749
595.817772,11473.192101,2664.741391,1149.143247
595.818093,11029.068536,3701.029710,1532.190996
595.818413,11473.192101,5329.482782,-459.657299
595.818734,13175.665768,7994.224174,-2451.505594
595.819054,13989.892304,6883.915261,-2528.115143
595.819375,12509.480420,3404.947333,-2911.162892
595.819695,12657.521608,2442.679609,-766.095498
595.820016,11547.212695,3478.967927,1532.190996
595.820336,7994.224174,2886.803174,1455.581446
595.820657,10214.842000,3552.988522,76.609550
595.820977,11251.130318,5107.421000,153.219100
595.821298,7550.100608,5477.523971,995.924147
595.821618,7772.162391,3923.091493,1225.752797
595.821939,8142.265362,3034.844362,919.314598
595.822259,7402.059420,4589.276840,-689.485948
595.822579,6957.935855,6439.791695,-306.438199
595.822900,7550.100608,8216.285956,-1302.362347
595.823220,7624.121203,8512.368333,-2145.067394
595.823541,9696.697840,9696.697840,1608.800546
595.823861,7920.203579,7624.121203,2298.286494
595.824182,7179.997637,5477.523971,383.047749
595.824502,7105.977043,5551.544565,76.609550
595.824823,5995.668130,4885.359217,76.609550
595.825143,7402.059420,3108.864956,0.000000
595.825464,11621.233289,3849.070898,689.485948
595.825784,10510.924376,5403.503377,0.000000
595.826105,9548.656652,5107.421000,-383.047749
595.826425,11473.192101,6143.709319,0.000000
595.826746,13101.645173,6365.771101,-153.219100
595.827066,12805.562797,5773.606348,306.438199
595.827387,12731.542202,4737.318029,-306.438199
595.827707,10584.944971,3108.864956,-2911.162892
595.828028,10881.027347,4589.276840,-1608.800546
595.828348,11695.253884,5477.523971,612.876398
595.828669,12657.521608,5329.482782,-995.924147
595.828989,12509.480420,5033.400406,-2451.505594
595.829310,9474.636058,5329.482782,-2451.505594
595.829630,8808.450710,4737.318029,-612.876398
595.829950,8438.347739,4145.153275,2451.505594
595.830271,8364.327145,4959.379811,1608.800546
595.830591,8216.285956,5773.606348,153.219100
595.830912,7254.018232,7920.203579,-1685.410096
595.831232,6143.709319,8660.409521,-1685.410096
595.831553,5033.400406,7698.141797,383.047749
595.831873,7846.182985,7031.956449,1608.800546
595.832194,7402.059420,6883.915261,536.266849
595.832514,6735.874072,7328.038826,-229.828649
595.832835,5107.421000,6513.812290,383.047749
595.833155,6365.771101,6143.709319,-995.924147
595.833476,7624.121203,4737.318029,1225.752797
595.833796,9770.718434,5699.585753,2145.067394
595.834117,9992.780217,5921.647536,842.705048
595.834437,10362.883188,4959.379811,-612.876398
595.834758,10807.006753,3701.029710,-1225.752797
595.835078,11917.315666,2220.617826,-383.047749
595.835399,12657.521608,2220.617826,536.266849
595.835719,12805.562797,2664.741391,-612.876398
595.836040,12139.377449,3552.988522,-2374.896044
595.836360,13397.727550,3701.029710,-1762.019645
595.836681,15470.304188,4811.338623,0.000000
595.837001,13915.871710,4071.132681,-229.828649
595.837322,12435.459826,4145.153275,-1378.971896
595.837642,12657.521608,5625.565159,-2298.286494
595.837963,10955.047942,6513.812290,-1915.238745
595.838283,8586.388927,5255.462188,-229.828649
595.838603,9992.780217,3330.926739,919.314598
595.838924,8734.430116,3849.070898,459.657299
595.839244,4737.318029,5107.421000,0.000000
595.839565,4589.276840,6439.791695,-76.609550
595.839885,6143.709319,6957.935855,919.314598
595.840206,5847.626942,6735.874072,2451.505594
595.840526,5699.585753,6661.853478,3370.820191
595.840847,5625.565159,6883.915261,919.314598
595.841167,4737.318029,7179.997637,-2145.067394
595.841488,5181.441594,7624.121203,-459.657299
595.841808,6735.874072,7994.224174,612.876398
595.842129,8882.471304,7550.100608,383.047749
595.842449,8882.471304,7031.956449,689.485948
595.842770,9622.677246,8142.265362,-1072.533697
595.843090,8438.347739,6735.874072,-306.438199
595.843411,9104.533087,4885.359217,842.705048
595.843731,11325.150913,3478.967927,1455.581446
595.844052,12139.377449,2738.761985,995.924147
595.844372,10732.986159,2960.823768,306.438199
595.844693,11029.068536,3404.947333,-766.095498
595.845013,11843.295072,2886.803174,-1608.800546
595.845334,13397.727550,3256.906145,-766.095498
595.845654,14063.912898,5107.421000,-1072.533697
595.845975,13175.665768,6217.729913,-1915.238745
595.846295,11695.253884,6217.729913,-1762.019645
595.846615,11103.089130,4293.194464,-1225.752797
595.846936,11843.295072,3478.967927,-306.438199
595.847256,10955.047942,3923.091493,-536.266849
595.847577,8512.368333,5699.585753,-1378.971896
595.847897,8364.327145,7254.018232,-1378.971896
595.848218,7179.997637,6365.771101,0.000000
595.848538,7994.224174,4293.194464,1378.971896
595.848859,8068.244768,4367.215058,2145.067394
595.849179,5551.544565,7031.956449,1072.533697
595.849500,3404.947333,7254.018232,-383.047749
595.849820,4663.297435,6291.750507,0.000000
595.850141,7105.977043,5181.441594,1455.581446
595.850461,8290.306550,5773.606348,2451.505594
595.850782,7550.100608,7179.997637,612.876398
595.851102,6735.874072,8956.491898,-2834.553343
595.851423,7179.997637,8808.450710,-2451.505594
595.851743,9696.697840,6809.894666,842.705048
595.852064,11325.150913,4367.215058,2374.896044
595.852384,11547.212695,3034.844362,1608.800546
595.852705,10362.883188,3997.112087,-842.705048
595.853025,9918.759623,4959.379811,-2987.772442
595.853346,11621.233289,3478.967927,-2221.676944
595.853666,14137.933492,2590.720797,306.438199
595.853987,13767.830521,2886.803174,1225.752797
595.854307,13249.686362,3627.009116,0.000000
595.854628,12065.356855,4663.297435,-1915.238745
595.854948,11325.150913,5477.523971,-3294.210641
595.855268,11843.295072,5403.503377,-1762.019645
595.855589,12065.356855,5995.668130,-153.219100
595.855909,10732.986159,6587.832884,0.000000
595.856230,8956.491898,7105.977043,0.000000
595.856550,7402.059420,7402.059420,0.000000
595.856871,5773.606348,5921.647536,-459.657299
595.857191,6217.729913,5255.462188,459.657299
595.857512,6291.750507,6365.771101,1991.848295
595.857832,5921.647536,7698.141797,2374.896044
595.858153,5625.565159,7846.182985,2757.943793
595.858473,5033.400406,6661.853478,1991.848295
595.858794,5329.482782,5773.606348,1455.581446
595.859114,5699.585753,4663.297435,995.924147
595.859435,7179.997637,4885.359217,689.485948
595.859755,9770.718434,5773.606348,229.828649
595.860076,10732.986159,7105.977043,536.266849
595.860396,10807.006753,6587.832884,-306.438199
595.860717,10881.027347,4959.379811,-689.485948
595.861037,12065.356855,3627.009116,-689.485948
595.861358,12287.418637,2664.741391,153.219100
595.861678,13027.624579,2146.597232,-689.485948
595.861999,13397.727550,1850.514855,-2145.067394
595.862319,12731.542202,3182.885551,-2528.115143
595.862640,13027.624579,3923.091493,-1149.143247
595.862960,12435.459826,4885.359217,-1225.752797
595.863280,11843.295072,5033.400406,-1378.971896
595.863601,10140.821405,5551.544565,-995.924147
595.863921,8734.430116,5551.544565,-383.047749
595.864242,7698.141797,5255.462188,536.266849
595.864562,6883.915261,5551.544565,612.876398
595.864883,6439.791695,6143.709319,0.000000
595.865203,5995.668130,6365.771101,-842.705048
595.865524,5477.523971,8290.306550,-536.266849
595.865844,5255.462188,8956.491898,229.828649
595.866165,5255.462188,8882.471304,1608.800546
595.866485,5181.441594,7476.080014,2221.676944
595.866806,5477.523971,6587.832884,2298.286494
595.867126,5033.400406,5995.668130,1608.800546
595.867447,5847.626942,5699.585753,842.705048
595.867767,7550.100608,5403.503377,536.266849
595.868088,8956.491898,5551.544565,306.438199
595.868408,10288.862594,6291.750507,-766.095498
595.868729,11547.212695,6735.874072,-1608.800546
595.869049,12065.356855,6217.729913,-1302.362347
595.869370,12213.398043,5255.462188,76.609550
595.869690,12657.521608,4219.173869,766.095498
595.870011,12805.562797,4071.132681,0.000000
595.870331,11991.336260,4663.297435,-1608.800546
595.870652,11769.274478,5847.626942,-2911.162892
595.870972,11695.253884,5847.626942,-2987.772442
595.871293,11399.171507,5181.441594,-1915.238745
595.871613,11029.068536,4959.379811,0.000000
595.871933,9326.594869,4441.235652,536.266849
595.872254,7550.100608,5181.441594,766.095498
595.872574,6661.853478,5773.606348,995.924147
595.872895,6957.935855,5107.421000,919.314598
595.873215,7550.100608,4737.318029,459.657299
595.873536,7328.038826,5477.523971,0.000000
595.873856,6735.874072,7105.977043,-153.219100
595.874177,7105.977043,7846.182985,0.000000
595.874497,7624.121203,7846.182985,383.047749
595.874818,8216.285956,6217.729913,0.000000
595.875138,8438.347739,5181.441594,459.657299
595.875459,7624.121203,4663.297435,995.924147
595.875779,7772.162391,4071.132681,919.314598
595.876100,8956.491898,3478.967927,689.485948
595.876420,10881.027347,3034.844362,383.047749
595.876741,11251.130318,3404.947333,-459.657299
595.877061,10510.924376,4441.235652,-1608.800546
595.877382,10732.986159,5329.482782,-2068.457845
595.877702,12139.377449,6291.750507,-1838.629195
595.878023,12731.542202,5995.668130,-1302.362347
595.878343,12287.418637,5921.647536,-1225.752797
595.878664,11177.109724,5699.585753,-919.314598
595.878984,9844.739029,5181.441594,-76.609550
595.879305,9622.677246,4737.318029,766.095498
595.879625,9252.574275,4367.215058,1149.143247
595.879945,9104.533087,4367.215058,459.657299
595.880266,8660.409521,4811.338623,-153.219100
595.880586,7698.141797,5403.503377,-536.266849
595.880907,7772.162391,5181.441594,0.000000
595.881227,7476.080014,5551.544565,0.000000
595.881548,8068.244768,6587.832884,0.000000
595.881868,7994.224174,7698.141797,229.828649
595.882189,7550.100608,8438.347739,383.047749
595.882509,7698.141797,8586.388927,1378.971896
595.882830,7846.182985,7402.059420,1455.581446
595.883150,7698.141797,6513.812290,1762.019645
595.883471,7772.162391,5995.668130,1225.752797
595.883791,7846.182985,5181.441594,842.705048
595.884112,8290.306550,4367.215058,76.609550
595.884432,8882.471304,3775.050304,459.657299
595.884753,9474.636058,4367.215058,459.657299
595.885073,9844.739029,5551.544565,-459.657299
595.885394,10066.800811,7105.977043,-1072.533697
595.885714,10214.842000,7698.141797,-1149.143247
595.886035,9696.697840,7476.080014,-536.266849
595.886355,8438.347739,6735.874072,76.609550
595.886676,7179.997637,6661.853478,76.609550
595.886996,5699.585753,6513.812290,-995.924147
595.887317,5477.523971,6217.729913,-229.828649
595.887637,6513.812290,5699.585753,-76.609550
595.887958,5995.668130,5995.668130,0.000000
595.888278,5033.400406,7179.997637,383.047749
595.888598,4737.318029,8512.368333,1072.533697
595.888919,5033.400406,9696.697840,2068.457845
595.889239,5625.565159,9548.656652,2298.286494
595.889560,5403.503377,9252.574275,2451.505594
595.889880,5329.482782,8512.368333,2374.896044
595.890201,4959.379811,8216.285956,2221.676944
595.890521,4737.318029,8660.409521,2911.162892
595.890842,5033.400406,8882.471304,3447.429741
595.891162,6143.709319,9474.636058,3447.429741
595.891483,6217.729913,9474.636058,3677.258390
595.891803,6069.688724,9178.553681,3907.087040
595.892124,6587.832884,8512.368333,4290.134789
595.892444,6735.874072,7994.224174,4290.134789
595.892765,7179.997637,7772.162391,4673.182538
595.893085,7920.203579,8364.327145,5209.449386
595.893406,7994.224174,9104.533087,5515.887586
595.893726,7624.121203,9326.594869,6052.154434
595.894047,7624.121203,9326.594869,6128.763984
595.894367,7698.141797,8808.450710,6894.859482
595.894688,7328.038826,7920.203579,6971.469032
595.895008,7254.018232,6809.894666,6741.640382
595.895329,6587.832884,6365.771101,6281.983084
595.895649,6069.688724,5847.626942,6665.030833
595.895970,6143.709319,5477.523971,6894.859482
595.896290,6069.688724,6587.832884,7124.688131
595.896610,5921.647536,7994.224174,7048.078582
595.896931,6069.688724,9030.512492,7354.516781
595.897251,5699.585753,8734.430116,7124.688131
595.897572,4737.318029,8142.265362,7660.954980
595.897892,3849.070898,7031.956449,8427.050478
595.898213,3182.885551,6291.750507,8503.660028
595.898533,2516.700203,6069.688724,7814.174080
595.898854,1924.535449,6069.688724,7277.907231
595.899174,1702.473667,6365.771101,6971.469032
595.899495,1850.514855,6217.729913,6665.030833
595.899815,1850.514855,6587.832884,6665.030833
595.900136,2368.659014,6809.894666,7354.516781
595.900456,2738.761985,7476.080014,7201.297681
595.900777,3256.906145,8068.244768,7584.345430
595.901097,3552.988522,7994.224174,7507.735880
595.901418,3701.029710,7698.141797,6741.640382
595.901738,4145.153275,7179.997637,5975.544884
595.902059,3923.091493,6513.812290,5669.106685
595.902379,3997.112087,5551.544565,5439.278036
595.902700,3923.091493,4589.276840,5439.278036
595.903020,3478.967927,3775.050304,5515.887586
595.903341,2960.823768,3478.967927,4903.011187
595.903661,3997.112087,4293.194464,3600.648841
595.903982,4811.338623,5329.482782,3294.210641
595.904302,5551.544565,6883.915261,2604.724693
595.904623,6661.853478,9030.512492,2374.896044
595.904943,7105.977043,10510.924376,2451.505594
595.905263,7105.977043,10732.986159,3140.991542
595.905584,6957.935855,9844.739029,3600.648841
595.905904,7105.977043,9178.553681,4673.182538
595.906225,6143.709319,9770.718434,5669.106685
595.906545,4885.359217,10066.800811,6128.763984
595.906866,4737.318029,9104.533087,5362.668486
595.907186,3404.947333,6809.894666,4366.744339
595.907507,2664.741391,4293.194464,3064.381992
595.907827,2294.638420,1332.370696,2221.676944
595.908148,4367.215058,2368.659014,1532.190996
595.908468,5699.585753,6957.935855,689.485948
595.908789,6809.894666,11843.295072,-919.314598
595.909109,8956.491898,15766.386565,-2374.896044
595.909430,10807.006753,17246.798449,-536.266849
595.909750,10807.006753,17172.777854,2451.505594
595.910071,9326.594869,14804.118840,4290.134789
595.910391,7624.121203,10658.965565,4673.182538
595.910712,6957.935855,8734.430116,4979.620737
595.911032,4737.318029,7550.100608,6894.859482
595.911353,2738.761985,7105.977043,5745.716235
595.911673,2294.638420,6957.935855,3064.381992
595.911994,2738.761985,6513.812290,1838.629195
595.912314,3108.864956,5107.421000,2604.724693
595.912635,5181.441594,5699.585753,3600.648841
595.912955,7105.977043,8660.409521,3907.087040
595.913275,7105.977043,12361.439231,2987.772442
595.913596,6365.771101,14952.160028,1532.190996
595.913916,7550.100608,15914.427753,1072.533697
595.914237,9622.677246,15692.365970,2145.067394
595.914557,8438.347739,12657.521608,4673.182538
595.914878,5551.544565,7920.203579,5745.716235
595.915198,4737.318029,4737.318029,6052.154434
595.915519,1628.453072,4441.235652,5592.497135
595.915839,1776.494261,4959.379811,4673.182538
595.916160,4071.132681,6513.812290,3907.087040
595.916480,5403.503377,7105.977043,4213.525239
595.916801,4737.318029,6291.750507,6052.154434
595.917121,5995.668130,6883.915261,8656.879127
595.917442,6069.688724,9400.615463,9116.536426
595.917762,3849.070898,10955.047942,7124.688131
595.918083,3182.885551,9844.739029,4443.353888
595.918403,4441.235652,8660.409521,3524.039291
595.918724,5181.441594,6365.771101,4903.011187
595.919044,4885.359217,5255.462188,8656.879127
595.919365,5995.668130,6957.935855,9882.631924
595.919685,666.185348,8438.347739,7124.688131
595.920006,962.267725,9104.533087,5056.230287
595.920326,2368.659014,6513.812290,6128.763984
595.920647,3552.988522,2664.741391,7277.907231
595.920967,4441.235652,1924.535449,7967.393179
595.921288,7254.018232,5477.523971,8197.221829
595.921608,5255.462188,9622.677246,5822.325785
595.921928,3182.885551,10214.842000,4673.182538
595.922249,4885.359217,8364.327145,4749.792088
595.922569,5551.544565,5921.647536,5745.716235
595.922890,2368.659014,3997.112087,9039.926876
595.923210,3997.112087,4663.297435,11338.213370
595.923531,5847.626942,7772.162391,10189.070123
595.923851,2960.823768,10732.986159,6511.811733
595.924172,2664.741391,11399.171507,4213.525239
595.924492,5773.606348,10066.800811,4290.134789
595.924813,4885.359217,6735.874072,5898.935335
595.925133,3256.906145,3330.926739,7354.516781
595.925454,4145.153275,2072.576638,7124.688131
595.925774,4737.318029,4219.173869,6818.249932
595.926095,3923.091493,6513.812290,8120.612279
595.926415,4071.132681,7550.100608,5898.935335
595.926736,6661.853478,10288.862594,3907.087040
595.927056,4737.318029,11769.274478,3830.477490
595.927377,4293.194464,11029.068536,6052.154434
595.927697,7105.977043,9696.697840,7354.516781
595.928018,7402.059420,8290.306550,5362.668486
595.928338,4589.276840,5921.647536,2145.067394
595.928659,3849.070898,4589.276840,995.924147
595.928980,5847.626942,7105.977043,3753.867940
595.929300,5255.462188,9622.677246,7277.907231
595.929621,5773.606348,10066.800811,6281.983084
595.929941,6883.915261,10214.842000,3830.477490
595.930262,6587.832884,10881.027347,2451.505594
595.930582,4663.297435,10732.986159,4443.353888
595.930903,4219.173869,8882.471304,5975.544884
595.931223,4145.153275,7179.997637,4443.353888
595.931544,4515.256246,7920.203579,3753.867940
595.931865,3849.070898,9030.512492,3907.087040
595.932185,4367.215058,9622.677246,3370.820191
595.932506,4811.338623,10732.986159,2757.943793
595.932826,4959.379811,10955.047942,3677.258390
595.933147,5773.606348,10140.821405,4826.401637
595.933467,6957.935855,9474.636058,5362.668486
595.933788,5551.544565,9918.759623,4903.011187
595.934108,4737.318029,9622.677246,3830.477490
595.934429,5477.523971,9178.553681,1991.848295
595.934750,6883.915261,8882.471304,2987.772442
595.935070,6957.935855,8364.327145,5286.058936
595.935391,7254.018232,8068.244768,5209.449386
595.935711,6143.709319,8438.347739,2987.772442
595.936032,3775.050304,8956.491898,2681.334243
595.936352,3552.988522,7920.203579,3907.087040
595.936673,6661.853478,6513.812290,4596.572988
595.936993,7846.182985,6809.894666,4826.401637
595.937314,5551.544565,7402.059420,3983.696590
595.937635,4219.173869,8882.471304,3907.087040
595.937955,3849.070898,9918.759623,4290.134789
595.938276,2886.803174,8364.327145,5209.449386
595.938596,4737.318029,7476.080014,4443.353888
595.938917,5921.647536,7772.162391,3370.820191
595.939237,3552.988522,9400.615463,4136.915689
595.939558,2442.679609,9326.594869,5822.325785
595.939878,2812.782580,7402.059420,5439.278036
595.940199,2812.782580,5255.462188,4519.963438
595.940520,3627.009116,5255.462188,5439.278036
595.940840,4293.194464,8290.306550,5209.449386
595.941161,3997.112087,10436.903782,4749.792088
595.941481,3701.029710,9696.697840,4366.744339
595.941802,5921.647536,7031.956449,4749.792088
595.942122,7550.100608,6957.935855,6818.249932
595.942443,5847.626942,9178.553681,8120.612279
595.942763,3108.864956,10362.883188,5745.716235
595.943084,2960.823768,8734.430116,3983.696590
595.943405,5329.482782,6217.729913,5515.887586
595.943725,6439.791695,4441.235652,8656.879127
595.944046,5477.523971,4663.297435,7814.174080
595.944366,4219.173869,6957.935855,5515.887586
595.944687,2960.823768,7476.080014,3370.820191
595.945007,5033.400406,5847.626942,4366.744339
595.945328,8142.265362,6143.709319,6358.592633
595.945649,7846.182985,8512.368333,6665.030833
595.945969,5921.647536,10066.800811,5898.935335
595.946290,5477.523971,9030.512492,3753.867940
595.946610,4293.194464,7698.141797,3140.991542
595.946931,5773.606348,7994.224174,4749.792088
595.947251,7105.977043,8660.409521,5515.887586
595.947572,4293.194464,8956.491898,4596.572988
595.947892,3108.864956,9622.677246,5056.230287
595.948213,3627.009116,9474.636058,6358.592633
595.948534,3330.926739,7698.141797,6894.859482
595.948854,1406.391290,4441.235652,6511.811733
595.949175,2812.782580,7254.018232,5822.325785
595.949495,3034.844362,9992.780217,5132.839837
595.949816,2442.679609,10362.883188,4749.792088
595.950136,4737.318029,8364.327145,5515.887586
595.950457,7254.018232,10288.862594,6128.763984
595.950777,3997.112087,10881.027347,6818.249932
595.951098,2146.597232,9178.553681,5132.839837
595.951419,4293.194464,7698.141797,2681.334243
595.951739,6661.853478,7105.977043,3907.087040
595.952060,5255.462188,6513.812290,5515.887586
595.952380,6217.729913,8216.285956,5439.278036
595.952701,5329.482782,9178.553681,4213.525239
595.953021,5107.421000,9104.533087,4213.525239
595.953342,5773.606348,6217.729913,3600.648841
595.953662,7476.080014,6069.688724,3524.039291
595.953983,5477.523971,5255.462188,4519.963438
595.954304,6439.791695,4885.359217,4136.915689
595.954624,7254.018232,6883.915261,2451.505594
595.954945,6587.832884,9696.697840,2451.505594
595.955265,5847.626942,10955.047942,2068.457845
595.955586,6143.709319,8660.409521,1532.190996
595.955906,5699.585753,8438.347739,1302.362347
595.956227,5921.647536,9474.636058,3753.867940
595.956547,5625.565159,8438.347739,4366.744339
595.956868,5921.647536,7254.018232,3753.867940
595.957189,5477.523971,9622.677246,4290.134789
595.957509,2368.659014,9178.553681,4749.792088
595.957830,3404.947333,7179.997637,4673.182538
595.958150,4589.276840,7105.977043,4596.572988
595.958471,4145.153275,6735.874072,4596.572988
595.958791,3478.967927,5699.585753,4366.744339
595.959112,5181.441594,5329.482782,2374.896044
595.959433,5181.441594,6957.935855,2987.772442
595.959753,5847.626942,9992.780217,5822.325785
595.960074,7550.100608,12435.459826,4673.182538
595.960394,6143.709319,11769.274478,2068.457845
595.960715,5551.544565,10658.965565,3217.601092
595.961035,8660.409521,11547.212695,6435.202183
595.961356,7105.977043,9696.697840,5975.544884
595.961676,3182.885551,6291.750507,3600.648841
595.961997,3552.988522,4515.256246,2757.943793
595.962318,4737.318029,4515.256246,3370.820191
595.962638,2590.720797,4811.338623,4596.572988
595.962959,3701.029710,7402.059420,4136.915689
595.963279,4885.359217,9622.677246,3064.381992
595.963600,4589.276840,10362.883188,3370.820191
595.963920,5033.400406,10362.883188,3140.991542
595.964241,5255.462188,10066.800811,2757.943793
595.964561,4589.276840,9770.718434,3677.258390
595.964882,6661.853478,11251.130318,5362.668486
595.965203,4811.338623,11399.171507,4366.744339
595.965523,4515.256246,10881.027347,3677.258390
595.965844,5107.421000,9326.594869,6435.202183
595.966164,3923.091493,6143.709319,8044.002729
595.966485,1702.473667,3997.112087,7507.735880
595.966805,2664.741391,5255.462188,5669.106685
595.967126,2738.761985,5033.400406,4290.134789
595.967446,4663.297435,4959.379811,4060.306139
595.967767,6069.688724,7254.018232,5745.716235
595.968088,6735.874072,10584.944971,4826.401637
595.968408,6513.812290,11843.295072,3753.867940
595.968729,5847.626942,11251.130318,4903.011187
595.969049,5921.647536,8068.244768,5592.497135
595.969370,4441.235652,5625.565159,7201.297681
595.969690,5403.503377,6365.771101,6665.030833
595.970011,4441.235652,5699.585753,4136.915689
595.970331,5551.544565,6735.874072,1762.019645
595.970652,6143.709319,7179.997637,1378.971896
595.970973,5699.585753,5033.400406,1991.848295
595.971293,4441.235652,2368.659014,5056.230287
595.971614,6217.729913,5107.421000,6588.421283
595.971934,7105.977043,9252.574275,3983.696590
595.972255,5181.441594,11251.130318,2145.067394
595.972575,6957.935855,10955.047942,2911.162892
595.972896,8216.285956,9474.636058,5745.716235
595.973216,4811.338623,7698.141797,7890.783629
595.973537,2072.576638,6217.729913,7124.688131
595.973858,3775.050304,7328.038826,2834.553343
595.974178,2738.761985,7846.182985,2681.334243
595.974499,1554.432478,6069.688724,4290.134789
595.974819,4071.132681,3627.009116,4290.134789
595.975140,4071.132681,4737.318029,3830.477490
595.975460,3997.112087,8586.388927,4979.620737
595.975781,4737.318029,10436.903782,3524.039291
595.976102,5033.400406,10066.800811,153.219100
595.976422,7031.956449,8512.368333,1838.629195
595.976743,7550.100608,6143.709319,5132.839837
595.977063,9252.574275,9400.615463,5209.449386
595.977384,6513.812290,12879.583391,4213.525239
595.977704,3775.050304,13249.686362,1378.971896
595.978025,5995.668130,12065.356855,1532.190996
595.978345,6809.894666,9326.594869,5286.058936
595.978666,3552.988522,4737.318029,8197.221829
595.978987,3330.926739,3108.864956,7048.078582
595.979307,2664.741391,3478.967927,2374.896044
595.979628,444.123565,5255.462188,-766.095498
595.979948,4219.173869,8956.491898,1302.362347
595.980269,7031.956449,10214.842000,2987.772442
595.980589,5921.647536,10584.944971,4213.525239
595.980910,6365.771101,12213.398043,3907.087040
595.981230,6365.771101,12361.439231,1685.410096
595.981551,4515.256246,12213.398043,306.438199
595.981872,5847.626942,9622.677246,2911.162892
595.982192,7254.018232,8956.491898,4060.306139
595.982513,5551.544565,7772.162391,3600.648841
595.982833,2886.803174,7920.203579,2068.457845
595.983154,3108.864956,7476.080014,2298.286494
595.983474,3849.070898,5921.647536,4290.134789
595.983795,3182.885551,3034.844362,5745.716235
595.984115,3701.029710,740.205942,2834.553343
595.984436,4737.318029,1110.308913,0.000000
595.984757,5107.421000,5625.565159,0.000000
595.985077,6291.750507,10288.862594,-995.924147
595.985398,9474.636058,13397.727550,-2451.505594
595.985718,10510.924376,13767.830521,-2528.115143
595.986039,6513.812290,9918.759623,-1302.362347
595.986359,6957.935855,7254.018232,995.924147
595.986680,6883.915261,6883.915261,4136.915689
595.987000,5107.421000,8882.471304,6205.373534
595.987321,2220.617826,9178.553681,3524.039291
595.987642,2442.679609,10140.821405,-229.828649
595.987962,1850.514855,7550.100608,153.219100
595.988283,1628.453072,3256.906145,2374.896044
595.988603,1480.411884,1776.494261,2145.067394
595.988924,888.247130,814.226536,229.828649
595.989244,0.000000,3923.091493,0.000000
595.989565,5107.421000,9178.553681,1302.362347
595.989885,6809.894666,11769.274478,2068.457845
595.990206,6513.812290,14878.139434,1072.533697
595.990527,8586.388927,16136.489536,-2987.772442
595.990847,4737.318029,11695.253884,-5439.278036
595.991168,5033.400406,7624.121203,-2221.676944
595.991488,10955.047942,8660.409521,2911.162892
595.991809,9474.636058,10807.006753,2145.067394
595.992129,1406.391290,8142.265362,-2145.067394
595.992450,1628.453072,5921.647536,-2145.067394
595.992771,4367.215058,4737.318029,1991.848295
595.993091,6069.688724,4663.297435,5745.716235
595.993412,6883.915261,4959.379811,4596.572988
595.993732,5847.626942,8956.491898,-1149.143247
595.994053,3997.112087,9326.594869,-2068.457845
595.994373,3182.885551,4663.297435,0.000000
595.994694,7105.977043,3478.967927,-1378.971896
595.995014,10658.965565,9326.594869,-1685.410096
595.995335,5107.421000,13471.748144,-1225.752797
595.995656,5847.626942,14285.974681,-3447.429741
595.995976,9104.533087,14508.036463,-2145.067394
595.996297,9992.780217,15914.427753,3294.210641
595.996617,5181.441594,10807.006753,3753.867940
595.996938,1924.535449,6513.812290,0.000000
595.997258,592.164754,2220.617826,-2221.676944
595.997579,1554.432478,0.000000,1302.362347
595.997899,5921.647536,74.020594,3753.867940
595.998220,5033.400406,3404.947333,2451.505594
595.998541,1406.391290,9474.636058,689.485948
595.998861,3034.844362,13841.851115,-1532.190996
595.999182,5033.400406,11917.315666,-1455.581446
595.999502,4663.297435,6439.791695,1378.971896
595.999823,7105.977043,9326.594869,2681.334243
596.000143,6365.771101,11695.253884,-842.705048
596.000464,0.000000,10362.883188,-6205.373534
596.000784,2664.741391,8586.388927,-5439.278036
596.001105,7624.121203,9548.656652,-383.047749
596.001426,4737.318029,8586.388927,3217.601092
596.001746,3034.844362,9252.574275,1762.019645
596.002067,1628.453072,6735.874072,-2681.334243
596.002387,2664.741391,4663.297435,-2604.724693
596.002708,6365.771101,2368.659014,2451.505594
596.003028,6143.709319,2886.803174,2987.772442
596.003349,4885.359217,7105.977043,1532.190996
596.003669,6143.709319,11695.253884,536.266849
596.003990,6587.832884,11251.130318,-2221.676944
596.004311,5255.462188,8290.306550,-1838.629195
596.004631,9252.574275,9326.594869,2298.286494
596.004952,7920.203579,8734.430116,3217.601092
596.005272,3552.988522,6365.771101,-1378.971896
596.005593,3256.906145,6217.729913,-3907.087040
596.005913,5403.503377,8068.244768,-3294.210641
596.006234,6439.791695,8142.265362,0.000000
596.006555,5181.441594,6957.935855,306.438199
596.006875,7179.997637,8956.491898,-2451.505594
596.007196,7105.977043,10584.944971,-2374.896044
596.007516,3404.947333,5699.585753,459.657299
596.007837,3404.947333,592.164754,1608.800546
596.008157,5329.482782,4441.235652,1991.848295
596.008478,5625.565159,11843.295072,1149.143247
596.008798,3997.112087,11917.315666,-3447.429741
596.009119,4737.318029,9992.780217,-5975.544884
596.009440,6587.832884,10288.862594,-1915.238745
596.009760,4589.276840,8438.347739,2987.772442
596.010081,3108.864956,6661.853478,1608.800546
596.010401,3034.844362,7476.080014,-1149.143247
596.010722,2664.741391,9474.636058,-1532.190996
596.011042,4219.173869,9844.739029,-842.705048
596.011363,4663.297435,7772.162391,-766.095498
596.011683,3997.112087,8734.430116,0.000000
596.012004,6365.771101,10658.965565,1072.533697
596.012325,3330.926739,9400.615463,-1608.800546
596.012645,1924.535449,4811.338623,-4366.744339
596.012966,4219.173869,4737.318029,-612.876398
596.013286,7994.224174,8512.368333,3753.867940
596.013607,5921.647536,10288.862594,2911.162892
596.013927,5107.421000,11103.089130,-2221.676944
596.014248,6883.915261,11251.130318,-4979.620737
596.014568,8438.347739,10510.924376,-1378.971896
596.014889,7846.182985,7624.121203,3140.991542
596.015210,7846.182985,6217.729913,1991.848295
596.015530,6809.894666,6513.812290,-1302.362347
596.015851,7254.018232,8512.368333,-1915.238745
596.016171,4885.359217,7846.182985,-459.657299
596.016492,5699.585753,6217.729913,1302.362347
596.016812,9030.512492,9104.533087,2451.505594
596.017133,7624.121203,10955.047942,1685.410096
596.017453,3478.967927,9844.739029,-1378.971896
596.017774,3849.070898,7179.997637,-536.266849
596.018095,4589.276840,5329.482782,2911.162892
596.018415,5477.523971,6439.791695,3447.429741
596.018736,2368.659014,6439.791695,-306.438199
596.019056,518.144159,6143.709319,-4136.915689
596.019377,4367.215058,8808.450710,-2374.896044
596.019697,7105.977043,12731.542202,2987.772442
596.020018,4737.318029,12287.418637,2987.772442
596.020338,2368.659014,8438.347739,689.485948
596.020659,3330.926739,7994.224174,153.219100
596.020980,296.082377,6513.812290,2528.115143
596.021300,296.082377,4737.318029,2987.772442
596.021621,3256.906145,4737.318029,-383.047749
596.021941,1036.288319,6809.894666,-3677.258390
596.022262,2812.782580,8364.327145,-459.657299
596.022582,4885.359217,7994.224174,459.657299
596.022903,7846.182985,9474.636058,-383.047749
596.023224,4737.318029,9400.615463,0.000000
596.023544,4293.194464,8956.491898,1378.971896
596.023865,5551.544565,6217.729913,2068.457845
596.024185,7254.018232,5773.606348,2068.457845
596.024506,7328.038826,7105.977043,229.828649
596.024826,7550.100608,7772.162391,-3294.210641
596.025147,5773.606348,8660.409521,-3830.477490
596.025467,6069.688724,7772.162391,-383.047749
596.025788,7624.121203,6513.812290,2681.334243
596.026109,6735.874072,4071.132681,1072.533697
596.026429,4293.194464,3404.947333,-842.705048
596.026750,3627.009116,4663.297435,-1149.143247
596.027070,6957.935855,8808.450710,-1532.190996
596.027391,7994.224174,10658.965565,-1762.019645
596.027711,5255.462188,8660.409521,-3217.601092
596.028032,6883.915261,9474.636058,-2834.553343
596.028352,6513.812290,11621.233289,-919.314598
596.028673,3256.906145,9622.677246,459.657299
596.028994,3330.926739,6957.935855,0.000000
596.029314,2368.659014,6809.894666,-1991.848295
596.029635,1776.494261,9474.636058,-1072.533697
596.029955,1554.432478,9548.656652,2451.505594
596.030276,4071.132681,9104.533087,689.485948
596.030596,3034.844362,7328.038826,-4366.744339
596.030917,2516.700203,7105.977043,-4903.011187
596.031237,3775.050304,7846.182985,-3677.258390
596.031558,4811.338623,8290.306550,-1072.533697
596.031878,6439.791695,7105.977043,1225.752797
596.032199,7328.038826,8142.265362,-1225.752797
596.032519,7254.018232,10140.821405,-3907.087040
596.032840,5181.441594,11621.233289,-5439.278036
596.033160,8142.265362,13619.789333,-4366.744339
596.033481,9622.677246,12731.542202,-2068.457845
596.033801,6957.935855,8660.409521,-2604.724693
596.034122,7476.080014,5847.626942,-2068.457845
596.034442,4515.256246,5921.647536,306.438199
596.034763,4145.153275,8956.491898,995.924147
596.035083,5699.585753,9770.718434,-229.828649
596.035404,5403.503377,9474.636058,-3447.429741
596.035724,3923.091493,7476.080014,-1915.238745
596.036045,7031.956449,8290.306550,2987.772442
596.036365,7254.018232,9548.656652,2681.334243
596.036686,3478.967927,7994.224174,-689.485948
596.037006,4219.173869,8734.430116,-2298.286494
596.037327,5921.647536,10362.883188,-1455.581446
596.037647,4515.256246,9178.553681,689.485948
596.037968,5625.565159,8290.306550,2068.457845
596.038288,5847.626942,9400.615463,-536.266849
596.038609,4071.132681,9844.739029,-1378.971896
596.038929,2368.659014,6883.915261,153.219100
596.039250,6365.771101,7031.956449,-1532.190996
596.039570,6143.709319,7179.997637,-689.485948
596.039891,2738.761985,6883.915261,2298.286494
596.040211,5921.647536,8808.450710,3064.381992
596.040532,6365.771101,9548.656652,1915.238745
596.040852,2294.638420,7624.121203,1302.362347
596.041173,5181.441594,6809.894666,459.657299
596.041493,6069.688724,7698.141797,995.924147
596.041814,1406.391290,8216.285956,4596.572988
596.042134,2664.741391,6217.729913,4213.525239
596.042455,5255.462188,5477.523971,-612.876398
596.042775,3108.864956,6661.853478,-306.438199
596.043096,-518.144159,3775.050304,3677.258390
596.043416,5921.647536,5181.441594,995.924147
596.043737,6883.915261,7550.100608,-1149.143247
596.044057,2072.576638,9474.636058,-689.485948
596.044378,6513.812290,9918.759623,153.219100
596.044698,9030.512492,9992.780217,2374.896044
596.045019,4959.379811,7105.977043,5132.839837
596.045339,5995.668130,6291.750507,3753.867940
596.045660,6513.812290,6365.771101,-766.095498
596.045980,1332.370696,5921.647536,-1378.971896
596.046301,3552.988522,6143.709319,2757.943793
596.046621,7772.162391,5625.565159,3753.867940
596.046942,5773.606348,4071.132681,306.438199
596.047262,2368.659014,2886.803174,-1608.800546
596.047583,4959.379811,7476.080014,-2987.772442
596.047903,4737.318029,9326.594869,-842.705048
596.048224,4811.338623,7994.224174,1762.019645
596.048544,8956.491898,9400.615463,612.876398
596.048864,9548.656652,11991.336260,-1149.143247
596.049185,2220.617826,10807.006753,-383.047749
596.049505,2664.741391,8364.327145,-766.095498
596.049826,5181.441594,6143.709319,-3064.381992
596.050146,3034.844362,6365.771101,-2221.676944
596.050467,2590.720797,4737.318029,-306.438199
596.050787,2960.823768,5181.441594,-2834.553343
596.051108,4663.297435,7920.203579,-1685.410096
596.051428,3849.070898,10955.047942,0.000000
596.051749,4219.173869,9104.533087,-2604.724693
596.052069,7105.977043,9104.533087,-2068.457845
596.052390,5773.606348,9918.759623,-153.219100
596.052710,4885.359217,9326.594869,-612.876398
596.053031,7105.977043,8734.430116,-2911.162892
596.053351,4589.276840,8882.471304,-2987.772442
596.053672,3997.112087,9918.759623,-2145.067394
596.053992,6513.812290,12287.418637,-1455.581446
596.054313,6439.791695,12953.603985,-1915.238745
596.054633,3182.885551,8660.409521,-3447.429741
596.054954,4737.318029,5477.523971,-1762.019645
596.055274,7772.162391,7624.121203,-689.485948
596.055595,5181.441594,9918.759623,-2068.457845
596.055915,6661.853478,10288.862594,-3370.820191
596.056236,9918.759623,10140.821405,-3447.429741
596.056556,8364.327145,9548.656652,-306.438199
596.056877,9178.553681,11621.233289,3064.381992
596.057197,9030.512492,11029.068536,1608.800546
596.057518,5551.544565,8438.347739,-2451.505594
596.057838,5625.565159,7550.100608,-1378.971896
596.058159,5625.565159,7328.038826,-229.828649
596.058479,4663.297435,6513.812290,-1149.143247
596.058800,3478.967927,5255.462188,0.000000
596.059120,7624.121203,9178.553681,-1378.971896
596.059441,4515.256246,10732.986159,-1915.238745
596.059761,3701.029710,11917.315666,153.219100
596.060082,5477.523971,10140.821405,536.266849
596.060402,5181.441594,8068.244768,1455.581446
596.060723,1258.350101,4959.379811,1378.971896
596.061043,4737.318029,7105.977043,536.266849
596.061364,3997.112087,8216.285956,-842.705048
596.061684,1554.432478,7402.059420,536.266849
596.062005,3701.029710,6883.915261,1149.143247
596.062325,3552.988522,7624.121203,-919.314598
596.062646,888.247130,6587.832884,0.000000
596.062966,3182.885551,4515.256246,1532.190996
596.063287,6291.750507,6069.688724,383.047749
596.063607,5329.482782,8364.327145,0.000000
596.063928,2368.659014,6587.832884,-689.485948
596.064248,6069.688724,5995.668130,-1149.143247
596.064569,6217.729913,7402.059420,995.924147
596.064889,4589.276840,7698.141797,2451.505594
596.065210,6661.853478,7994.224174,-536.266849
596.065530,7550.100608,7105.977043,-612.876398
596.065851,4145.153275,5477.523971,2911.162892
596.066171,6291.750507,4367.215058,3907.087040
596.066492,5995.668130,4589.276840,536.266849
596.066812,2072.576638,4663.297435,-1225.752797
596.067133,5329.482782,7994.224174,306.438199
596.067453,7772.162391,10584.944971,995.924147
596.067774,5403.503377,9992.780217,612.876398
596.068094,4145.153275,8734.430116,1685.410096
596.068415,5699.585753,9400.615463,2528.115143
596.068735,3997.112087,9400.615463,3677.258390
596.069056,2294.638420,7328.038826,2757.943793
596.069376,2368.659014,6291.750507,0.000000
596.069697,5551.544565,7402.059420,995.924147
596.070017,3849.070898,8586.388927,3524.039291
596.070338,2442.679609,7624.121203,766.095498
596.070658,3478.967927,8586.388927,-3140.991542
596.070979,5255.462188,9696.697840,0.000000
596.071299,6217.729913,10732.986159,2911.162892
596.071620,6957.935855,8956.491898,3294.210641
596.071940,5477.523971,9918.759623,0.000000
596.072261,4737.318029,11029.068536,-1149.143247
596.072581,3404.947333,8734.430116,919.314598
596.072902,4885.359217,7105.977043,1532.190996
596.073222,6513.812290,6217.729913,306.438199
596.073543,4145.153275,5625.565159,-2068.457845
596.073863,2442.679609,5847.626942,-3600.648841
596.074184,3330.926739,4811.338623,-1685.410096
596.074504,5995.668130,5995.668130,612.876398
596.074825,8734.430116,7846.182985,536.266849
596.075145,7550.100608,8956.491898,-3217.601092
596.075466,7550.100608,10214.842000,-5209.449386
596.075786,6365.771101,10288.862594,-3447.429741
596.076107,9400.615463,11399.171507,-1608.800546
596.076427,10066.800811,10732.986159,0.000000
596.076748,5403.503377,7105.977043,612.876398
596.077068,4071.132681,5699.585753,0.000000
596.077389,4885.359217,7179.997637,-76.609550
596.077709,1110.308913,7105.977043,0.000000
596.078030,1924.535449,6513.812290,76.609550
596.078350,6069.688724,8660.409521,-306.438199
596.078671,2442.679609,7920.203579,0.000000
596.078991,1924.535449,9474.636058,76.609550
596.079312,4737.318029,9326.594869,689.485948
596.079632,4219.173869,9696.697840,536.266849
596.079953,4145.153275,9622.677246,1532.190996
596.080273,5995.668130,10732.986159,-842.705048
596.080594,5995.668130,10955.047942,-2528.115143
596.080914,6069.688724,10214.842000,842.705048
596.081235,7920.203579,10732.986159,3064.381992
596.081555,6143.709319,8882.471304,76.609550
596.081876,3849.070898,6587.832884,-2834.553343
596.082196,7105.977043,6143.709319,-842.705048
596.082517,5773.606348,6069.688724,1455.581446
596.082837,4219.173869,6217.729913,3064.381992
596.083158,6365.771101,8808.450710,2451.505594
596.083478,6291.750507,9622.677246,-1608.800546
596.083799,3701.029710,7105.977043,-1915.238745
596.084119,4367.215058,6809.894666,-459.657299
596.084440,7105.977043,10288.862594,306.438199
596.084760,4959.379811,10288.862594,2834.553343
596.085081,4589.276840,8882.471304,1302.362347
596.085401,6069.688724,9326.594869,-1838.629195
596.085722,4811.338623,10066.800811,612.876398
596.086042,1776.494261,6587.832884,2528.115143
596.086363,3775.050304,2886.803174,919.314598
596.086683,4367.215058,4293.194464,689.485948
596.087004,4663.297435,6809.894666,1762.019645
596.087324,4219.173869,6439.791695,0.000000
596.087645,3330.926739,4811.338623,-229.828649
596.087965,5477.523971,7698.141797,919.314598
596.088286,5995.668130,8512.368333,1072.533697
596.088606,3627.009116,6069.688724,-383.047749
596.088927,5107.421000,5329.482782,-153.219100
596.089247,6809.894666,6587.832884,76.609550
596.089568,5403.503377,7624.121203,-1762.019645
596.089888,3256.906145,5551.544565,-3217.601092
596.090209,5699.585753,7105.977043,-3217.601092
596.090529,8142.265362,9696.697840,-229.828649
596.090850,5995.668130,8512.368333,1915.238745
596.091170,4515.256246,6143.709319,-689.485948
596.091491,4959.379811,7476.080014,-1838.629195
596.091811,4737.318029,9622.677246,1532.190996
596.092132,4071.132681,8660.409521,1455.581446
596.092452,2294.638420,5625.565159,-2757.943793
596.092773,4367.215058,5921.647536,-1378.971896
596.093093,3108.864956,7254.018232,1991.848295
596.093414,5181.441594,10584.944971,766.095498
596.093734,2220.617826,10140.821405,-2528.115143
596.094055,3330.926739,9474.636058,-2528.115143
596.094375,6439.791695,8808.450710,229.828649
596.094696,6735.874072,9326.594869,2451.505594
596.095016,4219.173869,10362.883188,919.314598
596.095337,6143.709319,13027.624579,-2068.457845
596.095657,7254.018232,14952.160028,-3217.601092
596.095978,5477.523971,12731.542202,0.000000
596.096298,5995.668130,9104.533087,1991.848295
596.096619,5625.565159,5995.668130,919.314598
596.096939,3478.967927,5107.421000,536.266849
596.097260,1036.288319,5107.421000,1532.190996
596.097580,5921.647536,8882.471304,-1072.533697
596.097901,6587.832884,9400.615463,-2834.553343
596.098221,5181.441594,9696.697840,-1685.410096
596.098542,7254.018232,10584.944971,1072.533697
596.098862,7624.121203,9548.656652,2068.457845
596.099183,4663.297435,6809.894666,0.000000
596.099503,8512.368333,7846.182985,-2834.553343
596.099824,7105.977043,8660.409521,-3753.867940
596.100144,5625.565159,9696.697840,-1302.362347
596.100465,7402.059420,9992.780217,1685.410096
596.100785,7550.100608,9030.512492,536.266849
596.101106,3849.070898,5477.523971,-842.705048
596.101426,3478.967927,4367.215058,-1991.848295
596.101747,3627.009116,4145.153275,-842.705048
596.102067,2664.741391,4515.256246,995.924147
596.102388,5625.565159,4959.379811,1685.410096
596.102708,4515.256246,6735.874072,-995.924147
596.103029,3034.844362,7328.038826,-1685.410096
596.103349,5181.441594,9992.780217,1455.581446
596.103670,5773.606348,11029.068536,76.609550
596.103990,3997.112087,8512.368333,-1149.143247
596.104311,3923.091493,6809.894666,-1072.533697
596.104631,5033.400406,7179.997637,-306.438199
596.104952,3108.864956,7550.100608,612.876398
596.105272,1628.453072,7254.018232,919.314598
596.105593,3627.009116,7846.182985,-2604.724693
596.105913,4811.338623,7920.203579,-2451.505594
596.106234,4441.235652,6735.874072,766.095498
596.106554,5921.647536,5255.462188,1762.019645
596.106875,4441.235652,5255.462188,1149.143247
596.107195,3404.947333,6143.709319,689.485948
596.107515,5329.482782,8068.244768,0.000000
596.107836,8512.368333,10881.027347,76.609550
596.108156,8068.244768,12139.377449,1608.800546
596.108477,7031.956449,10362.883188,-459.657299
596.108797,5255.462188,9178.553681,-1225.752797
596.109118,3182.885551,7846.182985,306.438199
596.109438,3256.906145,5921.647536,1302.362347
596.109759,5847.626942,6883.915261,-536.266849
596.110079,3923.091493,6587.832884,-1302.362347
596.110400,2368.659014,7179.997637,-1838.629195
596.110720,4885.359217,9400.615463,0.000000
596.111041,5995.668130,11991.336260,1762.019645
596.111361,3404.947333,9844.739029,536.266849
596.111682,5773.606348,7105.977043,-2068.457845
596.112002,5921.647536,5625.565159,-2068.457845
596.112323,2516.700203,5477.523971,1072.533697
596.112643,3775.050304,7698.141797,76.609550
596.112964,6957.935855,11547.212695,-2451.505594
596.113284,5403.503377,13027.624579,-3140.991542
596.113605,6069.688724,11547.212695,-2451.505594
596.113925,6291.750507,8216.285956,-1915.238745
596.114246,2960.823768,3923.091493,153.219100
596.114566,3701.029710,4737.318029,1455.581446
596.114887,4737.318029,7328.038826,-536.266849
596.115207,3775.050304,9252.574275,-2834.553343
596.115528,6069.688724,11177.109724,-2068.457845
596.115848,7698.141797,11621.233289,-766.095498
596.116169,4219.173869,9030.512492,0.000000
596.116489,4811.338623,8586.388927,2528.115143
596.116810,7254.018232,9992.780217,2068.457845
596.117130,3404.947333,8808.450710,0.000000
596.117451,3923.091493,8808.450710,766.095498
596.117771,5847.626942,8882.471304,1685.410096
596.118092,3034.844362,6365.771101,1302.362347
596.118412,2960.823768,3701.029710,229.828649
596.118733,6069.688724,4219.173869,-3600.648841
596.119053,6143.709319,8660.409521,-4136.915689
596.119374,5847.626942,10362.883188,766.095498
596.119694,7179.997637,9622.677246,1762.019645
596.120015,10066.800811,10510.924376,-306.438199
596.120335,7179.997637,12879.583391,766.095498
596.120656,3034.844362,8882.471304,0.000000
596.120976,5477.523971,5625.565159,153.219100
596.121297,5773.606348,5625.565159,1685.410096
596.121617,2516.700203,4441.235652,842.705048
596.121938,4663.297435,5921.647536,-1608.800546
596.122258,4515.256246,8882.471304,-1915.238745
596.122579,1036.288319,10288.862594,919.314598
596.122899,4071.132681,8808.450710,2451.505594
596.123220,6291.750507,5329.482782,229.828649
596.123540,2664.741391,4219.173869,536.266849
596.123861,2812.782580,5847.626942,2298.286494
596.124181,5255.462188,9474.636058,0.000000
596.124502,3330.926739,10436.903782,-2374.896044
596.124822,4367.215058,10436.903782,-1532.190996
596.125143,8586.388927,11843.295072,383.047749
596.125463,6217.729913,10214.842000,2221.676944
596.125784,1332.370696,5699.585753,1762.019645
596.126104,2368.659014,2812.782580,-536.266849
596.126425,3182.885551,3997.112087,-1149.143247
596.126745,1554.432478,4589.276840,306.438199
596.127066,3330.926739,5773.606348,0.000000
596.127386,6883.915261,8364.327145,-2221.676944
596.127707,5181.441594,8808.450710,-2528.115143
596.128027,6217.729913,10140.821405,-1149.143247
596.128348,7994.224174,9770.718434,0.000000
596.128668,6735.874072,7994.224174,689.485948
596.128989,6217.729913,6587.832884,766.095498
596.129309,5181.441594,7105.977043,-459.657299
596.129629,3108.864956,7994.224174,-1149.143247
596.129950,4737.318029,8956.491898,229.828649
596.130270,6883.915261,10214.842000,-1532.190996
596.130591,5329.482782,8808.450710,-4366.744339
596.130911,5107.421000,8438.347739,-3677.258390
596.131232,5847.626942,6661.853478,76.609550
596.131552,3478.967927,5921.647536,3140.991542
596.131872,5551.544565,7772.162391,4290.134789
596.132193,5921.647536,9548.656652,0.000000
596.132513,5477.523971,10362.883188,-3753.867940
596.132834,6661.853478,12287.418637,-1072.533697
596.133154,7254.018232,13323.706956,2298.286494
596.133475,5477.523971,9104.533087,1455.581446
596.133795,4663.297435,6217.729913,-306.438199
596.134116,5255.462188,6069.688724,-919.314598
596.134436,2960.823768,6883.915261,-153.219100
596.134757,4219.173869,8142.265362,536.266849
596.135077,6661.853478,9030.512492,-2451.505594
596.135398,6291.750507,9992.780217,-3447.429741
596.135718,7105.977043,11177.109724,-153.219100
596.136039,6439.791695,10140.821405,1762.019645
596.136359,5181.441594,6883.915261,1072.533697
596.136680,6661.853478,5033.400406,612.876398
596.137000,5477.523971,5625.565159,-2145.067394
596.137321,3775.050304,6735.874072,-4673.182538
596.137641,4737.318029,10732.986159,-3600.648841
596.137962,7402.059420,12953.603985,1685.410096
596.138282,4071.132681,8808.450710,1915.238745
596.138603,3997.112087,5847.626942,-383.047749
596.138923,2590.720797,6957.935855,-1072.533697
596.139243,1258.350101,8216.285956,612.876398
596.139564,3108.864956,8216.285956,1838.629195
596.139884,4293.194464,5699.585753,689.485948
596.140205,2886.803174,5773.606348,-689.485948
596.140525,4219.173869,8956.491898,1149.143247
596.140846,2590.720797,9178.553681,766.095498
596.141166,148.041188,5699.585753,-1225.752797
596.141487,5477.523971,6143.709319,-689.485948
596.141807,6439.791695,7698.141797,-995.924147
596.142128,3923.091493,6661.853478,-995.924147
596.142448,5107.421000,6513.812290,766.095498
596.142769,8290.306550,10436.903782,-153.219100
596.143089,5403.503377,10807.006753,-1455.581446
596.143410,6069.688724,9770.718434,-1608.800546
596.143730,8586.388927,8512.368333,-995.924147
596.144051,7402.059420,7328.038826,2528.115143
596.144371,5033.400406,4737.318029,5439.278036
596.144692,6217.729913,4441.235652,1608.800546
596.145012,4441.235652,5551.544565,-2757.943793
596.145333,2812.782580,6809.894666,-612.876398
596.145653,7994.224174,9770.718434,3600.648841
596.145974,9030.512492,10140.821405,2987.772442
596.146294,4515.256246,8142.265362,2145.067394
596.146615,4811.338623,8586.388927,229.828649
596.146935,4515.256246,9992.780217,0.000000
596.147255,1776.494261,8512.368333,1072.533697
596.147576,3478.967927,6217.729913,-76.609550
596.147896,8216.285956,10658.965565,-1608.800546
596.148217,3478.967927,11251.130318,689.485948
596.148537,1036.288319,9918.759623,1838.629195
596.148858,4145.153275,8734.430116,383.047749
596.149178,4441.235652,8290.306550,1455.581446
596.149499,1184.329507,6661.853478,2987.772442
596.149819,3478.967927,4737.318029,842.705048
596.150140,4515.256246,7402.059420,-306.438199
596.150460,4071.132681,10362.883188,1608.800546
596.150781,4959.379811,10288.862594,-229.828649
596.151101,4441.235652,6587.832884,-3294.210641
596.151422,4515.256246,5847.626942,-1378.971896
596.151742,5625.565159,7105.977043,1608.800546
596.152063,8142.265362,7624.121203,-919.314598
596.152383,6291.750507,7698.141797,-3217.601092
596.152704,6513.812290,9326.594869,-1302.362347
596.153024,8734.430116,9326.594869,-383.047749
596.153345,7031.956449,6365.771101,612.876398
596.153665,4885.359217,4441.235652,383.047749
596.153986,7105.977043,6069.688724,-383.047749
596.154306,6143.709319,7550.100608,-153.219100
596.154626,4663.297435,7328.038826,-842.705048
596.154947,6291.750507,6735.874072,-1455.581446
596.155267,6291.750507,7476.080014,-1225.752797
596.155588,4515.256246,7254.018232,383.047749
596.155908,3775.050304,7105.977043,1225.752797
596.156229,4589.276840,8438.347739,-612.876398
596.156549,4737.318029,9400.615463,-1225.752797
596.156870,2738.761985,6291.750507,-3524.039291
596.157190,4515.256246,8660.409521,-4366.744339
596.157511,5921.647536,10584.944971,-612.876398
596.157831,4293.194464,10732.986159,-459.657299
596.158152,4367.215058,8586.388927,-2987.772442
596.158472,3627.009116,8438.347739,-2451.505594
596.158793,2220.617826,8956.491898,383.047749
596.159113,3182.885551,8956.491898,1915.238745
596.159434,4145.153275,8438.347739,-919.314598
596.159754,2368.659014,8438.347739,-2757.943793
596.160075,5107.421000,9992.780217,-1532.190996
596.160395,5033.400406,9770.718434,1838.629195
596.160716,2368.659014,8586.388927,1455.581446
596.161036,3627.009116,8068.244768,766.095498
596.161357,6587.832884,10214.842000,-1149.143247
596.161677,4737.318029,9918.759623,-2221.676944
596.161997,4219.173869,9178.553681,-995.924147
596.162318,8142.265362,10881.027347,842.705048
596.162638,9104.533087,12583.501014,1455.581446
596.162959,4589.276840,10288.862594,1608.800546
596.163279,6143.709319,10658.965565,842.705048
596.163600,7105.977043,10584.944971,536.266849
596.163920,3256.906145,6883.915261,1915.238745
596.164241,4441.235652,4145.153275,1915.238745
596.164561,8364.327145,5181.441594,842.705048
596.164882,6365.771101,9696.697840,229.828649
596.165202,4441.235652,8586.388927,-306.438199
596.165523,6365.771101,7328.038826,-1378.971896
596.165843,7698.141797,5625.565159,2757.943793
596.166164,6661.853478,5403.503377,5209.449386
596.166484,6735.874072,5181.441594,1685.410096
596.166805,5107.421000,5699.585753,-4290.134789
596.167125,5403.503377,7328.038826,-2911.162892
596.167446,9770.718434,9326.594869,766.095498
596.167766,7994.224174,6735.874072,1608.800546
596.168087,3182.885551,4145.153275,-919.314598
596.168407,4441.235652,4515.256246,-1762.019645
596.168728,3849.070898,5181.441594,-229.828649
596.169048,3775.050304,5921.647536,1532.190996
596.169368,3997.112087,5773.606348,383.047749
596.169689,5255.462188,7254.018232,-1991.848295
596.170009,2960.823768,8068.244768,-766.095498
596.170330,-518.144159,7031.956449,2068.457845
596.170650,1036.288319,4663.297435,1455.581446
596.170971,2664.741391,5921.647536,-766.095498
596.171291,3701.029710,8512.368333,-1225.752797
596.171612,2960.823768,9992.780217,-919.314598
596.171932,3330.926739,10140.821405,0.000000
596.172253,4959.379811,11547.212695,1838.629195
596.172573,2294.638420,10288.862594,3140.991542
596.172894,1110.308913,7550.100608,842.705048
596.173214,3775.050304,6735.874072,-612.876398
596.173535,3256.906145,5921.647536,-459.657299
596.173855,4367.215058,6217.729913,-459.657299
596.174176,7846.182985,9030.512492,-306.438199
596.174496,6143.709319,10881.027347,-2374.896044
596.174817,5773.606348,11029.068536,153.219100
596.175137,9400.615463,11621.233289,1072.533697
596.175458,8734.430116,9622.677246,-383.047749
596.175778,7476.080014,8512.368333,-459.657299
596.176099,8142.265362,8660.409521,306.438199
596.176419,6957.935855,10214.842000,-1685.410096
596.176739,6291.750507,10584.944971,-766.095498
596.177060,5921.647536,8438.347739,-1302.362347
596.177380,7179.997637,6957.935855,-2451.505594
596.177701,5329.482782,7105.977043,-995.924147
596.178021,4737.318029,9326.594869,306.438199
596.178342,5847.626942,7476.080014,-1608.800546
596.178662,4737.318029,6661.853478,-2068.457845
596.178983,6217.729913,9252.574275,-459.657299
596.179303,5921.647536,10066.800811,689.485948
596.179624,5033.400406,9696.697840,-153.219100
596.179944,5847.626942,9252.574275,-1532.190996
596.180265,5255.462188,7994.224174,-2221.676944
596.180585,4441.235652,8586.388927,-689.485948
596.180906,3775.050304,7698.141797,153.219100
596.181226,1998.556043,4737.318029,-1685.410096
596.181547,2442.679609,4737.318029,-2757.943793
596.181867,2590.720797,6439.791695,-2604.724693
596.182188,2812.782580,9770.718434,-1378.971896
596.182508,4737.318029,10066.800811,0.000000
596.182829,4367.215058,9104.533087,-1532.190996
596.183149,4145.153275,7550.100608,-2068.457845
596.183470,4219.173869,7254.018232,-1225.752797
596.183790,3849.070898,6957.935855,-383.047749
596.184110,5329.482782,9178.553681,-153.219100
596.184431,5625.565159,9326.594869,-1225.752797
596.184751,4589.276840,7328.038826,-2604.724693
596.185072,6439.791695,6957.935855,-1838.629195
596.185392,5551.544565,6439.791695,-383.047749
596.185713,6513.812290,7105.977043,919.314598
596.186033,6439.791695,8364.327145,-383.047749
596.186354,5921.647536,9474.636058,-2068.457845
596.186674,6809.894666,9178.553681,0.000000
596.186995,7328.038826,7994.224174,2681.334243
596.187315,7105.977043,8660.409521,2451.505594
596.187636,4885.359217,9622.677246,306.438199
596.187956,4663.297435,9252.574275,-689.485948
596.188277,5995.668130,8142.265362,-153.219100
596.188597,4145.153275,7920.203579,2374.896044
596.188918,4441.235652,9474.636058,3064.381992
596.189238,3404.947333,8290.306550,919.314598
596.189559,2664.741391,7328.038826,-1378.971896
596.189879,3701.029710,7402.059420,-995.924147
596.190200,3627.009116,8290.306550,383.047749
596.190520,3701.029710,9696.697840,76.609550
596.190841,4589.276840,9178.553681,689.485948
596.191161,3849.070898,8586.388927,766.095498
596.191481,4145.153275,8216.285956,153.219100
596.191802,5699.585753,9178.553681,0.000000
596.192122,2812.782580,7624.121203,0.000000
596.192443,3330.926739,7105.977043,1072.533697
596.192763,5847.626942,7994.224174,1225.752797
596.193084,4293.194464,7105.977043,-383.047749
596.193404,2590.720797,5033.400406,-1378.971896
596.193725,4959.379811,4959.379811,-306.438199
596.194045,5329.482782,5773.606348,306.438199
596.194366,3849.070898,6291.750507,-1608.800546
596.194686,4293.194464,5551.544565,-3600.648841
596.195007,6513.812290,5403.503377,-4060.306139
596.195327,6439.791695,6735.874072,-612.876398
596.195648,7179.997637,8956.491898,1072.533697
596.195968,6069.688724,8438.347739,-4213.525239
596.196289,6513.812290,7179.997637,-5898.935335
596.196609,6143.709319,7476.080014,-3294.210641
596.196930,6883.915261,8586.388927,-919.314598
596.197250,6661.853478,9030.512492,612.876398
596.197571,4071.132681,7105.977043,-1225.752797
596.197891,5847.626942,7846.182985,-4136.915689
596.198212,3256.906145,6143.709319,-2834.553343
596.198532,2072.576638,5699.585753,-766.095498
596.198852,5551.544565,7105.977043,0.000000
596.199173,5995.668130,9178.553681,-2757.943793
596.199493,4441.235652,8142.265362,-3140.991542
596.199814,5403.503377,8586.388927,-3294.210641
596.200134,6735.874072,9252.574275,-2604.724693
596.200455,4959.379811,10436.903782,-995.924147
596.200775,3404.947333,8734.430116,-2145.067394
596.201096,6217.729913,9252.574275,-4826.401637
596.201416,6661.853478,12139.377449,-4519.963438
596.201737,3849.070898,10658.965565,-2834.553343
596.202057,3775.050304,10140.821405,-4519.963438
596.202378,2886.803174,8290.306550,-4903.011187
596.202698,2738.761985,8438.347739,-2528.115143
596.203019,4959.379811,8956.491898,-689.485948
596.203339,7624.121203,10214.842000,-1915.238745
596.203660,4515.256246,10955.047942,-3140.991542
596.203980,3108.864956,10955.047942,-2757.943793
596.204301,4589.276840,9474.636058,-2068.457845
596.204621,5255.462188,7624.121203,-1149.143247
596.204942,5329.482782,7105.977043,-1838.629195
596.205262,7550.100608,10436.903782,-4213.525239
596.205583,4737.318029,11029.068536,-6894.859482
596.205903,2664.741391,8364.327145,-7277.907231
596.206224,5921.647536,5107.421000,-5898.935335
596.206544,8438.347739,5033.400406,-4673.182538
596.206864,6587.832884,7476.080014,-2987.772442
596.207185,6957.935855,9918.759623,-3447.429741
596.207505,7698.141797,10214.842000,-6128.763984
596.207826,5255.462188,7402.059420,-4596.572988
596.208146,6365.771101,3775.050304,-2221.676944
596.208467,6735.874072,1702.473667,-2451.505594
596.208787,3923.091493,4367.215058,-5132.839837
596.209108,3330.926739,7550.100608,-7354.516781
596.209428,4441.235652,6809.894666,-8503.660028
596.209749,5329.482782,4663.297435,-6511.811733
596.210069,6439.791695,5847.626942,-2528.115143
596.210390,4959.379811,8808.450710,-1072.533697
596.210710,1702.473667,10288.862594,-4443.353888
596.211031,2072.576638,8438.347739,-7814.174080
596.211351,4737.318029,6661.853478,-7660.954980
596.211672,6143.709319,6217.729913,-4519.963438
596.211992,4515.256246,6365.771101,-4673.182538
596.212313,2738.761985,8290.306550,-8656.879127
596.212633,3775.050304,9844.739029,-7431.126331
596.212954,4663.297435,8956.491898,-4213.525239
596.213274,4737.318029,7772.162391,-2451.505594
596.213595,3404.947333,5847.626942,-2221.676944
596.213915,4293.194464,6513.812290,-2451.505594
596.214235,4737.318029,9696.697840,-3600.648841
596.214556,3997.112087,10214.842000,-5286.058936
596.214876,4959.379811,9844.739029,-7660.954980
596.215197,6883.915261,9474.636058,-8273.831378
596.215517,5921.647536,9326.594869,-6511.811733
596.215838,5403.503377,8956.491898,-3907.087040
596.216158,7772.162391,8660.409521,-5669.106685
596.216479,7105.977043,11029.068536,-6588.421283
596.216799,5107.421000,12139.377449,-3677.258390
596.217120,6957.935855,11843.295072,-1608.800546
596.217440,6809.894666,10658.965565,-3370.820191
596.217761,3256.906145,7105.977043,-4213.525239
596.218081,4811.338623,4737.318029,-4596.572988
596.218402,5255.462188,4219.173869,-5898.935335
596.218722,3182.885551,7105.977043,-6741.640382
596.219043,4737.318029,8808.450710,-6052.154434
596.219363,5255.462188,9474.636058,-7201.297681
596.219684,5403.503377,9548.656652,-5975.544884
596.220004,5995.668130,9844.739029,-5209.449386
596.220325,6735.874072,11473.192101,-4903.011187
596.220645,5329.482782,10510.924376,-5056.230287
596.220966,4441.235652,7920.203579,-6358.592633
596.221286,6069.688724,7031.956449,-6818.249932
596.221606,5477.523971,7031.956449,-4826.401637
596.221927,2886.803174,6439.791695,-3294.210641
596.222247,3849.070898,5107.421000,-5209.449386
596.222568,2738.761985,4293.194464,-6818.249932
596.222888,3701.029710,4663.297435,-6281.983084
596.223209,6365.771101,6439.791695,-4519.963438
596.223529,4663.297435,8364.327145,-3600.648841
596.223850,4441.235652,9400.615463,-4749.792088
596.224170,4959.379811,9400.615463,-5515.887586
596.224491,4737.318029,7994.224174,-5132.839837
596.224811,5403.503377,8216.285956,-3217.601092
596.225132,5995.668130,8956.491898,-3907.087040
596.225452,5403.503377,9474.636058,-7048.078582
596.225773,3404.947333,7624.121203,-6358.592633
596.226093,3034.844362,4959.379811,-5439.278036
596.226414,5255.462188,5625.565159,-4979.620737
596.226734,5255.462188,7105.977043,-3907.087040
596.227055,3775.050304,9400.615463,-4366.744339
596.227375,6883.915261,11251.130318,-4519.963438
596.227696,5921.647536,9104.533087,-4290.134789
596.228016,5477.523971,7105.977043,-3064.381992
596.228337,5107.421000,6587.832884,-2528.115143
596.228657,5403.503377,7031.956449,-3677.258390
596.228977,4589.276840,7550.100608,-5515.887586
596.229298,4737.318029,7994.224174,-6818.249932
596.229618,6661.853478,8512.368333,-5132.839837
596.229939,6291.750507,7994.224174,-2681.334243
596.230259,4219.173869,5847.626942,-3140.991542
596.230580,6143.709319,7402.059420,-6052.154434
596.230900,5699.585753,9622.677246,-7048.078582
596.231221,4589.276840,9696.697840,-7354.516781
596.231541,6365.771101,8290.306550,-6052.154434
596.231862,7105.977043,9474.636058,-2987.772442
596.232183,2886.803174,8438.347739,-2374.896044
596.232503,2368.659014,7254.018232,-4443.353888
596.232824,3256.906145,7402.059420,-6128.763984
596.233144,2220.617826,7550.100608,-5669.106685
596.233465,3256.906145,7254.018232,-4136.915689
596.233786,4441.235652,7031.956449,-4826.401637
596.234106,2886.803174,6735.874072,-5975.544884
596.234427,3923.091493,7994.224174,-4519.963438
596.234747,5551.544565,9770.718434,-5286.058936
596.235068,4071.132681,8808.450710,-7431.126331
596.235389,6661.853478,9030.512492,-7201.297681
596.235709,8512.368333,9622.677246,-7354.516781
596.236030,7254.018232,9252.574275,-6358.592633
596.236350,5181.441594,8438.347739,-3447.429741
596.236671,7254.018232,8734.430116,-4060.306139
596.236992,5551.544565,7402.059420,-3983.696590
596.237312,4737.318029,5995.668130,-3907.087040
596.237633,5329.482782,6513.812290,-5975.544884
596.237954,5773.606348,6513.812290,-5362.668486
596.238274,4515.256246,4737.318029,-3983.696590
596.238595,6439.791695,5625.565159,-4519.963438
596.238915,4737.318029,8216.285956,-6205.373534
596.239236,4589.276840,10658.965565,-6741.640382
596.239557,6069.688724,11843.295072,-7048.078582
596.239877,6291.750507,11325.150913,-6281.983084
596.240198,4589.276840,10066.800811,-4673.182538
596.240518,4885.359217,8290.306550,-4673.182538
596.240839,3404.947333,6957.935855,-7354.516781
596.241160,1924.535449,6587.832884,-7354.516781
596.241480,2220.617826,7105.977043,-6435.202183
596.241801,3775.050304,7105.977043,-7584.345430
596.242122,4219.173869,7105.977043,-6741.640382
596.242442,5625.565159,8142.265362,-4596.572988
596.242763,6291.750507,8438.347739,-4903.011187
596.243083,5403.503377,8216.285956,-4596.572988
596.243404,4959.379811,8142.265362,-4903.011187
596.243725,5551.544565,7179.997637,-6128.763984
596.244045,5255.462188,6661.853478,-7201.297681
596.244366,5329.482782,7624.121203,-6435.202183
596.244686,6069.688724,8512.368333,-6894.859482
596.245007,6513.812290,8364.327145,-7737.564530
596.245328,5921.647536,8216.285956,-8427.050478
596.245648,4663.297435,7254.018232,-7124.688131
596.245969,3923.091493,7105.977043,-5439.278036
596.246289,5033.400406,7994.224174,-4749.792088
596.246610,3997.112087,7476.080014,-6128.763984
596.246931,4811.338623,7105.977043,-7048.078582
596.247251,7328.038826,9030.512492,-6665.030833
596.247572,6143.709319,11029.068536,-5592.497135
596.247893,5033.400406,10732.986159,-4903.011187
596.248213,4811.338623,9474.636058,-4366.744339
596.248534,4071.132681,7698.141797,-4596.572988
596.248854,4219.173869,7254.018232,-3140.991542
596.249175,5551.544565,8216.285956,-2987.772442
596.249496,4367.215058,8512.368333,-6281.983084
596.249816,3552.988522,8142.265362,-7507.735880
596.250137,5107.421000,7476.080014,-6665.030833
596.250457,5403.503377,7328.038826,-6358.592633
596.250778,5551.544565,8438.347739,-5286.058936
596.251099,6661.853478,9844.739029,-5286.058936
596.251419,5847.626942,9844.739029,-6741.640382
596.251740,6217.729913,9104.533087,-6128.763984
596.252060,7772.162391,9474.636058,-3677.258390
596.252381,7031.956449,9770.718434,-3217.601092
596.252702,5107.421000,9696.697840,-3600.648841
596.253022,3478.967927,8068.244768,-4519.963438
596.253343,2664.741391,5625.565159,-5822.325785
596.253664,3923.091493,4589.276840,-4903.011187
596.253984,3923.091493,5255.462188,-3753.867940
596.254305,2886.803174,6735.874072,-4903.011187
596.254625,4145.153275,8882.471304,-5515.887586
596.254946,3923.091493,10066.800811,-5056.230287
596.255267,4737.318029,9548.656652,-4060.306139
596.255587,6809.894666,9696.697840,-2911.162892
596.255908,5551.544565,10140.821405,-4136.915689
596.256228,3627.009116,10140.821405,-5898.935335
596.256549,5329.482782,9400.615463,-5439.278036
596.256870,5107.421000,7402.059420,-3217.601092
596.257190,4145.153275,5699.585753,-1991.848295
596.257511,3849.070898,5477.523971,-1608.800546
596.257832,2664.741391,5847.626942,-4749.792088
596.258152,2664.741391,5551.544565,-5515.887586
596.258473,4589.276840,4663.297435,-4290.134789
596.258793,4811.338623,4071.132681,-3370.820191
596.259114,4441.235652,4071.132681,-3294.210641
596.259435,5551.544565,5995.668130,-5286.058936
596.259755,5921.647536,9548.656652,-7890.783629
596.260076,6069.688724,10658.965565,-8656.879127
596.260396,7179.997637,10214.842000,-8350.440928
596.260717,8512.368333,8956.491898,-6358.592633
596.261038,7031.956449,8660.409521,-4519.963438
596.261358,5477.523971,8364.327145,-3907.087040
596.261679,3849.070898,7179.997637,-5515.887586
596.261999,2960.823768,6365.771101,-6358.592633
596.262320,3627.009116,6439.791695,-5209.449386
596.262641,4071.132681,5699.585753,-4136.915689
596.262961,5107.421000,5773.606348,-3217.601092
596.263282,4441.235652,7105.977043,-3370.820191
596.263603,3404.947333,8068.244768,-5286.058936
596.263923,3256.906145,7920.203579,-7048.078582
596.264244,5329.482782,8364.327145,-6588.421283
596.264564,6883.915261,10881.027347,-4673.182538
596.264885,6957.935855,13323.706956,-4366.744339
596.265206,5847.626942,13471.748144,-5669.106685
596.265526,4959.379811,12361.439231,-5822.325785
596.265847,4145.153275,10140.821405,-4060.306139
596.266167,3849.070898,7254.018232,-3140.991542
596.266488,3552.988522,4515.256246,-5286.058936
596.266809,3108.864956,3701.029710,-6665.030833
596.267129,4441.235652,5477.523971,-6128.763984
596.267450,5107.421000,7254.018232,-5822.325785
596.267770,6069.688724,8512.368333,-6281.983084
596.268091,6735.874072,9696.697840,-6818.249932
596.268412,7550.100608,10732.986159,-7048.078582
596.268732,6735.874072,9548.656652,-6128.763984
596.269053,7031.956449,9400.615463,-6128.763984
596.269374,7402.059420,9326.594869,-5898.935335
596.269694,6809.894666,9696.697840,-6511.811733
596.270015,5847.626942,10066.800811,-7048.078582
596.270335,4885.359217,10288.862594,-7354.516781
596.270656,4589.276840,9030.512492,-5822.325785
596.270977,3997.112087,6809.894666,-2681.334243
596.271297,3108.864956,4293.194464,-2068.457845
596.271618,2442.679609,3775.050304,-3294.210641
596.271938,2590.720797,4737.318029,-4903.011187
596.272259,3627.009116,6217.729913,-6435.202183
596.272580,4811.338623,8364.327145,-6894.859482
596.272900,5847.626942,10955.047942,-6435.202183
596.273221,6809.894666,12731.542202,-6205.373534
596.273541,6661.853478,11621.233289,-5362.668486
596.273862,5699.585753,9696.697840,-3907.087040
596.274183,4737.318029,7698.141797,-3217.601092
596.274503,4737.318029,6365.771101,-3830.477490
596.274824,4219.173869,5699.585753,-4060.306139
596.275145,3701.029710,5033.400406,-4903.011187
596.275465,4515.256246,5477.523971,-5898.935335
596.275786,6143.709319,6809.894666,-6281.983084
596.276106,6957.935855,7994.224174,-5286.058936
596.276427,6069.688724,9104.533087,-4290.134789
596.276748,6143.709319,9474.636058,-3677.258390
596.277068,5921.647536,8734.430116,-3140.991542
596.277389,5477.523971,7698.141797,-2451.505594
596.277709,6069.688724,9030.512492,-1608.800546
596.278030,5329.482782,9992.780217,-2221.676944
596.278351,3775.050304,10658.965565,-4366.744339
596.278671,2516.700203,8290.306550,-5286.058936
596.278992,2590.720797,5329.482782,-4826.401637
596.279313,2590.720797,2960.823768,-3600.648841
596.279633,2294.638420,3256.906145,-4213.525239
596.279954,2812.782580,5329.482782,-5515.887586
596.280274,4145.153275,8438.347739,-5515.887586
596.280595,5773.606348,11103.089130,-4366.744339
596.280916,7476.080014,12435.459826,-2757.943793
596.281236,7105.977043,12953.603985,-3064.381992
596.281557,5033.400406,11177.109724,-3294.210641
596.281877,5255.462188,8956.491898,-3217.601092
