#time,accel_x,accel_y,accel_z
592.870107,4959.379811,8142.265362,0.000000
592.870427,4811.338623,8364.327145,-383.047749
592.870748,4885.359217,7624.121203,0.000000
592.871068,4885.359217,7994.224174,0.000000
592.871388,4811.338623,7994.224174,0.000000
592.871708,5033.400406,8142.265362,229.828649
592.872029,4885.359217,7846.182985,-306.438199
592.872349,5033.400406,7994.224174,-383.047749
592.872669,5107.421000,7994.224174,-459.657299
592.872990,4885.359217,8142.265362,0.000000
592.873310,5107.421000,8068.244768,0.000000
592.873630,5107.421000,7994.224174,-383.047749
592.873950,4885.359217,8364.327145,-153.219100
592.874271,4959.379811,7994.224174,-153.219100
592.874591,5107.421000,8068.244768,-153.219100
592.874911,4959.379811,8290.306550,0.000000
592.875232,4959.379811,8142.265362,-76.609550
592.875552,4959.379811,8068.244768,-76.609550
592.875872,5107.421000,7994.224174,-306.438199
592.876192,4959.379811,8142.265362,-306.438199
592.876513,5181.441594,8216.285956,-459.657299
592.876833,5181.441594,8068.244768,0.000000
592.877153,5255.462188,7994.224174,0.000000
592.877474,5107.421000,8068.244768,0.000000
592.877794,5033.400406,8068.244768,0.000000
592.878114,5181.441594,7994.224174,-76.609550
592.878434,5181.441594,7920.203579,0.000000
592.878755,5107.421000,7920.203579,0.000000
592.879075,5033.400406,7994.224174,-383.047749
592.879395,4515.256246,7402.059420,-689.485948
592.879715,4145.153275,7402.059420,-306.438199
592.880036,4367.215058,8142.265362,-153.219100
592.880356,4367.215058,9326.594869,-459.657299
592.880676,4589.276840,9992.780217,-995.924147
592.880997,4737.318029,9696.697840,-1225.752797
592.881317,4219.173869,9474.636058,-1072.533697
592.881637,3552.988522,8882.471304,-153.219100
592.881957,2738.761985,8734.430116,766.095498
592.882278,2590.720797,9178.553681,1149.143247
592.882598,2294.638420,9474.636058,536.266849
592.882918,2516.700203,8586.388927,76.609550
592.883239,2738.761985,8068.244768,-536.266849
592.883559,2886.803174,9104.533087,-306.438199
592.883879,3108.864956,9770.718434,0.000000
592.884199,2812.782580,9770.718434,383.047749
592.884520,2368.659014,9104.533087,459.657299
592.884840,2516.700203,9030.512492,0.000000
592.885160,2220.617826,10066.800811,-459.657299
592.885480,1998.556043,11547.212695,-1149.143247
592.885801,1406.391290,11843.295072,-1455.581446
592.886121,888.247130,11621.233289,-1608.800546
592.886441,1110.308913,10732.986159,-1378.971896
592.886762,222.061783,11177.109724,-1225.752797
592.887082,-666.185348,11917.315666,-383.047749
592.887402,-1258.350101,13027.624579,229.828649
592.887722,-1702.473667,12435.459826,612.876398
592.888043,-1628.453072,11843.295072,1072.533697
592.888363,-814.226536,11473.192101,1685.410096
592.888683,-666.185348,11547.212695,1991.848295
592.889004,-2368.659014,11843.295072,459.657299
592.889324,-2590.720797,10881.027347,-1072.533697
592.889644,-1480.411884,9770.718434,-919.314598
592.889964,-814.226536,9548.656652,306.438199
592.890285,-296.082377,10214.842000,1685.410096
592.890605,444.123565,11325.150913,919.314598
592.890925,444.123565,11843.295072,-1072.533697
592.891246,1332.370696,11769.274478,-1685.410096
592.891566,2072.576638,10584.944971,-689.485948
592.891886,2590.720797,10214.842000,306.438199
592.892206,3034.844362,10436.903782,0.000000
592.892527,2220.617826,9918.759623,-1685.410096
592.892847,1628.453072,9770.718434,-2298.286494
592.893167,2072.576638,9622.677246,-1532.190996
592.893487,2368.659014,9992.780217,0.000000
592.893808,2146.597232,10066.800811,306.438199
592.894128,1628.453072,10510.924376,0.000000
592.894448,814.226536,11029.068536,-459.657299
592.894769,0.000000,11251.130318,0.000000
592.895089,148.041188,10510.924376,0.000000
592.895409,0.000000,9992.780217,689.485948
592.895729,0.000000,9770.718434,919.314598
592.896050,-222.061783,10658.965565,1072.533697
592.896370,-1110.308913,11325.150913,842.705048
592.896690,-518.144159,11325.150913,919.314598
592.897011,296.082377,11473.192101,919.314598
592.897331,888.247130,11103.089130,1225.752797
592.897651,1184.329507,10955.047942,0.000000
592.897971,1332.370696,10658.965565,-842.705048
592.898292,1258.350101,10066.800811,-1225.752797
592.898612,740.205942,9992.780217,-459.657299
592.898932,1258.350101,9400.615463,76.609550
592.899253,1776.494261,9030.512492,612.876398
592.899573,2368.659014,9548.656652,0.000000
592.899893,2294.638420,10214.842000,0.000000
592.900213,2294.638420,10362.883188,76.609550
592.900534,2590.720797,10214.842000,-536.266849
592.900854,3108.864956,9622.677246,-1072.533697
592.901174,3404.947333,9548.656652,-1149.143247
592.901494,3182.885551,10066.800811,-1302.362347
592.901815,2516.700203,10584.944971,-1072.533697
592.902135,2146.597232,10881.027347,-306.438199
592.902455,1332.370696,11251.130318,-459.657299
592.902776,740.205942,10955.047942,-1149.143247
592.903096,296.082377,10214.842000,-1991.848295
592.903416,-370.102971,10066.800811,-2221.676944
592.903736,-1480.411884,9992.780217,-1608.800546
592.904057,-1332.370696,9844.739029,229.828649
592.904377,-592.164754,10362.883188,2145.067394
592.904697,-222.061783,11991.336260,2451.505594
592.905018,0.000000,13323.706956,2834.553343
592.905338,-296.082377,12731.542202,1838.629195
592.905658,222.061783,11695.253884,153.219100
592.905978,888.247130,10362.883188,-153.219100
592.906299,1480.411884,10214.842000,0.000000
592.906619,888.247130,9696.697840,-919.314598
592.906939,1332.370696,9696.697840,-2451.505594
592.907260,370.102971,9844.739029,-1915.238745
592.907580,-1406.391290,9178.553681,-1762.019645
592.907900,-518.144159,9770.718434,-689.485948
592.908220,1258.350101,12435.459826,766.095498
592.908541,814.226536,14211.954086,995.924147
592.908861,1776.494261,13545.768739,0.000000
592.909181,1924.535449,12509.480420,-842.705048
592.909501,518.144159,11621.233289,-1532.190996
592.909822,592.164754,10584.944971,-536.266849
592.910142,1480.411884,9400.615463,229.828649
592.910462,1332.370696,9030.512492,-459.657299
592.910783,1036.288319,9770.718434,76.609550
592.911103,518.144159,10510.924376,612.876398
592.911423,-222.061783,11103.089130,1378.971896
592.911743,-592.164754,10732.986159,2145.067394
592.912064,222.061783,9400.615463,1378.971896
592.912384,1110.308913,7920.203579,76.609550
592.912704,1036.288319,9474.636058,-459.657299
592.913025,444.123565,11917.315666,-995.924147
592.913345,-666.185348,13323.706956,-2221.676944
592.913665,370.102971,13693.809927,-2374.896044
592.913985,888.247130,13323.706956,-1302.362347
592.914306,1480.411884,13027.624579,0.000000
592.914626,740.205942,12139.377449,919.314598
592.914946,-148.041188,12065.356855,536.266849
592.915267,-1406.391290,11177.109724,766.095498
592.915587,-1406.391290,8734.430116,459.657299
592.915907,-1184.329507,7105.977043,459.657299
592.916227,-1258.350101,7105.977043,1225.752797
592.916548,-1036.288319,8734.430116,1762.019645
592.916868,-148.041188,10732.986159,536.266849
592.917188,592.164754,12805.562797,-459.657299
592.917508,2072.576638,13027.624579,-995.924147
592.917829,2442.679609,11621.233289,-842.705048
592.918149,1850.514855,10214.842000,-1149.143247
592.918469,1406.391290,8364.327145,-1378.971896
592.918790,1406.391290,7920.203579,-995.924147
592.919110,2812.782580,9474.636058,459.657299
592.919430,1850.514855,11621.233289,383.047749
592.919750,1036.288319,12583.501014,-1608.800546
592.920071,2294.638420,12213.398043,-2528.115143
592.920391,1628.453072,10658.965565,-2298.286494
592.920711,0.000000,8142.265362,-1455.581446
592.921032,-296.082377,7179.997637,-995.924147
592.921352,444.123565,9252.574275,-153.219100
592.921672,-296.082377,13767.830521,766.095498
592.921992,-1628.453072,15100.201217,1378.971896
592.922313,-1628.453072,14285.974681,536.266849
592.922633,-740.205942,13619.789333,-383.047749
592.922953,-1554.432478,12657.521608,842.705048
592.923273,-1480.411884,11103.089130,1225.752797
592.923594,-888.247130,10362.883188,-229.828649
592.923914,0.000000,10362.883188,-229.828649
592.924234,74.020594,10584.944971,1302.362347
592.924555,-592.164754,9326.594869,1072.533697
592.924875,1184.329507,9548.656652,1149.143247
592.925195,3182.885551,9770.718434,1838.629195
592.925515,3182.885551,10436.903782,1072.533697
592.925836,4219.173869,10140.821405,-842.705048
592.926156,4885.359217,11029.068536,-2068.457845
592.926476,3775.050304,10140.821405,-2374.896044
592.926797,2812.782580,8956.491898,-2374.896044
592.927117,3256.906145,7698.141797,-1532.190996
592.927437,2664.741391,8512.368333,-1225.752797
592.927757,2442.679609,11769.274478,-1072.533697
592.928078,2738.761985,13693.809927,153.219100
592.928398,888.247130,12583.501014,-995.924147
592.928718,-666.185348,9918.759623,-1685.410096
592.929039,-1554.432478,9030.512492,-229.828649
592.929359,-1776.494261,9178.553681,459.657299
592.929679,-1998.556043,11177.109724,459.657299
592.930000,-1554.432478,13101.645173,-153.219100
592.930320,-666.185348,13841.851115,-689.485948
592.930640,-2294.638420,12879.583391,229.828649
592.930961,-3256.906145,10881.027347,1685.410096
592.931281,-1406.391290,11917.315666,2911.162892
592.931602,-1702.473667,12435.459826,3217.601092
592.931922,-814.226536,11325.150913,229.828649
592.932242,666.185348,9696.697840,-1149.143247
592.932563,370.102971,8660.409521,76.609550
592.932883,0.000000,7994.224174,1762.019645
592.933203,1480.411884,7772.162391,2298.286494
592.933524,2442.679609,9030.512492,-383.047749
592.933844,3330.926739,10214.842000,-1072.533697
592.934165,3997.112087,11177.109724,-2068.457845
592.934485,4589.276840,11547.212695,-2757.943793
592.934805,4441.235652,11177.109724,-1685.410096
592.935126,4737.318029,10584.944971,-766.095498
592.935446,3627.009116,8882.471304,-1532.190996
592.935766,2294.638420,8586.388927,-1838.629195
592.936087,296.082377,10140.821405,-2528.115143
592.936407,0.000000,11843.295072,-1915.238745
592.936728,-222.061783,11473.192101,-1149.143247
592.937048,814.226536,10658.965565,-459.657299
592.937368,0.000000,8956.491898,842.705048
592.937689,74.020594,10288.862594,2451.505594
592.938009,-2442.679609,13471.748144,2451.505594
592.938329,-4145.153275,13915.871710,766.095498
592.938650,-2072.576638,12065.356855,153.219100
592.938970,222.061783,11029.068536,1149.143247
592.939291,222.061783,10658.965565,1838.629195
592.939611,-296.082377,11473.192101,1608.800546
592.939931,-1776.494261,12583.501014,76.609550
592.940252,-2294.638420,13397.727550,-1915.238745
592.940572,0.000000,12287.418637,-689.485948
592.940892,2146.597232,10140.821405,1532.190996
592.941213,2368.659014,9326.594869,1915.238745
592.941533,2368.659014,9844.739029,2451.505594
592.941854,666.185348,9474.636058,0.000000
592.942174,1332.370696,8290.306550,-1838.629195
592.942494,4367.215058,8142.265362,-1991.848295
592.942815,6069.688724,10140.821405,-689.485948
592.943135,4737.318029,10362.883188,-1378.971896
592.943455,2516.700203,8734.430116,-2298.286494
592.943776,3701.029710,8142.265362,-2221.676944
592.944096,2886.803174,10066.800811,-995.924147
592.944417,1332.370696,11251.130318,-1072.533697
592.944737,2516.700203,11177.109724,-2604.724693
592.945057,1184.329507,11843.295072,-3447.429741
592.945378,-518.144159,12361.439231,-2298.286494
592.945698,-592.164754,11917.315666,-229.828649
592.946018,-1628.453072,11325.150913,995.924147
592.946339,-2886.803174,11325.150913,2145.067394
592.946659,-2220.617826,12361.439231,2604.724693
592.946980,-3108.864956,12361.439231,2068.457845
592.947300,-3701.029710,12509.480420,1072.533697
592.947620,-1628.453072,13397.727550,3370.820191
592.947941,-2442.679609,12509.480420,3294.210641
592.948261,-2886.803174,9992.780217,2145.067394
592.948581,-2146.597232,9104.533087,995.924147
592.948902,-2072.576638,10436.903782,229.828649
592.949222,-1110.308913,11325.150913,1072.533697
592.949543,296.082377,10732.986159,842.705048
592.949863,2368.659014,10140.821405,-1608.800546
592.950183,3849.070898,10584.944971,-995.924147
592.950504,4441.235652,11769.274478,536.266849
592.950824,4885.359217,11695.253884,-1225.752797
592.951144,4145.153275,9770.718434,-2911.162892
592.951465,4737.318029,7624.121203,-2834.553343
592.951785,5773.606348,7624.121203,-1378.971896
592.952106,2812.782580,7550.100608,-1149.143247
592.952426,2738.761985,8956.491898,-1225.752797
592.952746,4589.276840,10288.862594,-1378.971896
592.953067,2368.659014,8142.265362,-2374.896044
592.953387,3182.885551,7772.162391,-1685.410096
592.953707,3997.112087,10436.903782,-536.266849
592.954028,296.082377,11695.253884,-229.828649
592.954348,-740.205942,10436.903782,766.095498
592.954669,148.041188,7402.059420,1532.190996
592.954989,1036.288319,7920.203579,689.485948
592.955309,-962.267725,10362.883188,1608.800546
592.955630,-1554.432478,13249.686362,1072.533697
592.955950,-1184.329507,15618.345376,-919.314598
592.956270,0.000000,15914.427753,0.000000
592.956591,-74.020594,12361.439231,0.000000
592.956911,-222.061783,8734.430116,306.438199
592.957232,-2368.659014,8068.244768,1455.581446
592.957552,-2664.741391,9622.677246,2221.676944
592.957872,-962.267725,10140.821405,1072.533697
592.958193,444.123565,9104.533087,-383.047749
592.958513,962.267725,9326.594869,-919.314598
592.958833,2590.720797,11029.068536,76.609550
592.959154,2368.659014,12435.459826,-1225.752797
592.959474,1554.432478,10955.047942,-2757.943793
592.959795,4441.235652,8068.244768,-3140.991542
592.960115,6143.709319,7328.038826,-1302.362347
592.960435,3997.112087,7994.224174,-229.828649
592.960756,3108.864956,10955.047942,-1762.019645
592.961076,2590.720797,13989.892304,-3294.210641
592.961397,5107.421000,13841.851115,-2911.162892
592.961717,5921.647536,12509.480420,-2604.724693
592.962037,1628.453072,9030.512492,-1762.019645
592.962358,-222.061783,8882.471304,-1378.971896
592.962678,-1702.473667,10807.006753,-383.047749
592.962998,-5107.421000,11473.192101,766.095498
592.963319,-2072.576638,9696.697840,229.828649
592.963639,-740.205942,10881.027347,383.047749
592.963960,-4071.132681,14137.933492,153.219100
592.964280,-6069.688724,15618.345376,1532.190996
592.964600,-3997.112087,15618.345376,2374.896044
592.964921,-2442.679609,13841.851115,2068.457845
592.965241,-1332.370696,9844.739029,1762.019645
592.965561,1406.391290,9252.574275,1072.533697
592.965882,-666.185348,9992.780217,-383.047749
592.966202,2294.638420,14656.077652,153.219100
592.966523,3404.947333,13027.624579,-536.266849
592.966843,3256.906145,8512.368333,-1762.019645
592.967163,6217.729913,5847.626942,0.000000
592.967484,5551.544565,7105.977043,2145.067394
592.967804,1850.514855,7105.977043,1378.971896
592.968124,5403.503377,8586.388927,-2681.334243
592.968445,5255.462188,8956.491898,-3370.820191
592.968765,4145.153275,7179.997637,-2298.286494
592.969086,7105.977043,7624.121203,306.438199
592.969406,6069.688724,10510.924376,1149.143247
592.969726,1554.432478,11547.212695,-2451.505594
592.970047,2220.617826,11325.150913,-3983.696590
592.970367,1776.494261,9104.533087,-3064.381992
592.970687,962.267725,8808.450710,-995.924147
592.971008,3182.885551,9474.636058,3140.991542
592.971328,1258.350101,11103.089130,1378.971896
592.971649,-1776.494261,11103.089130,-1532.190996
592.971969,-2812.782580,10214.842000,-2374.896044
592.972289,-3627.009116,8512.368333,612.876398
592.972610,-3034.844362,9770.718434,3140.991542
592.972930,-370.102971,12139.377449,5669.106685
592.973250,-2886.803174,13323.706956,2528.115143
592.973571,-1406.391290,11251.130318,-919.314598
592.973891,962.267725,11621.233289,0.000000
592.974212,-296.082377,11177.109724,2145.067394
592.974532,1036.288319,11621.233289,2911.162892
592.974852,2368.659014,10955.047942,1378.971896
592.975173,592.164754,7698.141797,-1225.752797
592.975493,3552.988522,7254.018232,-1838.629195
592.975813,3849.070898,8216.285956,-919.314598
592.976134,3108.864956,10140.821405,-1685.410096
592.976454,5033.400406,9252.574275,-536.266849
592.976775,5477.523971,8512.368333,0.000000
592.977095,6587.832884,7846.182985,229.828649
592.977415,7105.977043,8290.306550,689.485948
592.977736,5403.503377,8438.347739,-459.657299
592.978056,4515.256246,7402.059420,-2298.286494
592.978376,7624.121203,5551.544565,-2604.724693
592.978697,6661.853478,5329.482782,-1991.848295
592.979017,6587.832884,7698.141797,-1915.238745
592.979338,4811.338623,9918.759623,-1378.971896
592.979658,2664.741391,12287.418637,-1149.143247
592.979978,2590.720797,11325.150913,-1455.581446
592.980299,4737.318029,9770.718434,-1149.143247
592.980619,3330.926739,8364.327145,-153.219100
592.980939,2146.597232,10955.047942,1762.019645
592.981260,222.061783,11473.192101,1838.629195
592.981580,740.205942,9918.759623,-766.095498
592.981901,3478.967927,9918.759623,1072.533697
592.982221,3849.070898,10066.800811,2604.724693
592.982541,1036.288319,8808.450710,1991.848295
592.982862,296.082377,7105.977043,1302.362347
592.983182,4219.173869,9474.636058,1608.800546
592.983502,3552.988522,10066.800811,1762.019645
592.983823,3182.885551,7179.997637,0.000000
592.984143,7328.038826,5551.544565,-1072.533697
592.984464,4441.235652,7328.038826,-383.047749
592.984784,4811.338623,9770.718434,0.000000
592.985104,8660.409521,8808.450710,-383.047749
592.985425,7402.059420,7698.141797,-3294.210641
592.985745,10288.862594,8882.471304,-3217.601092
592.986065,9844.739029,9178.553681,-1455.581446
592.986386,6365.771101,5255.462188,-2834.553343
592.986706,7179.997637,4737.318029,-1685.410096
592.987027,10214.842000,5107.421000,1378.971896
592.987347,8660.409521,4959.379811,536.266849
592.987667,8956.491898,5403.503377,-383.047749
592.987988,9030.512492,5995.668130,-1608.800546
592.988308,6069.688724,7105.977043,-1762.019645
592.988628,5847.626942,6439.791695,0.000000
592.988949,6735.874072,5773.606348,229.828649
592.989269,6735.874072,6883.915261,-1455.581446
592.989590,7105.977043,7105.977043,-1072.533697
592.989910,3997.112087,7624.121203,-1149.143247
592.990230,3923.091493,7994.224174,-1685.410096
592.990551,5255.462188,11251.130318,919.314598
592.990871,4959.379811,11917.315666,2298.286494
592.991191,4811.338623,9696.697840,-153.219100
592.991512,3775.050304,8216.285956,0.000000
592.991832,1850.514855,6957.935855,229.828649
592.992153,4293.194464,9178.553681,766.095498
592.992473,3849.070898,6661.853478,995.924147
592.992793,2442.679609,5699.585753,-229.828649
592.993114,3701.029710,6513.812290,1838.629195
592.993434,3775.050304,10140.821405,2528.115143
592.993754,1998.556043,10881.027347,459.657299
592.994075,3849.070898,10955.047942,-1378.971896
592.994395,7105.977043,9400.615463,-842.705048
592.994716,4885.359217,8586.388927,0.000000
592.995036,4219.173869,5329.482782,0.000000
592.995356,4367.215058,6587.832884,-995.924147
592.995677,4441.235652,10881.027347,-536.266849
592.995997,5033.400406,12065.356855,-1225.752797
592.996317,6513.812290,11103.089130,-3753.867940
592.996638,7698.141797,8586.388927,-3983.696590
592.996958,6513.812290,9474.636058,0.000000
592.997279,2812.782580,10955.047942,3064.381992
592.997599,1258.350101,9474.636058,1838.629195
592.997919,2220.617826,6587.832884,383.047749
592.998240,1702.473667,5255.462188,76.609550
592.998560,2442.679609,8438.347739,1149.143247
592.998880,1480.411884,10584.944971,2451.505594
592.999201,740.205942,12287.418637,306.438199
592.999521,2590.720797,10436.903782,612.876398
592.999842,4219.173869,6217.729913,1991.848295
593.000162,4811.338623,5773.606348,2834.553343
593.000482,5107.421000,7031.956449,1149.143247
593.000803,2442.679609,9104.533087,-1991.848295
593.001123,4441.235652,9770.718434,-3447.429741
593.001443,6217.729913,7550.100608,-1838.629195
593.001764,8438.347739,6143.709319,1302.362347
593.002084,8216.285956,6365.771101,1532.190996
593.002405,6143.709319,8808.450710,-459.657299
593.002725,4367.215058,7698.141797,-3753.867940
593.003045,4663.297435,4367.215058,-3140.991542
593.003366,7624.121203,3108.864956,766.095498
593.003686,9622.677246,6069.688724,2604.724693
593.004007,7402.059420,9770.718434,1378.971896
593.004327,6069.688724,11399.171507,-2604.724693
593.004647,6217.729913,9696.697840,-3370.820191
593.004968,5625.565159,3627.009116,-1915.238745
593.005288,6365.771101,2368.659014,0.000000
593.005608,7476.080014,5477.523971,1762.019645
593.005929,5181.441594,8734.430116,153.219100
593.006249,4441.235652,10732.986159,-2298.286494
593.006570,5551.544565,8290.306550,-2987.772442
593.006890,3997.112087,6661.853478,-1302.362347
593.007210,5181.441594,7031.956449,2604.724693
593.007531,5551.544565,8882.471304,3907.087040
593.007851,4737.318029,9844.739029,1072.533697
593.008171,4737.318029,8734.430116,-1072.533697
593.008492,4959.379811,9178.553681,-1378.971896
593.008812,4071.132681,10436.903782,-383.047749
593.009133,3849.070898,10658.965565,1762.019645
593.009453,3404.947333,11103.089130,1378.971896
593.009773,6143.709319,8438.347739,-383.047749
593.010094,3552.988522,6809.894666,0.000000
593.010414,3627.009116,8068.244768,229.828649
593.010734,3034.844362,9400.615463,536.266849
593.011055,2812.782580,9696.697840,0.000000
593.011375,4737.318029,8956.491898,-689.485948
593.011696,5699.585753,6365.771101,-689.485948
593.012016,6069.688724,6513.812290,306.438199
593.012336,6143.709319,9104.533087,995.924147
593.012657,5551.544565,7698.141797,-1149.143247
593.012977,5995.668130,6217.729913,-4060.306139
593.013297,8660.409521,6735.874072,-2834.553343
593.013618,7254.018232,8956.491898,-689.485948
593.013938,7994.224174,10362.883188,306.438199
593.014259,7476.080014,9400.615463,-612.876398
593.014579,6587.832884,9696.697840,-1532.190996
593.014899,5107.421000,7476.080014,-1302.362347
593.015220,3404.947333,5403.503377,-1225.752797
593.015540,2812.782580,6143.709319,919.314598
593.015860,2146.597232,7476.080014,2911.162892
593.016181,2960.823768,9030.512492,2298.286494
593.016501,4071.132681,8216.285956,-306.438199
593.016822,3330.926739,7105.977043,-1838.629195
593.017142,2960.823768,7476.080014,919.314598
593.017462,3256.906145,6809.894666,4060.306139
593.017783,3404.947333,7994.224174,3907.087040
593.018103,4959.379811,8586.388927,536.266849
593.018423,5181.441594,8808.450710,-2145.067394
593.018744,5847.626942,8882.471304,-2528.115143
593.019064,6217.729913,8142.265362,-1838.629195
593.019385,5773.606348,6217.729913,229.828649
593.019705,6957.935855,7105.977043,612.876398
593.020025,6217.729913,7698.141797,-919.314598
593.020346,4811.338623,9326.594869,-1991.848295
593.020666,6143.709319,8586.388927,-306.438199
593.020986,6587.832884,7476.080014,1685.410096
593.021307,7179.997637,6809.894666,1762.019645
593.021627,6069.688724,6439.791695,536.266849
593.021948,5625.565159,7179.997637,-1455.581446
593.022268,5921.647536,9400.615463,-842.705048
593.022588,6883.915261,9918.759623,842.705048
593.022909,5995.668130,6809.894666,76.609550
593.023229,5551.544565,4441.235652,-459.657299
593.023549,5625.565159,8808.450710,306.438199
593.023870,3701.029710,9918.759623,1302.362347
593.024190,2886.803174,7031.956449,-612.876398
593.024511,7772.162391,6217.729913,-1225.752797
593.024831,7328.038826,7476.080014,0.000000
593.025151,3330.926739,7105.977043,-689.485948
593.025472,5847.626942,8808.450710,0.000000
593.025792,5625.565159,8956.491898,0.000000
593.026112,5847.626942,6957.935855,1455.581446
593.026433,7920.203579,8364.327145,919.314598
593.026753,5403.503377,7920.203579,-2528.115143
593.027074,3034.844362,10214.842000,-3217.601092
593.027394,5625.565159,10732.986159,153.219100
593.027714,5181.441594,8956.491898,995.924147
593.028035,4737.318029,6735.874072,2145.067394
593.028355,4145.153275,6439.791695,-229.828649
593.028675,2368.659014,9992.780217,-2681.334243
593.028996,592.164754,10362.883188,-1685.410096
593.029316,4071.132681,8290.306550,919.314598
593.029637,6439.791695,6217.729913,1455.581446
593.029957,6069.688724,7624.121203,2528.115143
593.030277,3997.112087,9770.718434,1225.752797
593.030598,2442.679609,9918.759623,-2374.896044
593.030918,4663.297435,10658.965565,-2221.676944
593.031238,6883.915261,10140.821405,-1302.362347
593.031559,6365.771101,7550.100608,-766.095498
593.031879,5847.626942,6883.915261,0.000000
593.032199,5773.606348,9844.739029,612.876398
593.032520,4145.153275,10066.800811,153.219100
593.032840,3627.009116,5921.647536,-1762.019645
593.033160,6069.688724,3627.009116,-995.924147
593.033481,7550.100608,7772.162391,1455.581446
593.033801,4885.359217,10140.821405,3217.601092
593.034122,4663.297435,9474.636058,842.705048
593.034442,7031.956449,6439.791695,-1838.629195
593.034762,4885.359217,6069.688724,-1915.238745
593.035083,5773.606348,6809.894666,-153.219100
593.035403,6143.709319,7105.977043,-612.876398
593.035723,5255.462188,9548.656652,-689.485948
593.036044,6143.709319,9696.697840,0.000000
593.036364,6069.688724,8882.471304,459.657299
593.036684,5107.421000,8586.388927,-459.657299
593.037005,3478.967927,7920.203579,-383.047749
593.037325,4219.173869,8216.285956,459.657299
593.037646,4293.194464,7920.203579,0.000000
593.037966,3775.050304,6587.832884,842.705048
593.038286,5477.523971,6439.791695,1072.533697
593.038607,5551.544565,9548.656652,153.219100
593.038927,5255.462188,10214.842000,1072.533697
593.039247,4959.379811,9622.677246,1532.190996
593.039568,4959.379811,6587.832884,1072.533697
593.039888,4959.379811,5403.503377,536.266849
593.040208,4663.297435,5847.626942,1149.143247
593.040529,3404.947333,7698.141797,-689.485948
593.040849,4885.359217,7105.977043,-536.266849
593.041169,6291.750507,7328.038826,-1991.848295
593.041490,6069.688724,6735.874072,-1838.629195
593.041810,5403.503377,8290.306550,306.438199
593.042131,6883.915261,8956.491898,1762.019645
593.042451,5921.647536,9696.697840,306.438199
593.042771,5921.647536,6957.935855,-919.314598
593.043092,5921.647536,6735.874072,-1915.238745
593.043412,7031.956449,8216.285956,-1685.410096
593.043732,4071.132681,8808.450710,1072.533697
593.044053,4441.235652,8586.388927,459.657299
593.044373,5699.585753,6291.750507,-1762.019645
593.044693,4441.235652,5625.565159,-2145.067394
593.045014,3552.988522,6439.791695,-306.438199
593.045334,4663.297435,9178.553681,689.485948
593.045655,3478.967927,9178.553681,383.047749
593.045975,4589.276840,8882.471304,-306.438199
593.046295,6217.729913,9178.553681,612.876398
593.046616,2812.782580,8956.491898,-919.314598
593.046936,2442.679609,8512.368333,-766.095498
593.047256,4589.276840,9178.553681,766.095498
593.047577,4959.379811,9696.697840,459.657299
593.047897,4589.276840,9474.636058,383.047749
593.048217,4441.235652,8290.306550,-919.314598
593.048538,3627.009116,8364.327145,-1532.190996
593.048858,2738.761985,9400.615463,0.000000
593.049178,4737.318029,8512.368333,536.266849
593.049499,4515.256246,7031.956449,-536.266849
593.049819,6735.874072,8438.347739,-536.266849
593.050140,5181.441594,8216.285956,-842.705048
593.050460,3034.844362,8290.306550,-1072.533697
593.050780,4589.276840,9992.780217,383.047749
593.051101,7105.977043,9992.780217,0.000000
593.051421,6143.709319,8068.244768,-1608.800546
593.051741,6143.709319,7698.141797,-2145.067394
593.052062,6661.853478,7105.977043,-1149.143247
593.052382,5699.585753,7179.997637,-536.266849
593.052702,6291.750507,6957.935855,76.609550
593.053023,5995.668130,7031.956449,-1762.019645
593.053343,6069.688724,8512.368333,-2374.896044
593.053664,5773.606348,8882.471304,-919.314598
593.053984,6217.729913,8068.244768,-842.705048
593.054304,6883.915261,7031.956449,-306.438199
593.054625,5033.400406,7254.018232,-229.828649
593.054945,4589.276840,7179.997637,-842.705048
593.055265,4885.359217,7920.203579,-459.657299
593.055586,4219.173869,6957.935855,-612.876398
593.055906,6957.935855,8734.430116,689.485948
593.056226,5921.647536,10140.821405,459.657299
593.056547,2294.638420,9104.533087,-1915.238745
593.056867,4071.132681,7624.121203,-1455.581446
593.057187,6365.771101,7031.956449,919.314598
593.057508,4663.297435,8290.306550,1608.800546
593.057828,3627.009116,8808.450710,306.438199
593.058149,4071.132681,9474.636058,-2757.943793
593.058469,4589.276840,8512.368333,-2298.286494
593.058789,6365.771101,7254.018232,1532.190996
593.059110,6217.729913,6735.874072,2757.943793
593.059430,4959.379811,8808.450710,919.314598
593.059750,3997.112087,10362.883188,-1915.238745
593.060071,2960.823768,8586.388927,-2911.162892
593.060391,8068.244768,6439.791695,-536.266849
593.060711,7476.080014,6661.853478,1915.238745
593.061032,5551.544565,8808.450710,-306.438199
593.061352,2960.823768,10732.986159,-1915.238745
593.061672,4293.194464,11695.253884,-1915.238745
593.061993,5625.565159,9548.656652,229.828649
593.062313,5033.400406,6809.894666,1991.848295
593.062634,4515.256246,6587.832884,1225.752797
593.062954,3775.050304,8660.409521,689.485948
593.063274,2368.659014,8660.409521,1991.848295
593.063595,3849.070898,7254.018232,1532.190996
593.063915,5773.606348,4367.215058,919.314598
593.064235,5847.626942,7179.997637,1149.143247
593.064556,3404.947333,10658.965565,842.705048
593.064876,2368.659014,9770.718434,-383.047749
593.065196,8290.306550,8438.347739,-1149.143247
593.065517,5403.503377,4959.379811,-1225.752797
593.065837,4071.132681,4219.173869,-536.266849
593.066158,6365.771101,8808.450710,2298.286494
593.066478,3256.906145,11325.150913,0.000000
593.066798,2516.700203,8882.471304,-2221.676944
593.067119,7772.162391,6661.853478,-1608.800546
593.067439,7105.977043,7031.956449,-766.095498
593.067759,4145.153275,8882.471304,766.095498
593.068080,2960.823768,8660.409521,612.876398
593.068400,3923.091493,7179.997637,-2068.457845
593.068720,4663.297435,4811.338623,306.438199
593.069041,5181.441594,5181.441594,2451.505594
593.069361,4811.338623,9400.615463,689.485948
593.069681,3330.926739,12435.459826,-1838.629195
593.070002,4293.194464,12287.418637,-1991.848295
593.070322,5255.462188,7846.182985,-919.314598
593.070643,5477.523971,2664.741391,459.657299
593.070963,4219.173869,4071.132681,1685.410096
593.071283,592.164754,7254.018232,-536.266849
593.071604,1628.453072,10510.924376,-1608.800546
593.071924,5107.421000,10584.944971,-1915.238745
593.072244,7624.121203,7624.121203,-1302.362347
593.072565,7328.038826,9030.512492,306.438199
593.072885,6365.771101,11991.336260,1762.019645
593.073205,3108.864956,11547.212695,-612.876398
593.073526,4367.215058,7920.203579,-1378.971896
593.073846,7105.977043,4367.215058,-842.705048
593.074167,6957.935855,5477.523971,0.000000
593.074487,4589.276840,8142.265362,689.485948
593.074807,4145.153275,11473.192101,153.219100
593.075128,6809.894666,10955.047942,-1302.362347
593.075448,5625.565159,7105.977043,-1302.362347
593.075768,5773.606348,3923.091493,-306.438199
593.076089,6069.688724,6217.729913,995.924147
593.076409,4219.173869,10658.965565,1378.971896
593.076729,3775.050304,10658.965565,-919.314598
593.077050,7402.059420,9622.677246,-2528.115143
593.077370,7698.141797,7698.141797,-2145.067394
593.077690,5625.565159,8512.368333,306.438199
593.078011,4293.194464,8586.388927,1225.752797
593.078331,3701.029710,9622.677246,-229.828649
593.078652,5773.606348,7328.038826,-842.705048
593.078972,5773.606348,4811.338623,-1149.143247
593.079292,6735.874072,5995.668130,0.000000
593.079613,5921.647536,8290.306550,612.876398
593.079933,3997.112087,10436.903782,383.047749
593.080253,4589.276840,9770.718434,-919.314598
593.080574,7402.059420,8142.265362,-306.438199
593.080894,7179.997637,6587.832884,995.924147
593.081214,4811.338623,8956.491898,1532.190996
593.081535,4367.215058,11769.274478,612.876398
593.081855,2960.823768,10362.883188,-1532.190996
593.082176,4737.318029,6883.915261,-1762.019645
593.082496,6143.709319,4737.318029,689.485948
593.082816,5773.606348,5181.441594,1685.410096
593.083137,4145.153275,7179.997637,1378.971896
593.083457,3256.906145,6957.935855,-842.705048
593.083777,4219.173869,5625.565159,-1532.190996
593.084098,7105.977043,6217.729913,0.000000
593.084418,6957.935855,7105.977043,1302.362347
593.084738,6365.771101,10140.821405,689.485948
593.085059,7772.162391,11473.192101,-1608.800546
593.085379,4441.235652,9474.636058,-3294.210641
593.085699,5255.462188,5847.626942,-1915.238745
593.086020,8216.285956,6069.688724,2145.067394
593.086340,6661.853478,8808.450710,3217.601092
593.086661,3034.844362,10658.965565,1302.362347
593.086981,3034.844362,9918.759623,-1608.800546
593.087301,3330.926739,7105.977043,-2374.896044
593.087622,4071.132681,5181.441594,919.314598
593.087942,4441.235652,5329.482782,3830.477490
593.088262,3404.947333,7179.997637,2528.115143
593.088583,3034.844362,8660.409521,0.000000
593.088903,3478.967927,9474.636058,-842.705048
593.089223,3256.906145,9548.656652,-536.266849
593.089544,6513.812290,9400.615463,1532.190996
593.089864,7772.162391,11843.295072,2528.115143
593.090185,4885.359217,10362.883188,536.266849
593.090505,5403.503377,7994.224174,-1685.410096
593.090825,7105.977043,7624.121203,-1532.190996
593.091146,3849.070898,5921.647536,-153.219100
593.091466,5255.462188,6957.935855,1302.362347
593.091786,7624.121203,8364.327145,689.485948
593.092107,5403.503377,7772.162391,-766.095498
593.092427,5329.482782,6809.894666,229.828649
593.092747,5329.482782,7402.059420,919.314598
593.093068,4367.215058,7550.100608,1149.143247
593.093388,4959.379811,6735.874072,1991.848295
593.093708,5551.544565,6883.915261,229.828649
593.094029,6291.750507,8216.285956,-919.314598
593.094349,5181.441594,9844.739029,76.609550
593.094670,2960.823768,9992.780217,-1685.410096
593.094990,3775.050304,8364.327145,-2604.724693
593.095310,6513.812290,7624.121203,-1225.752797
593.095631,4515.256246,6809.894666,-1302.362347
593.095951,3923.091493,5403.503377,-1685.410096
593.096271,6587.832884,7402.059420,76.609550
593.096592,4441.235652,9252.574275,919.314598
593.096912,5033.400406,9252.574275,229.828649
593.097232,7031.956449,8956.491898,-306.438199
593.097553,5181.441594,7846.182985,-2451.505594
593.097873,5921.647536,7105.977043,0.000000
593.098194,5329.482782,6291.750507,1991.848295
593.098514,4589.276840,6809.894666,229.828649
593.098834,4441.235652,7994.224174,-766.095498
593.099155,6143.709319,10658.965565,-2068.457845
593.099475,3923.091493,9252.574275,-2145.067394
593.099795,5181.441594,9326.594869,0.000000
593.100116,5921.647536,9474.636058,1378.971896
593.100436,1480.411884,7328.038826,-306.438199
593.100756,3478.967927,7031.956449,-995.924147
593.101077,5921.647536,8142.265362,-383.047749
593.101397,3849.070898,8512.368333,-76.609550
593.101717,6809.894666,10288.862594,306.438199
593.102038,7105.977043,8660.409521,-1072.533697
593.102358,5477.523971,7105.977043,-1302.362347
593.102679,7105.977043,8068.244768,1838.629195
593.102999,6587.832884,9252.574275,2911.162892
593.103319,4145.153275,7476.080014,306.438199
593.103640,5773.606348,7254.018232,-1149.143247
593.103960,7328.038826,8290.306550,-1072.533697
593.104280,5255.462188,9548.656652,-612.876398
593.104601,6735.874072,6809.894666,0.000000
593.104921,5625.565159,6513.812290,0.000000
593.105241,5699.585753,7179.997637,0.000000
593.105562,4367.215058,7105.977043,1608.800546
593.105882,4737.318029,9326.594869,306.438199
593.106203,8068.244768,7105.977043,-1072.533697
593.106523,5995.668130,7476.080014,-689.485948
593.106843,6143.709319,7105.977043,919.314598
593.107164,5921.647536,9548.656652,153.219100
593.107484,4293.194464,8512.368333,229.828649
593.107804,2516.700203,6143.709319,-1302.362347
593.108125,6069.688724,5921.647536,-766.095498
593.108445,3478.967927,6957.935855,536.266849
593.108765,2738.761985,8438.347739,459.657299
593.109086,3701.029710,8438.347739,229.828649
593.109406,5403.503377,8734.430116,0.000000
593.109726,4293.194464,8734.430116,153.219100
593.110047,4589.276840,8364.327145,842.705048
593.110367,4219.173869,8438.347739,-306.438199
593.110688,2516.700203,8734.430116,-1072.533697
593.111008,3108.864956,8512.368333,1608.800546
593.111328,5477.523971,8586.388927,2145.067394
593.111649,5551.544565,7772.162391,689.485948
593.111969,3256.906145,7031.956449,-1608.800546
593.112289,2590.720797,7402.059420,-2757.943793
593.112610,3404.947333,7772.162391,-1149.143247
593.112930,6143.709319,8734.430116,1762.019645
593.113250,5107.421000,6217.729913,2604.724693
593.113571,6883.915261,6513.812290,1378.971896
593.113891,5107.421000,9104.533087,459.657299
593.114212,2960.823768,9104.533087,-1302.362347
593.114532,5995.668130,9770.718434,-1838.629195
593.114852,9696.697840,7698.141797,-1915.238745
593.115173,8142.265362,6069.688724,-1762.019645
593.115493,6957.935855,7105.977043,919.314598
593.115813,5625.565159,10881.027347,1302.362347
593.116134,4959.379811,10362.883188,0.000000
593.116454,2738.761985,6957.935855,-1225.752797
593.116774,4441.235652,4663.297435,-995.924147
593.117095,4737.318029,7254.018232,1072.533697
593.117415,2072.576638,8808.450710,2604.724693
593.117735,2220.617826,9474.636058,-229.828649
593.118056,6439.791695,9474.636058,-2298.286494
593.118376,3627.009116,8142.265362,-689.485948
593.118697,3330.926739,8216.285956,0.000000
593.119017,4737.318029,8438.347739,766.095498
593.119337,4441.235652,11843.295072,1302.362347
593.119658,4145.153275,12435.459826,229.828649
593.119978,6291.750507,9844.739029,-153.219100
593.120298,6291.750507,6587.832884,-1762.019645
593.120619,4737.318029,7254.018232,-1149.143247
593.120939,1776.494261,7550.100608,-153.219100
593.121259,4515.256246,6883.915261,-459.657299
593.121580,6069.688724,6439.791695,536.266849
593.121900,5625.565159,4589.276840,536.266849
593.122220,5107.421000,5551.544565,-229.828649
593.122541,5995.668130,8364.327145,-612.876398
593.122861,5033.400406,11695.253884,-1685.410096
593.123182,4811.338623,8882.471304,-1608.800546
593.123502,7254.018232,4515.256246,-2604.724693
593.123822,9770.718434,5921.647536,0.000000
593.124143,6365.771101,9400.615463,2221.676944
593.124463,5181.441594,12435.459826,229.828649
593.124783,5625.565159,11399.171507,-4290.134789
593.125104,4293.194464,7105.977043,-5362.668486
593.125424,4663.297435,3997.112087,-383.047749
593.125744,5329.482782,4885.359217,3600.648841
593.126065,3923.091493,6661.853478,2757.943793
593.126385,4071.132681,7920.203579,-1225.752797
593.126706,5403.503377,6883.915261,-3983.696590
593.127026,3627.009116,6809.894666,-3370.820191
593.127346,4737.318029,8734.430116,766.095498
593.127667,4737.318029,11547.212695,2987.772442
593.127987,6069.688724,11769.274478,459.657299
593.128307,8882.471304,9770.718434,-2068.457845
593.128628,5773.606348,8586.388927,-2451.505594
593.128948,2590.720797,7179.997637,-2451.505594
593.129268,5033.400406,10066.800811,1455.581446
593.129589,4589.276840,10658.965565,2604.724693
593.129909,6069.688724,9252.574275,153.219100
593.130229,6069.688724,6143.709319,-1608.800546
593.130550,3923.091493,5255.462188,-2604.724693
593.130870,222.061783,7031.956449,0.000000
593.131197,1110.308913,9104.533087,2834.553343
593.131517,5107.421000,8142.265362,1685.410096
593.131837,7550.100608,7550.100608,0.000000
593.132158,6069.688724,9104.533087,-1532.190996
593.132478,2590.720797,12065.356855,-1838.629195
593.132799,3775.050304,13767.830521,-689.485948
593.133119,5921.647536,12731.542202,229.828649
593.133440,6735.874072,7402.059420,-1532.190996
593.133760,5699.585753,3330.926739,-689.485948
593.134080,3552.988522,5403.503377,2068.457845
593.134401,1036.288319,9696.697840,2451.505594
593.134721,2368.659014,10436.903782,1072.533697
593.135042,4885.359217,7328.038826,-2145.067394
593.135362,7179.997637,5625.565159,-2451.505594
593.135683,5403.503377,4515.256246,1685.410096
593.136003,3256.906145,6069.688724,3983.696590
593.136323,3701.029710,7179.997637,2374.896044
593.136644,3404.947333,7698.141797,-1455.581446
593.136964,6365.771101,7698.141797,-3217.601092
593.137285,8734.430116,7772.162391,-1532.190996
593.137605,6439.791695,8586.388927,612.876398
593.137926,7254.018232,8882.471304,383.047749
593.138246,6809.894666,8290.306550,-766.095498
593.138566,3923.091493,4811.338623,-3983.696590
593.138887,4663.297435,3034.844362,-2757.943793
593.139207,6809.894666,6439.791695,1455.581446
593.139528,5255.462188,8956.491898,2757.943793
593.139848,5107.421000,9104.533087,1072.533697
593.140169,6291.750507,7846.182985,-2451.505594
593.140489,3034.844362,5921.647536,-3294.210641
593.140809,2516.700203,4293.194464,995.924147
593.141130,6143.709319,6513.812290,4519.963438
593.141450,3849.070898,9918.759623,1685.410096
593.141771,1406.391290,9030.512492,-1302.362347
593.142091,5773.606348,8882.471304,-3064.381992
593.142412,7179.997637,10362.883188,-1762.019645
593.142732,4441.235652,11177.109724,2298.286494
593.143052,5403.503377,9548.656652,2757.943793
593.143373,5181.441594,7402.059420,-459.657299
593.143693,4737.318029,7254.018232,-1915.238745
593.144014,3997.112087,6291.750507,689.485948
593.144334,3849.070898,8068.244768,536.266849
593.144655,5107.421000,10510.924376,306.438199
593.144975,4885.359217,11843.295072,0.000000
593.145295,4441.235652,9622.677246,-2374.896044
593.145616,6661.853478,6365.771101,-1838.629195
593.145936,5773.606348,6883.915261,1455.581446
593.146257,4959.379811,7846.182985,1685.410096
593.146577,3552.988522,7994.224174,459.657299
593.146898,5773.606348,9326.594869,-1302.362347
593.147218,7698.141797,10584.944971,-1225.752797
593.147538,5551.544565,9178.553681,306.438199
593.147859,6513.812290,8586.388927,-383.047749
593.148179,8142.265362,8364.327145,-995.924147
593.148500,3404.947333,6439.791695,-1838.629195
593.148820,3108.864956,2886.803174,-1915.238745
593.149141,7105.977043,4663.297435,383.047749
593.149461,5995.668130,9400.615463,2374.896044
593.149781,2960.823768,12657.521608,2221.676944
593.150102,5255.462188,11843.295072,-2298.286494
593.150422,5255.462188,9548.656652,-4826.401637
593.150743,2442.679609,6587.832884,-536.266849
593.151063,3849.070898,5403.503377,3140.991542
593.151384,4515.256246,7105.977043,2221.676944
593.151704,888.247130,8808.450710,153.219100
593.152024,740.205942,8586.388927,-1302.362347
593.152345,4293.194464,8438.347739,-1532.190996
593.152665,4441.235652,8660.409521,536.266849
593.152986,3849.070898,9400.615463,2374.896044
593.153306,3923.091493,7328.038826,689.485948
593.153627,4811.338623,7402.059420,-2221.676944
593.153947,4737.318029,7105.977043,-766.095498
593.154267,5181.441594,7031.956449,0.000000
593.154588,6809.894666,9696.697840,689.485948
593.154908,5995.668130,11177.109724,0.000000
593.155229,5033.400406,9622.677246,-1225.752797
593.155549,7402.059420,7179.997637,76.609550
593.155870,8216.285956,5403.503377,1072.533697
593.156190,3775.050304,2886.803174,306.438199
593.156510,2812.782580,2516.700203,-383.047749
593.156831,5181.441594,7402.059420,-536.266849
593.157151,6365.771101,10584.944971,229.828649
593.157472,5847.626942,9178.553681,-459.657299
593.157792,10732.986159,9104.533087,-1608.800546
593.158113,8586.388927,9696.697840,-536.266849
593.158433,2072.576638,8882.471304,-766.095498
593.158753,3923.091493,6143.709319,-766.095498
593.159074,7328.038826,5329.482782,0.000000
593.159394,6661.853478,6587.832884,919.314598
593.159715,5181.441594,8586.388927,1838.629195
593.160035,3701.029710,9474.636058,-1532.190996
593.160356,2590.720797,10140.821405,-2451.505594
593.160676,2220.617826,7920.203579,919.314598
593.160996,5699.585753,5921.647536,2298.286494
593.161317,5625.565159,6069.688724,1915.238745
593.161637,1998.556043,7105.977043,-229.828649
593.161958,1924.535449,10807.006753,-1532.190996
593.162278,4737.318029,11547.212695,-1608.800546
593.162599,5477.523971,9252.574275,153.219100
593.162919,7772.162391,8068.244768,1762.019645
593.163239,4441.235652,6661.853478,-76.609550
593.163560,3182.885551,8142.265362,-2681.334243
593.163880,2294.638420,8438.347739,-2145.067394
593.164201,5181.441594,8586.388927,-1532.190996
593.164521,8734.430116,7624.121203,76.609550
593.164842,7328.038826,7328.038826,-76.609550
593.165162,4293.194464,10140.821405,-1072.533697
593.165482,6217.729913,12583.501014,536.266849
593.165803,6365.771101,9326.594869,1915.238745
593.166123,5625.565159,5181.441594,-383.047749
593.166444,6439.791695,3478.967927,-229.828649
593.166764,4885.359217,8216.285956,383.047749
593.167085,3108.864956,11103.089130,383.047749
593.167405,2664.741391,10140.821405,-229.828649
593.167725,8660.409521,7994.224174,-2145.067394
593.168046,6735.874072,6809.894666,-1302.362347
593.168366,3330.926739,6439.791695,-459.657299
593.168687,3330.926739,8512.368333,229.828649
593.169007,4885.359217,10658.965565,919.314598
593.169328,5181.441594,9030.512492,-306.438199
593.169648,7328.038826,9030.512492,536.266849
593.169968,4663.297435,7920.203579,-612.876398
593.170289,2294.638420,9844.739029,-766.095498
593.170609,2072.576638,9178.553681,536.266849
593.170930,5699.585753,7476.080014,536.266849
593.171250,6217.729913,6217.729913,1149.143247
593.171571,3034.844362,4145.153275,612.876398
593.171891,2886.803174,8142.265362,-1225.752797
593.172211,4885.359217,11029.068536,-689.485948
593.172532,4737.318029,10066.800811,306.438199
593.172852,7920.203579,7105.977043,0.000000
593.173173,8216.285956,5773.606348,-766.095498
593.173493,4885.359217,7031.956449,0.000000
593.173814,4219.173869,8068.244768,1225.752797
593.174134,6439.791695,8142.265362,842.705048
593.174454,7550.100608,7550.100608,-689.485948
593.174775,8068.244768,6735.874072,-536.266849
593.175095,5403.503377,6735.874072,-995.924147
593.175416,6957.935855,8882.471304,995.924147
593.175736,6365.771101,8068.244768,2834.553343
593.176057,4663.297435,4071.132681,76.609550
593.176377,6143.709319,2960.823768,-2374.896044
593.176697,5847.626942,6883.915261,-1149.143247
593.177018,3404.947333,9400.615463,536.266849
593.177338,7254.018232,9696.697840,1072.533697
593.177659,9474.636058,8512.368333,-842.705048
593.177979,5477.523971,7105.977043,-1991.848295
593.178300,3997.112087,5477.523971,-919.314598
593.178620,4811.338623,7624.121203,1149.143247
593.178940,4885.359217,9030.512492,1149.143247
593.179261,5255.462188,9104.533087,306.438199
593.179581,5995.668130,8660.409521,-2145.067394
593.179902,4663.297435,9918.759623,-3140.991542
593.180222,1998.556043,10066.800811,459.657299
593.180543,2072.576638,8512.368333,1838.629195
593.180863,5403.503377,8660.409521,842.705048
593.181183,3330.926739,6957.935855,1149.143247
593.181504,2368.659014,7328.038826,-229.828649
593.181824,3182.885551,9696.697840,383.047749
593.182145,3182.885551,10436.903782,689.485948
593.182465,5625.565159,10732.986159,1915.238745
593.182786,6143.709319,8882.471304,536.266849
593.183106,4737.318029,7105.977043,-1915.238745
593.183426,4145.153275,8364.327145,-1072.533697
593.183747,3552.988522,8290.306550,536.266849
593.184067,5255.462188,9770.718434,995.924147
593.184388,6439.791695,9400.615463,689.485948
593.184708,7105.977043,8882.471304,-2681.334243
593.185029,4441.235652,8216.285956,-1838.629195
593.185349,4293.194464,7550.100608,766.095498
593.185669,5921.647536,7772.162391,2374.896044
593.185990,4145.153275,5921.647536,0.000000
593.186310,4959.379811,5921.647536,-1302.362347
593.186631,5921.647536,9326.594869,-995.924147
593.186951,4959.379811,9844.739029,0.000000
593.187272,2664.741391,9622.677246,1072.533697
593.187592,7624.121203,9252.574275,383.047749
593.187912,7105.977043,7846.182985,-842.705048
593.188233,5107.421000,5847.626942,-1685.410096
593.188553,3701.029710,3034.844362,0.000000
593.188874,4885.359217,6069.688724,459.657299
593.189194,5033.400406,7846.182985,842.705048
593.189515,6217.729913,8142.265362,-612.876398
593.189835,7994.224174,7920.203579,-2528.115143
593.190155,8364.327145,9622.677246,-1991.848295
593.190476,2294.638420,8290.306550,536.266849
593.190796,3404.947333,7698.141797,1915.238745
593.191117,5847.626942,6217.729913,2451.505594
593.191437,4885.359217,5403.503377,766.095498
593.191758,4737.318029,5477.523971,-1302.362347
593.192078,6143.709319,6883.915261,-1455.581446
593.192398,3997.112087,8586.388927,-689.485948
593.192719,4515.256246,9474.636058,1225.752797
593.193039,6513.812290,6883.915261,76.609550
593.193360,7179.997637,6587.832884,-1991.848295
593.193680,6365.771101,6217.729913,-1149.143247
593.194001,4071.132681,7698.141797,-1225.752797
593.194321,4293.194464,9622.677246,-2374.896044
593.194641,6069.688724,10584.944971,-1455.581446
593.194962,7105.977043,11473.192101,919.314598
593.195282,6291.750507,11251.130318,1455.581446
593.195603,2960.823768,11917.315666,229.828649
593.195923,-222.061783,9252.574275,0.000000
593.196244,0.000000,7994.224174,153.219100
593.196564,3997.112087,6439.791695,2681.334243
593.196884,4071.132681,5847.626942,2451.505594
593.197205,2368.659014,7624.121203,1915.238745
593.197525,1258.350101,11621.233289,76.609550
593.197846,1924.535449,12509.480420,-1149.143247
593.198166,2664.741391,9992.780217,-229.828649
593.198487,7846.182985,6513.812290,689.485948
593.198807,8216.285956,5847.626942,1072.533697
593.199127,3552.988522,7624.121203,459.657299
593.199448,4219.173869,8808.450710,153.219100
593.199768,7476.080014,10732.986159,-306.438199
593.200089,9844.739029,9400.615463,-1149.143247
593.200409,9474.636058,4737.318029,-1991.848295
593.200730,9030.512492,2812.782580,-2451.505594
593.201050,7920.203579,3849.070898,0.000000
593.201370,6217.729913,2886.803174,2221.676944
593.201691,9030.512492,962.267725,689.485948
593.202011,12435.459826,2294.638420,-1991.848295
593.202332,10510.924376,4959.379811,-2528.115143
593.202652,8364.327145,8290.306550,-1915.238745
593.202973,9696.697840,10584.944971,-1455.581446
593.203293,9622.677246,9104.533087,-383.047749
593.203613,10066.800811,5255.462188,0.000000
593.203934,8734.430116,2738.761985,-306.438199
593.204254,4885.359217,4959.379811,-1225.752797
593.204575,2368.659014,9696.697840,-1302.362347
593.204895,3552.988522,9104.533087,-306.438199
593.205216,6735.874072,7624.121203,153.219100
593.205536,9030.512492,7402.059420,1455.581446
593.205856,3627.009116,5625.565159,995.924147
593.206177,2590.720797,4293.194464,229.828649
593.206497,4589.276840,5329.482782,2604.724693
593.206818,6217.729913,4737.318029,3830.477490
593.207138,9770.718434,2590.720797,3140.991542
593.207459,13471.748144,4811.338623,1149.143247
593.207779,10510.924376,7328.038826,-1455.581446
593.208099,10140.821405,8808.450710,-1838.629195
593.208420,11547.212695,4071.132681,-2681.334243
593.208740,14656.077652,962.267725,-4060.306139
593.209061,18357.107362,2072.576638,-1991.848295
593.209381,14285.974681,4663.297435,-1378.971896
593.209702,11843.295072,6513.812290,-3753.867940
593.210022,12213.398043,6365.771101,-1838.629195
593.210342,13027.624579,3997.112087,-306.438199
593.210663,13249.686362,2664.741391,-689.485948
593.210983,12213.398043,3701.029710,-612.876398
593.211304,8586.388927,5551.544565,-1225.752797
593.211624,6365.771101,6439.791695,0.000000
593.211945,6883.915261,5329.482782,995.924147
593.212265,8512.368333,5181.441594,1149.143247
593.212585,6069.688724,6661.853478,1302.362347
593.212906,4885.359217,8068.244768,0.000000
593.213226,3775.050304,7328.038826,-1455.581446
593.213547,3701.029710,4589.276840,-766.095498
593.213867,5403.503377,4737.318029,229.828649
593.214188,7105.977043,7254.018232,612.876398
593.214508,8364.327145,9770.718434,-459.657299
593.214828,9474.636058,10658.965565,-1455.581446
593.215149,8216.285956,7476.080014,-1532.190996
593.215469,10066.800811,4885.359217,-229.828649
593.215790,9548.656652,2072.576638,1072.533697
593.216110,10732.986159,2368.659014,459.657299
593.216431,13027.624579,5699.585753,536.266849
593.216751,12361.439231,7920.203579,-1149.143247
593.217071,9844.739029,6069.688724,-1378.971896
593.217392,9474.636058,2960.823768,306.438199
593.217712,10658.965565,3182.885551,1685.410096
593.218033,10510.924376,4959.379811,995.924147
593.218353,11991.336260,5477.523971,-1685.410096
593.218674,10732.986159,5033.400406,-4673.182538
593.218994,8586.388927,4367.215058,-4290.134789
593.219314,9770.718434,6587.832884,-536.266849
593.219635,9696.697840,9844.739029,1762.019645
593.219955,8734.430116,10066.800811,536.266849
593.220276,9474.636058,9030.512492,0.000000
593.220596,7105.977043,6735.874072,-919.314598
593.220917,4071.132681,3923.091493,-153.219100
593.221237,3478.967927,3404.947333,2298.286494
593.221557,4885.359217,4145.153275,2298.286494
593.221878,6513.812290,7328.038826,536.266849
593.222198,5847.626942,8512.368333,536.266849
593.222519,5181.441594,7476.080014,-919.314598
593.222839,7624.121203,7994.224174,1455.581446
593.223160,8734.430116,8882.471304,4519.963438
593.223480,8364.327145,8438.347739,3447.429741
593.223800,9030.512492,4737.318029,1915.238745
593.224121,9548.656652,3404.947333,0.000000
593.224441,9622.677246,4737.318029,1072.533697
593.224762,8882.471304,3849.070898,689.485948
593.225082,10732.986159,2738.761985,-3140.991542
593.225403,12879.583391,1406.391290,-4290.134789
593.225723,13767.830521,1036.288319,-1991.848295
593.226043,14285.974681,3330.926739,1838.629195
593.226364,12509.480420,4959.379811,2451.505594
593.226684,9622.677246,5403.503377,-536.266849
593.227005,9918.759623,4811.338623,-2681.334243
593.227325,12509.480420,2146.597232,-2145.067394
593.227646,12879.583391,2368.659014,-689.485948
593.227966,10881.027347,3256.906145,-919.314598
593.228286,9770.718434,4811.338623,-2757.943793
593.228607,9770.718434,6587.832884,-3677.258390
593.228927,8734.430116,7179.997637,-1072.533697
593.229248,9326.594869,6735.874072,1915.238745
593.229568,8882.471304,6809.894666,3370.820191
593.229889,7031.956449,7698.141797,2757.943793
593.230209,4515.256246,6809.894666,1762.019645
593.230529,5107.421000,5551.544565,-229.828649
593.230850,6661.853478,4737.318029,-1225.752797
593.231171,6957.935855,5773.606348,-306.438199
593.231491,6735.874072,7031.956449,383.047749
593.231812,7846.182985,7624.121203,1455.581446
593.232132,7402.059420,7624.121203,612.876398
593.232453,7698.141797,6587.832884,1455.581446
593.232773,9252.574275,6883.915261,2604.724693
593.233094,10732.986159,7031.956449,2528.115143
593.233414,10955.047942,5773.606348,229.828649
593.233735,13175.665768,5033.400406,-2834.553343
593.234055,11325.150913,3108.864956,-5898.935335
593.234376,12583.501014,2516.700203,-2834.553343
593.234696,14359.995275,4145.153275,842.705048
593.235017,15470.304188,5033.400406,842.705048
593.235337,13397.727550,4885.359217,-1455.581446
593.235658,12287.418637,6217.729913,-1991.848295
593.235978,8882.471304,4441.235652,-1455.581446
593.236299,10881.027347,4071.132681,0.000000
593.236620,11251.130318,4145.153275,306.438199
593.236940,10658.965565,5107.421000,-2451.505594
593.237261,8512.368333,6365.771101,-3524.039291
593.237581,7105.977043,7624.121203,-2451.505594
593.237902,4959.379811,7254.018232,0.000000
593.238222,5773.606348,7254.018232,3140.991542
593.238543,6143.709319,8438.347739,3217.601092
593.238863,5033.400406,8512.368333,1762.019645
593.239184,3627.009116,7698.141797,536.266849
593.239504,3701.029710,6143.709319,0.000000
593.239825,4367.215058,4441.235652,536.266849
593.240145,7105.977043,4589.276840,2604.724693
593.240466,7994.224174,4885.359217,1991.848295
593.240786,8586.388927,5625.565159,-612.876398
593.241107,9474.636058,5477.523971,-612.876398
593.241428,10955.047942,4367.215058,842.705048
593.241748,12435.459826,3330.926739,2298.286494
593.242069,13841.851115,2368.659014,919.314598
593.242389,14359.995275,2886.803174,-1762.019645
593.242710,15100.201217,3701.029710,-2374.896044
593.243030,14804.118840,4737.318029,-689.485948
593.243351,13915.871710,3552.988522,-995.924147
593.243671,13545.768739,1924.535449,-2374.896044
593.243992,14730.098246,3034.844362,-2528.115143
593.244312,12953.603985,3849.070898,-1608.800546
593.244633,10436.903782,3404.947333,-612.876398
593.244953,11621.233289,3034.844362,0.000000
593.245274,9696.697840,3256.906145,-229.828649
593.245594,7698.141797,4367.215058,383.047749
593.245915,8142.265362,6365.771101,842.705048
593.246235,8290.306550,8216.285956,0.000000
593.246556,5995.668130,7031.956449,536.266849
593.246877,5921.647536,5995.668130,1455.581446
593.247197,6513.812290,6587.832884,536.266849
593.247518,3923.091493,7402.059420,0.000000
593.247838,4071.132681,8142.265362,153.219100
593.248159,6143.709319,8290.306550,536.266849
593.248479,6587.832884,7476.080014,459.657299
593.248800,6957.935855,7920.203579,2145.067394
593.249120,6513.812290,8364.327145,1991.848295
593.249441,5995.668130,6217.729913,536.266849
593.249761,8512.368333,4219.173869,1072.533697
593.250082,9696.697840,3404.947333,2298.286494
593.250402,11251.130318,3404.947333,842.705048
593.250723,11251.130318,3775.050304,0.000000
593.251043,11103.089130,4293.194464,-2374.896044
593.251364,13545.768739,4441.235652,-1838.629195
593.251685,14508.036463,3775.050304,0.000000
593.252005,15248.242405,3849.070898,-383.047749
593.252326,14137.933492,5255.462188,-1991.848295
593.252646,11917.315666,6439.791695,-3370.820191
593.252967,11325.150913,5551.544565,-3524.039291
593.253287,12583.501014,3330.926739,-2374.896044
593.253608,13027.624579,3849.070898,-1225.752797
593.253928,10436.903782,6513.812290,-1072.533697
593.254249,7105.977043,8142.265362,-919.314598
593.254569,6143.709319,8364.327145,0.000000
593.254890,6143.709319,5921.647536,1915.238745
593.255210,6661.853478,4293.194464,3677.258390
593.255531,6365.771101,5625.565159,2681.334243
593.255851,3923.091493,6069.688724,612.876398
593.256172,3478.967927,6143.709319,0.000000
593.256492,5625.565159,5773.606348,1378.971896
593.256813,7254.018232,5921.647536,2068.457845
593.257134,7105.977043,6513.812290,1455.581446
593.257454,8068.244768,8290.306550,0.000000
593.257775,8660.409521,8808.450710,-1225.752797
593.258095,8660.409521,6957.935855,-383.047749
593.258416,10362.883188,3627.009116,383.047749
593.258736,11547.212695,1998.556043,689.485948
593.259057,11473.192101,2516.700203,459.657299
593.259377,12213.398043,4737.318029,-1685.410096
593.259698,12139.377449,4663.297435,-3140.991542
593.260018,12953.603985,3182.885551,-2298.286494
593.260339,14804.118840,3182.885551,766.095498
593.260659,13841.851115,2886.803174,689.485948
593.260980,12657.521608,2886.803174,-1608.800546
593.261300,11991.336260,3701.029710,-2911.162892
593.261621,11547.212695,5181.441594,-3600.648841
593.261941,11325.150913,6291.750507,-1302.362347
593.262262,11029.068536,6883.915261,459.657299
593.262583,9622.677246,7105.977043,153.219100
593.262903,7402.059420,6439.791695,76.609550
593.263224,5773.606348,6143.709319,459.657299
593.263544,4663.297435,5033.400406,995.924147
593.263865,4959.379811,5255.462188,1378.971896
593.264185,6291.750507,7254.018232,2374.896044
593.264506,6069.688724,8142.265362,2298.286494
593.264826,5329.482782,8290.306550,2221.676944
593.265147,4589.276840,7105.977043,2145.067394
593.265467,4737.318029,4885.359217,1455.581446
593.265788,6439.791695,4145.153275,1608.800546
593.266108,8438.347739,4811.338623,1072.533697
593.266429,9696.697840,6291.750507,-306.438199
593.266749,10362.883188,7846.182985,-1532.190996
593.267070,11251.130318,7476.080014,-1302.362347
593.267391,12657.521608,4885.359217,-1608.800546
593.267711,13397.727550,2812.782580,-383.047749
593.268032,13767.830521,1702.473667,-995.924147
593.268352,13175.665768,1628.453072,-1991.848295
593.268673,13175.665768,2146.597232,-2528.115143
593.268993,13841.851115,4071.132681,-1149.143247
593.269314,13915.871710,5255.462188,-306.438199
593.269634,12879.583391,5921.647536,-1225.752797
593.269955,11029.068536,6217.729913,-2298.286494
593.270275,8142.265362,5329.482782,-1838.629195
593.270596,7105.977043,4441.235652,383.047749
593.270916,7105.977043,4589.276840,1225.752797
593.271237,6513.812290,5255.462188,459.657299
593.271557,5847.626942,7031.956449,-536.266849
593.271878,5625.565159,8734.430116,-306.438199
593.272198,5551.544565,9770.718434,842.705048
593.272519,5477.523971,9252.574275,1991.848295
593.272840,5107.421000,7772.162391,2298.286494
593.273160,5329.482782,6069.688724,1915.238745
593.273481,4959.379811,5773.606348,1915.238745
593.273801,5107.421000,5107.421000,1378.971896
593.274122,6809.894666,5033.400406,76.609550
593.274442,8660.409521,5329.482782,-383.047749
593.274763,9918.759623,6439.791695,-1149.143247
593.275083,11399.171507,7179.997637,-1915.238745
593.275404,12657.521608,6883.915261,-1838.629195
593.275724,12657.521608,5995.668130,0.000000
593.276045,12583.501014,3849.070898,919.314598
593.276365,12213.398043,3775.050304,612.876398
593.276686,11325.150913,4589.276840,-1915.238745
593.277006,10732.986159,5551.544565,-3600.648841
593.277327,11103.089130,5699.585753,-3524.039291
593.277647,11547.212695,5033.400406,-2604.724693
593.277968,10807.006753,4071.132681,-1072.533697
593.278289,9770.718434,4367.215058,612.876398
593.278609,8808.450710,5033.400406,1378.971896
593.278930,7846.182985,5847.626942,1685.410096
593.279250,7772.162391,5625.565159,1608.800546
593.279571,8290.306550,4885.359217,459.657299
593.279891,8068.244768,5107.421000,76.609550
593.280212,7772.162391,6735.874072,0.000000
593.280532,8068.244768,7994.224174,-229.828649
593.280853,7402.059420,7920.203579,-459.657299
593.281173,7772.162391,6809.894666,0.000000
593.281494,8068.244768,5551.544565,689.485948
593.281814,7550.100608,5107.421000,1072.533697
593.282135,7179.997637,4145.153275,919.314598
593.282455,8364.327145,3849.070898,1378.971896
593.282776,10140.821405,3478.967927,842.705048
593.283097,10658.965565,3552.988522,76.609550
593.283417,9548.656652,4293.194464,-1225.752797
593.283738,10066.800811,5181.441594,-2451.505594
593.284058,10955.047942,5625.565159,-2451.505594
593.284379,12065.356855,5477.523971,-1225.752797
593.284699,12361.439231,5847.626942,-995.924147
593.285020,11399.171507,5699.585753,-1149.143247
593.285340,9918.759623,5699.585753,-612.876398
593.285661,9326.594869,5625.565159,536.266849
593.285981,9326.594869,4885.359217,689.485948
593.286302,9844.739029,4737.318029,76.609550
593.286622,9178.553681,4811.338623,-689.485948
593.286943,7846.182985,4959.379811,-689.485948
593.287263,7846.182985,4293.194464,-689.485948
593.287584,7772.162391,4219.173869,153.219100
593.287904,7994.224174,5995.668130,-229.828649
593.288225,7994.224174,8068.244768,-459.657299
593.288546,7994.224174,9326.594869,0.000000
593.288866,8068.244768,9400.615463,1149.143247
593.289187,8512.368333,7994.224174,2374.896044
593.289507,8438.347739,6661.853478,2374.896044
593.289828,7550.100608,5625.565159,1838.629195
593.290148,6809.894666,4811.338623,1072.533697
593.290469,7624.121203,4515.256246,229.828649
593.290789,8882.471304,3775.050304,689.485948
593.291110,9844.739029,3997.112087,689.485948
593.291430,10066.800811,5403.503377,76.609550
593.291751,10214.842000,7476.080014,-689.485948
593.292071,9992.780217,8438.347739,-612.876398
593.292392,9622.677246,7994.224174,0.000000
593.292712,9104.533087,7105.977043,306.438199
593.293033,7994.224174,6661.853478,689.485948
593.293353,6809.894666,7031.956449,1149.143247
593.293674,6069.688724,6365.771101,76.609550
593.293995,5995.668130,5995.668130,-995.924147
593.294315,5403.503377,5551.544565,-612.876398
593.294636,5181.441594,6143.709319,76.609550
593.294956,5403.503377,7698.141797,919.314598
593.295277,5403.503377,9474.636058,1685.410096
593.295597,6069.688724,10288.862594,2145.067394
593.295918,6587.832884,10140.821405,3370.820191
593.296238,6291.750507,9326.594869,3600.648841
593.296559,5625.565159,8660.409521,3677.258390
593.296879,4885.359217,7846.182985,3524.039291
593.297200,4959.379811,8142.265362,3677.258390
593.297520,5403.503377,8882.471304,3753.867940
593.297841,5847.626942,9104.533087,3677.258390
593.298161,5921.647536,8734.430116,4213.525239
593.298482,5477.523971,7994.224174,4519.963438
593.298803,5625.565159,7550.100608,4749.792088
593.299123,5921.647536,7550.100608,5362.668486
593.299444,6957.935855,7698.141797,5209.449386
593.299764,7105.977043,8438.347739,5056.230287
593.300085,6883.915261,9030.512492,5439.278036
593.300405,7254.018232,9178.553681,5439.278036
593.300726,7179.997637,9252.574275,6205.373534
593.301046,7105.977043,8290.306550,6588.421283
593.301367,6957.935855,7328.038826,6511.811733
593.301687,6439.791695,6735.874072,6205.373534
593.302008,5551.544565,5847.626942,5898.935335
593.302328,5255.462188,5181.441594,6358.592633
593.302649,6217.729913,5847.626942,7048.078582
593.302969,6143.709319,7328.038826,6435.202183
593.303290,5847.626942,8290.306550,5975.544884
593.303610,5329.482782,8512.368333,6128.763984
593.303931,4959.379811,7698.141797,6971.469032
593.304252,3997.112087,7328.038826,7814.174080
593.304572,3627.009116,6587.832884,7890.783629
593.304893,2960.823768,6291.750507,7354.516781
593.305213,2442.679609,6365.771101,6741.640382
593.305534,2146.597232,6587.832884,7048.078582
593.305854,2220.617826,6587.832884,6358.592633
593.306175,2516.700203,6439.791695,6281.983084
593.306495,2442.679609,6957.935855,6894.859482
593.306816,2590.720797,7624.121203,7277.907231
593.307136,3108.864956,7698.141797,7584.345430
593.307457,3552.988522,7846.182985,7277.907231
593.307777,4071.132681,7846.182985,6818.249932
593.308098,4071.132681,7179.997637,6128.763984
593.308418,3923.091493,6735.874072,5132.839837
593.308739,4071.132681,5255.462188,4749.792088
593.309060,3775.050304,3701.029710,4366.744339
593.309380,3849.070898,3552.988522,4213.525239
593.309701,4071.132681,3849.070898,3524.039291
593.310021,3997.112087,5107.421000,2374.896044
593.310342,5477.523971,6735.874072,1685.410096
593.310662,6513.812290,8512.368333,2298.286494
593.310983,7254.018232,9992.780217,2834.553343
593.311303,7550.100608,10955.047942,2681.334243
593.311624,7179.997637,11621.233289,2145.067394
593.311944,6957.935855,10214.842000,2681.334243
593.312265,6587.832884,9770.718434,4979.620737
593.312585,6439.791695,9770.718434,6588.421283
593.312906,4663.297435,10066.800811,6665.030833
593.313226,3552.988522,9474.636058,6052.154434
593.313547,2812.782580,7254.018232,5362.668486
593.313867,2220.617826,4293.194464,3907.087040
593.314188,2146.597232,1628.453072,3294.210641
593.314509,3997.112087,2368.659014,2528.115143
593.314829,5773.606348,6809.894666,842.705048
593.315150,6883.915261,12879.583391,-766.095498
593.315470,9104.533087,16802.674883,-1378.971896
593.315791,11103.089130,18431.127956,-459.657299
593.316111,10732.986159,17912.983796,3064.381992
593.316432,9030.512492,14434.015869,5362.668486
593.316752,7402.059420,9696.697840,6358.592633
593.317073,6143.709319,7105.977043,6052.154434
593.317393,4293.194464,5625.565159,7201.297681
593.317714,2220.617826,5625.565159,5132.839837
593.318034,1924.535449,5773.606348,3294.210641
593.318355,2960.823768,5995.668130,2451.505594
593.318675,3330.926739,5181.441594,3524.039291
593.318996,5403.503377,5329.482782,3983.696590
593.319316,6735.874072,7550.100608,3447.429741
593.319637,6069.688724,11547.212695,2528.115143
593.319958,6365.771101,14211.954086,2068.457845
593.320278,8142.265362,15100.201217,1302.362347
593.320599,9918.759623,15692.365970,1378.971896
593.320919,7550.100608,13101.645173,3294.210641
593.321240,5181.441594,7698.141797,5515.887586
593.321560,5625.565159,3775.050304,7660.954980
593.321881,1036.288319,2442.679609,7890.783629
593.322201,1406.391290,3627.009116,5745.716235
593.322522,3775.050304,5329.482782,3983.696590
593.322842,5995.668130,7031.956449,5362.668486
593.323163,4737.318029,6957.935855,7584.345430
593.323483,6513.812290,6513.812290,9806.022374
593.323804,7031.956449,8364.327145,9346.365076
593.324124,4071.132681,11251.130318,7431.126331
593.324445,1924.535449,10288.862594,5286.058936
593.324766,3923.091493,8512.368333,3217.601092
593.325086,5329.482782,5181.441594,4366.744339
593.325407,4663.297435,5033.400406,7967.393179
593.325727,5847.626942,8142.265362,8810.098227
593.326048,1258.350101,9400.615463,5209.449386
593.326368,814.226536,9252.574275,3753.867940
593.326689,3552.988522,6143.709319,5515.887586
593.327009,4959.379811,3034.844362,6741.640382
593.327330,4441.235652,2072.576638,7277.907231
593.327650,6587.832884,5625.565159,7967.393179
593.327971,6587.832884,10807.006753,6741.640382
593.328291,4663.297435,11843.295072,4749.792088
593.328612,5107.421000,8734.430116,4596.572988
593.328932,5773.606348,5551.544565,4979.620737
593.329253,2516.700203,3997.112087,7354.516781
593.329573,3108.864956,4515.256246,10955.165621
593.329894,6809.894666,7994.224174,10725.336972
593.330214,3256.906145,11029.068536,7277.907231
593.330535,2664.741391,12065.356855,4673.182538
593.330856,4219.173869,10436.903782,3447.429741
593.331176,4219.173869,7254.018232,3830.477490
593.331497,2960.823768,3775.050304,6052.154434
593.331817,5625.565159,2812.782580,6818.249932
593.332138,5995.668130,5255.462188,7354.516781
593.332458,4145.153275,8216.285956,7048.078582
593.332779,3849.070898,8512.368333,4749.792088
593.333099,5625.565159,9104.533087,3600.648841
593.333420,5255.462188,9696.697840,5439.278036
593.333740,4663.297435,9622.677246,6128.763984
593.334061,6957.935855,9252.574275,5439.278036
593.334381,7550.100608,8734.430116,3447.429741
593.334702,5773.606348,7772.162391,1378.971896
593.335022,4145.153275,5847.626942,383.047749
593.335343,5033.400406,5477.523971,1915.238745
593.335663,4737.318029,7476.080014,4979.620737
593.335984,6513.812290,10288.862594,6665.030833
593.336304,7031.956449,11177.109724,5745.716235
593.336625,6291.750507,10955.047942,3370.820191
593.336945,5551.544565,10881.027347,2451.505594
593.337266,4811.338623,10214.842000,4519.963438
593.337586,4219.173869,8364.327145,5592.497135
593.337907,5255.462188,6957.935855,5898.935335
593.338227,5329.482782,7846.182985,6665.030833
593.338548,4663.297435,8586.388927,5975.544884
593.338868,4441.235652,9104.533087,3983.696590
593.339189,4885.359217,9696.697840,3677.258390
593.339509,6143.709319,10288.862594,5515.887586
593.339830,7105.977043,9326.594869,6511.811733
593.340150,6513.812290,8882.471304,4749.792088
593.340471,4663.297435,8142.265362,3600.648841
593.340791,5107.421000,8956.491898,3370.820191
593.341112,6661.853478,9252.574275,3983.696590
593.341432,6143.709319,8512.368333,3677.258390
593.341753,5699.585753,8290.306550,2834.553343
593.342073,5847.626942,9178.553681,2528.115143
593.342394,3997.112087,8364.327145,4136.915689
593.342714,3330.926739,7402.059420,5745.716235
593.343035,5181.441594,6809.894666,5132.839837
593.343355,5551.544565,6143.709319,3064.381992
593.343676,4663.297435,6883.915261,4290.134789
593.343997,5181.441594,8808.450710,6128.763984
593.344317,4811.338623,9918.759623,6128.763984
593.344638,3404.947333,8808.450710,5822.325785
593.344958,3404.947333,6957.935855,4519.963438
593.345279,4885.359217,7105.977043,4749.792088
593.345599,4441.235652,8438.347739,5669.106685
593.345920,3256.906145,8734.430116,5669.106685
593.346240,2220.617826,6957.935855,3830.477490
593.346561,3256.906145,5551.544565,3830.477490
593.346881,3997.112087,5181.441594,5439.278036
593.347202,5181.441594,6809.894666,5822.325785
593.347522,5477.523971,9178.553681,4903.011187
593.347843,3849.070898,9178.553681,3600.648841
593.348163,4293.194464,7254.018232,3830.477490
593.348484,7402.059420,7105.977043,6358.592633
593.348804,7846.182985,9178.553681,8120.612279
593.349125,6143.709319,10510.924376,7584.345430
593.349445,4663.297435,10658.965565,4979.620737
593.349766,4219.173869,8142.265362,4366.744339
593.350086,5403.503377,5033.400406,7354.516781
593.350407,5995.668130,3997.112087,8886.707777
593.350727,4145.153275,5995.668130,5898.935335
593.351048,1628.453072,7179.997637,3294.210641
593.351368,1406.391290,5033.400406,1762.019645
593.351689,5995.668130,6217.729913,3294.210641
593.352009,8512.368333,9696.697840,6435.202183
593.352330,5255.462188,11251.130318,5209.449386
593.352650,5551.544565,10807.006753,1532.190996
593.352971,6735.874072,11029.068536,2374.896044
593.353291,5477.523971,9844.739029,7124.688131
593.353612,7254.018232,8734.430116,9039.926876
593.353932,6513.812290,9252.574275,6052.154434
593.354253,2146.597232,9474.636058,3294.210641
593.354573,1776.494261,7624.121203,4826.401637
593.354894,4515.256246,5403.503377,6665.030833
593.355214,4293.194464,4293.194464,7354.516781
593.355535,1924.535449,6143.709319,6818.249932
593.355855,2220.617826,8216.285956,3677.258390
593.356176,3034.844362,9918.759623,1838.629195
593.356496,4515.256246,9770.718434,5056.230287
593.356817,5995.668130,9918.759623,6052.154434
593.357137,5995.668130,10066.800811,4443.353888
593.357458,4663.297435,10658.965565,3907.087040
593.357779,4219.173869,9696.697840,5592.497135
593.358099,6587.832884,7994.224174,5439.278036
593.358420,6513.812290,7550.100608,5209.449386
593.358740,4959.379811,8956.491898,4903.011187
593.359061,3775.050304,7328.038826,3524.039291
593.359381,5847.626942,5773.606348,4136.915689
593.359702,7105.977043,5033.400406,5439.278036
593.360022,5477.523971,5329.482782,5439.278036
593.360343,4293.194464,5255.462188,3830.477490
593.360663,3849.070898,5477.523971,2298.286494
593.360984,4071.132681,5773.606348,1608.800546
593.361304,6513.812290,7402.059420,2068.457845
593.361625,7698.141797,9252.574275,2298.286494
593.361945,7476.080014,10732.986159,1838.629195
593.362266,6587.832884,11621.233289,3217.601092
593.362586,7031.956449,11695.253884,3140.991542
593.362907,6513.812290,9474.636058,2757.943793
593.363227,4959.379811,7328.038826,3983.696590
593.363548,4515.256246,6957.935855,5515.887586
593.363868,3849.070898,6513.812290,5592.497135
593.364189,3997.112087,7179.997637,3983.696590
593.364509,4441.235652,7994.224174,4290.134789
593.364830,2368.659014,5625.565159,4903.011187
593.365150,2664.741391,5033.400406,4519.963438
593.365471,5551.544565,7476.080014,4443.353888
593.365791,4441.235652,7476.080014,4596.572988
593.366112,6069.688724,8068.244768,3983.696590
593.366432,9104.533087,11843.295072,3983.696590
593.366753,5403.503377,13471.748144,3447.429741
593.367073,4737.318029,11843.295072,3370.820191
593.367394,7994.224174,11695.253884,3753.867940
593.367714,5699.585753,10214.842000,4290.134789
593.368035,3923.091493,7846.182985,6128.763984
593.368355,5477.523971,6513.812290,3524.039291
593.368676,3923.091493,5033.400406,1608.800546
593.368996,666.185348,3701.029710,4136.915689
593.369317,5477.523971,6365.771101,5822.325785
593.369637,6661.853478,9178.553681,3524.039291
593.369958,2442.679609,9770.718434,3447.429741
593.370278,6957.935855,11621.233289,5439.278036
593.370599,8512.368333,13027.624579,5056.230287
593.370919,4219.173869,11917.315666,5056.230287
593.371240,4663.297435,9104.533087,4519.963438
593.371561,6439.791695,7476.080014,2451.505594
593.371881,2812.782580,5773.606348,3600.648841
593.372202,2146.597232,5699.585753,5975.544884
593.372522,5181.441594,7846.182985,6281.983084
593.372843,5699.585753,10436.903782,6205.373534
593.373163,2294.638420,9474.636058,6665.030833
593.373484,4737.318029,7254.018232,5056.230287
593.373804,5551.544565,6439.791695,5056.230287
593.374125,3034.844362,5847.626942,7048.078582
593.374445,4293.194464,4737.318029,5439.278036
593.374766,6365.771101,6291.750507,1685.410096
593.375086,6291.750507,9474.636058,2145.067394
593.375407,4293.194464,9104.533087,4673.182538
593.375727,6069.688724,8216.285956,5056.230287
593.376048,5699.585753,9622.677246,7048.078582
593.376368,4737.318029,9918.759623,7201.297681
593.376689,3997.112087,6365.771101,3753.867940
593.377009,5773.606348,4145.153275,2221.676944
593.377330,5773.606348,3775.050304,3524.039291
593.377650,4663.297435,4145.153275,4596.572988
593.377971,4737.318029,5033.400406,3677.258390
593.378291,6587.832884,8142.265362,1915.238745
593.378612,8142.265362,12731.542202,3294.210641
593.378932,7031.956449,11991.336260,4366.744339
593.379253,6513.812290,8956.491898,5056.230287
593.379573,4737.318029,6735.874072,7584.345430
593.379894,4737.318029,6883.915261,8733.488677
593.380214,4293.194464,6661.853478,5592.497135
593.380535,2368.659014,5995.668130,1302.362347
593.380855,3775.050304,8438.347739,2221.676944
593.381176,5255.462188,7994.224174,5898.935335
593.381496,3034.844362,3997.112087,5056.230287
593.381817,4219.173869,4663.297435,3064.381992
593.382137,4959.379811,8068.244768,2528.115143
593.382458,1850.514855,8512.368333,2298.286494
593.382778,5699.585753,8438.347739,2451.505594
593.383099,9252.574275,10066.800811,2221.676944
593.383419,7328.038826,13619.789333,3370.820191
593.383740,6809.894666,13619.789333,4519.963438
593.384060,4589.276840,9474.636058,2451.505594
593.384381,3478.967927,5033.400406,1685.410096
593.384701,3182.885551,2516.700203,2374.896044
593.385022,3701.029710,3775.050304,536.266849
593.385343,4293.194464,6735.874072,0.000000
593.385663,3923.091493,10288.862594,2374.896044
593.385984,5921.647536,11991.336260,3217.601092
593.386304,5255.462188,10362.883188,1838.629195
593.386625,4663.297435,8956.491898,2451.505594
593.386945,3701.029710,7994.224174,3370.820191
593.387266,4219.173869,9474.636058,1685.410096
593.387586,4441.235652,10140.821405,-229.828649
593.387907,5847.626942,10584.944971,1302.362347
593.388227,6735.874072,10140.821405,3370.820191
593.388548,4885.359217,10066.800811,4136.915689
593.388868,1628.453072,9400.615463,1532.190996
593.389189,3552.988522,7254.018232,-153.219100
593.389509,4737.318029,5551.544565,1378.971896
593.389830,5033.400406,4737.318029,3677.258390
593.390150,6957.935855,7624.121203,3524.039291
593.390471,6217.729913,9326.594869,612.876398
593.390791,3701.029710,8882.471304,-2298.286494
593.391112,6587.832884,7698.141797,-1149.143247
593.391432,9696.697840,8438.347739,1455.581446
593.391753,8290.306550,8808.450710,3294.210641
593.392073,6735.874072,7698.141797,2451.505594
593.392394,6143.709319,7698.141797,-229.828649
593.392714,5625.565159,7846.182985,-459.657299
593.393035,5773.606348,7772.162391,1072.533697
593.393355,6587.832884,6809.894666,0.000000
593.393676,5773.606348,5551.544565,-2145.067394
593.393996,4071.132681,5551.544565,-919.314598
593.394317,3627.009116,5329.482782,1302.362347
593.394637,5847.626942,5995.668130,919.314598
593.394958,5551.544565,9918.759623,0.000000
593.395278,4737.318029,12139.377449,-1072.533697
593.395599,3627.009116,9030.512492,-1302.362347
593.395919,4515.256246,8438.347739,842.705048
593.396240,6365.771101,9770.718434,4979.620737
593.396560,4589.276840,9770.718434,3907.087040
593.396881,2442.679609,10658.965565,0.000000
593.397201,1110.308913,10288.862594,-1838.629195
593.397522,296.082377,7772.162391,1149.143247
593.397842,5033.400406,6587.832884,4673.182538
593.398163,4959.379811,5403.503377,3677.258390
593.398483,1850.514855,5255.462188,229.828649
593.398804,2812.782580,8660.409521,-612.876398
593.399125,4071.132681,8660.409521,0.000000
593.399445,4071.132681,6439.791695,842.705048
593.399766,7772.162391,7772.162391,919.314598
593.400086,9178.553681,11251.130318,-612.876398
593.400407,6365.771101,12953.603985,-1608.800546
593.400727,5847.626942,9622.677246,-1455.581446
593.401048,7254.018232,5699.585753,-1225.752797
593.401368,7254.018232,4737.318029,536.266849
593.401689,7550.100608,7179.997637,2374.896044
593.402009,4737.318029,8956.491898,-689.485948
593.402330,2368.659014,6661.853478,-3140.991542
593.402650,4737.318029,4811.338623,-612.876398
593.402971,7994.224174,5255.462188,2681.334243
593.403291,7254.018232,6957.935855,1991.848295
593.403612,3849.070898,8364.327145,-995.924147
593.403932,2960.823768,8882.471304,-4903.011187
593.404253,5255.462188,7846.182985,-2911.162892
593.404573,7550.100608,7920.203579,2528.115143
593.404894,7698.141797,10732.986159,4060.306139
593.405214,7031.956449,14285.974681,306.438199
593.405535,2294.638420,11917.315666,-2834.553343
593.405855,740.205942,5773.606348,-3064.381992
593.406176,2516.700203,666.185348,1455.581446
593.406496,5181.441594,4959.379811,4673.182538
593.406817,4071.132681,8512.368333,842.705048
593.407137,1184.329507,9622.677246,-5286.058936
593.407458,3849.070898,11621.233289,-4903.011187
593.407778,6809.894666,11769.274478,919.314598
593.408099,4737.318029,7031.956449,4290.134789
593.408419,4663.297435,5403.503377,2451.505594
593.408740,4959.379811,9252.574275,-1225.752797
593.409060,1406.391290,9400.615463,-3600.648841
593.409381,5329.482782,8586.388927,-2681.334243
593.409701,7624.121203,7846.182985,-1225.752797
593.410022,6365.771101,9030.512492,-536.266849
593.410342,4441.235652,9474.636058,-766.095498
593.410663,5773.606348,7994.224174,-2987.772442
593.410983,4441.235652,6513.812290,-2757.943793
593.411304,7105.977043,7328.038826,2987.772442
593.411624,6883.915261,7328.038826,3447.429741
593.411945,7624.121203,9030.512492,-919.314598
593.412265,6809.894666,11769.274478,-2834.553343
593.412586,6069.688724,10584.944971,-1991.848295
593.412907,5847.626942,6957.935855,-919.314598
593.413227,7402.059420,7402.059420,2604.724693
593.413548,5403.503377,9104.533087,3370.820191
593.413868,3552.988522,6439.791695,612.876398
593.414189,4959.379811,7105.977043,-2298.286494
593.414509,3256.906145,7698.141797,-1685.410096
593.414830,5181.441594,10288.862594,1072.533697
593.415150,7105.977043,10881.027347,2451.505594
593.415471,4293.194464,9030.512492,0.000000
593.415791,3404.947333,6587.832884,-536.266849
593.416112,6069.688724,6883.915261,689.485948
593.416432,3701.029710,7624.121203,459.657299
593.416753,1036.288319,7031.956449,1225.752797
593.417073,4959.379811,7994.224174,459.657299
593.417394,5699.585753,8956.491898,-1378.971896
593.417714,2072.576638,6513.812290,-536.266849
593.418035,3256.906145,5773.606348,766.095498
593.418355,5477.523971,7550.100608,-306.438199
593.418676,3478.967927,8734.430116,0.000000
593.418996,2442.679609,7624.121203,-1225.752797
593.419317,5699.585753,6587.832884,-3524.039291
593.419637,6587.832884,7254.018232,-842.705048
593.419958,3997.112087,6809.894666,2145.067394
593.420278,4959.379811,6883.915261,-1455.581446
593.420599,5921.647536,8660.409521,-3753.867940
593.420919,5773.606348,10807.006753,-919.314598
593.421240,5847.626942,8512.368333,1149.143247
593.421560,6069.688724,7179.997637,2451.505594
593.421881,4441.235652,6365.771101,3140.991542
593.422201,2516.700203,5033.400406,919.314598
593.422522,4811.338623,5847.626942,-1915.238745
593.422842,4885.359217,7105.977043,-1455.581446
593.423163,4367.215058,7624.121203,-459.657299
593.423483,9104.533087,9474.636058,-229.828649
593.423804,6143.709319,9474.636058,76.609550
593.424124,4145.153275,8734.430116,1302.362347
593.424445,7179.997637,9474.636058,995.924147
593.424765,7772.162391,10658.965565,-536.266849
593.425086,5551.544565,9770.718434,-383.047749
593.425406,5921.647536,7846.182985,-459.657299
593.425727,7328.038826,8882.471304,-1072.533697
593.426047,3849.070898,9030.512492,153.219100
593.426368,3256.906145,7624.121203,306.438199
593.426689,5551.544565,6957.935855,-1532.190996
593.427009,3182.885551,6587.832884,-1532.190996
593.427330,1998.556043,7402.059420,459.657299
593.427650,5033.400406,8882.471304,-459.657299
593.427971,3034.844362,9548.656652,-1608.800546
593.428291,3849.070898,10807.006753,1532.190996
593.428612,4071.132681,10140.821405,1149.143247
593.428932,5329.482782,9326.594869,-1915.238745
593.429253,2812.782580,10066.800811,-1532.190996
593.429573,2664.741391,10066.800811,-306.438199
593.429894,2220.617826,6957.935855,-1149.143247
593.430214,4737.318029,6143.709319,-306.438199
593.430535,3849.070898,6439.791695,0.000000
593.430855,4737.318029,6883.915261,-1532.190996
593.431176,5181.441594,8216.285956,-1149.143247
593.431496,4737.318029,8142.265362,-766.095498
593.431817,8142.265362,8364.327145,-76.609550
593.432137,9918.759623,8290.306550,306.438199
593.432458,6365.771101,6217.729913,-766.095498
593.432778,5255.462188,6883.915261,-383.047749
593.433099,8216.285956,9178.553681,153.219100
593.433419,7402.059420,9178.553681,-383.047749
593.433739,5995.668130,7328.038826,-1302.362347
593.434060,8438.347739,8438.347739,-536.266849
593.434380,5329.482782,8808.450710,-536.266849
593.434701,3108.864956,6365.771101,1762.019645
593.435021,4663.297435,5847.626942,1455.581446
593.435342,4811.338623,5181.441594,-1225.752797
593.435662,2664.741391,5995.668130,-2757.943793
593.435983,4219.173869,8734.430116,-1762.019645
593.436303,5107.421000,11621.233289,-689.485948
593.436624,3923.091493,10955.047942,2145.067394
593.436944,5773.606348,9992.780217,3217.601092
593.437264,3997.112087,7846.182985,-536.266849
593.437585,-444.123565,6291.750507,-1608.800546
593.437905,1924.535449,7476.080014,459.657299
593.438226,3775.050304,8956.491898,-383.047749
593.438546,3478.967927,9622.677246,-1302.362347
593.438867,1480.411884,8438.347739,-1532.190996
593.439187,3478.967927,6809.894666,-1225.752797
593.439508,3997.112087,6957.935855,2221.676944
593.439828,4219.173869,7698.141797,2374.896044
593.440148,4737.318029,7698.141797,-3983.696590
593.440469,6957.935855,9918.759623,-6052.154434
593.440789,7105.977043,10955.047942,-536.266849
593.441110,7402.059420,9178.553681,3907.087040
593.441430,8660.409521,9030.512492,2834.553343
593.441751,6069.688724,9252.574275,306.438199
593.442071,4145.153275,8290.306550,-1915.238745
593.442392,5255.462188,6291.750507,-1302.362347
593.442712,4885.359217,3478.967927,612.876398
593.443033,7179.997637,4663.297435,536.266849
593.443353,8438.347739,7328.038826,-383.047749
593.443673,5181.441594,9030.512492,-2298.286494
593.443994,1998.556043,6365.771101,-2757.943793
593.444314,8068.244768,8956.491898,-1838.629195
593.444635,9474.636058,10214.842000,-536.266849
593.444955,4885.359217,9918.759623,766.095498
593.445276,7105.977043,10140.821405,842.705048
593.445596,6883.915261,10288.862594,-306.438199
593.445917,4145.153275,7920.203579,-229.828649
593.446237,2516.700203,4959.379811,-1072.533697
593.446558,4441.235652,7179.997637,-2145.067394
593.446878,1628.453072,9178.553681,-612.876398
593.447198,2368.659014,7031.956449,919.314598
593.447519,5107.421000,5847.626942,-766.095498
593.447839,3404.947333,6735.874072,-842.705048
593.448160,222.061783,7328.038826,612.876398
593.448480,3404.947333,10436.903782,-536.266849
593.448801,4589.276840,10955.047942,-1838.629195
593.449121,4737.318029,9696.697840,-2374.896044
593.449442,7328.038826,8808.450710,-1072.533697
593.449762,8216.285956,12435.459826,1915.238745
593.450082,2886.803174,11399.171507,3524.039291
593.450403,3182.885551,7328.038826,842.705048
593.450723,4811.338623,4441.235652,-4366.744339
593.451044,4367.215058,5329.482782,-1915.238745
593.451364,5403.503377,7476.080014,3294.210641
593.451685,7328.038826,7328.038826,2068.457845
593.452005,6217.729913,7698.141797,-1225.752797
593.452326,6143.709319,8660.409521,-2145.067394
593.452646,6957.935855,7994.224174,-1302.362347
593.452967,6069.688724,6587.832884,459.657299
593.453287,6809.894666,7994.224174,3294.210641
593.453607,10140.821405,10510.924376,536.266849
593.453928,7476.080014,10584.944971,-2681.334243
593.454248,5477.523971,9770.718434,-459.657299
593.454569,7105.977043,10362.883188,1915.238745
593.454889,6809.894666,7994.224174,2604.724693
593.455210,3182.885551,6143.709319,229.828649
593.455530,2368.659014,3552.988522,-2298.286494
593.455851,2516.700203,4811.338623,-2298.286494
593.456171,4367.215058,6143.709319,2221.676944
593.456492,5477.523971,8438.347739,2068.457845
593.456812,6069.688724,10214.842000,-766.095498
593.457132,3627.009116,9844.739029,-2145.067394
593.457453,962.267725,7550.100608,-1072.533697
593.457773,3849.070898,5995.668130,919.314598
593.458094,4737.318029,5625.565159,2068.457845
593.458414,3552.988522,5921.647536,306.438199
593.458735,4071.132681,8586.388927,-2757.943793
593.459055,2738.761985,10658.965565,-3753.867940
593.459376,0.000000,8956.491898,-2604.724693
593.459696,4367.215058,7920.203579,1225.752797
593.460016,4885.359217,5995.668130,2757.943793
593.460337,3478.967927,5625.565159,-536.266849
593.460657,3404.947333,6513.812290,-3217.601092
593.460978,4071.132681,7328.038826,-3524.039291
593.461298,5551.544565,8808.450710,306.438199
593.461619,8438.347739,10658.965565,2681.334243
593.461939,6069.688724,9400.615463,-306.438199
593.462260,5551.544565,8586.388927,-1608.800546
593.462580,7476.080014,9474.636058,536.266849
593.462901,6291.750507,7402.059420,1455.581446
593.463221,4663.297435,6587.832884,1838.629195
593.463541,7698.141797,9104.533087,459.657299
593.463862,6365.771101,9622.677246,-1762.019645
593.464182,4737.318029,7105.977043,-1302.362347
593.464503,7105.977043,7402.059420,0.000000
593.464823,7698.141797,9918.759623,306.438199
593.465144,6735.874072,10584.944971,1149.143247
593.465464,8290.306550,9548.656652,-612.876398
593.465785,7846.182985,9992.780217,-2145.067394
593.466105,5033.400406,10066.800811,995.924147
593.466425,5477.523971,9178.553681,3753.867940
593.466746,5699.585753,8142.265362,2528.115143
593.467066,5329.482782,9400.615463,153.219100
593.467387,2812.782580,7994.224174,-459.657299
593.467707,2516.700203,4515.256246,-2834.553343
593.468028,3330.926739,5625.565159,229.828649
593.468348,2886.803174,9030.512492,4136.915689
593.468669,2590.720797,9400.615463,76.609550
593.468989,3627.009116,9474.636058,-3983.696590
593.469310,4663.297435,11325.150913,-1991.848295
593.469630,2960.823768,8586.388927,1991.848295
593.469950,4663.297435,6513.812290,2757.943793
593.470271,3849.070898,7254.018232,-153.219100
593.470591,888.247130,7105.977043,-1991.848295
593.470912,3404.947333,6587.832884,-459.657299
593.471232,4959.379811,5329.482782,766.095498
593.471553,3923.091493,5551.544565,0.000000
593.471873,6069.688724,8142.265362,-383.047749
593.472194,6069.688724,8586.388927,-1072.533697
593.472514,3108.864956,4959.379811,-1072.533697
593.472835,5995.668130,4885.359217,766.095498
593.473155,8364.327145,6883.915261,1532.190996
593.473475,5107.421000,6883.915261,-995.924147
593.473796,5625.565159,8512.368333,-2298.286494
593.474116,9030.512492,11251.130318,-1685.410096
593.474437,7402.059420,9992.780217,306.438199
593.474757,7328.038826,6439.791695,2145.067394
593.475078,6735.874072,5033.400406,1762.019645
593.475398,3478.967927,5773.606348,689.485948
593.475719,4737.318029,8956.491898,536.266849
593.476039,5995.668130,7920.203579,-1532.190996
593.476359,4515.256246,4959.379811,-2757.943793
593.476680,8142.265362,8290.306550,1149.143247
593.477000,7105.977043,11843.295072,2681.334243
593.477321,1628.453072,7994.224174,-766.095498
593.477641,3404.947333,6809.894666,-2834.553343
593.477962,5921.647536,9474.636058,-1608.800546
593.478282,3849.070898,10288.862594,919.314598
593.478603,3923.091493,11251.130318,2451.505594
593.478923,5107.421000,12065.356855,689.485948
593.479244,1702.473667,9474.636058,-766.095498
593.479564,2664.741391,8586.388927,1302.362347
593.479884,2590.720797,7254.018232,1225.752797
593.480205,1258.350101,6439.791695,0.000000
593.480525,4293.194464,9400.615463,689.485948
593.480846,4737.318029,9030.512492,-612.876398
593.481166,2516.700203,6587.832884,-1762.019645
593.481487,4367.215058,5995.668130,612.876398
593.481807,6513.812290,9400.615463,306.438199
593.482128,5699.585753,10955.047942,-1685.410096
593.482448,4811.338623,9696.697840,-1915.238745
593.482769,8512.368333,8290.306550,-2068.457845
593.483089,9104.533087,7550.100608,-153.219100
593.483409,7105.977043,8364.327145,1991.848295
593.483730,5995.668130,7920.203579,-919.314598
593.484050,6291.750507,8438.347739,-2451.505594
593.484371,7698.141797,8364.327145,919.314598
593.484691,7254.018232,5625.565159,1532.190996
593.485012,5329.482782,2294.638420,-383.047749
593.485332,5329.482782,5773.606348,-153.219100
593.485653,4145.153275,7698.141797,459.657299
593.485973,4145.153275,7031.956449,-1915.238745
593.486293,6365.771101,7920.203579,-1608.800546
593.486614,7031.956449,9696.697840,76.609550
593.486934,4737.318029,10658.965565,1149.143247
593.487255,5107.421000,11843.295072,2451.505594
593.487575,2590.720797,9252.574275,536.266849
593.487896,3552.988522,8068.244768,-1149.143247
593.488216,5181.441594,8438.347739,1225.752797
593.488537,1554.432478,7105.977043,1608.800546
593.488857,2664.741391,9104.533087,1072.533697
593.489178,4737.318029,9474.636058,1762.019645
593.489498,1110.308913,5625.565159,153.219100
593.489818,3701.029710,3256.906145,153.219100
593.490139,5995.668130,6513.812290,2145.067394
593.490459,3775.050304,8586.388927,1532.190996
593.490780,4219.173869,9252.574275,0.000000
593.491100,7698.141797,10732.986159,-1915.238745
593.491421,6439.791695,8808.450710,-1072.533697
593.491741,5847.626942,8364.327145,2298.286494
593.492062,7550.100608,9400.615463,2374.896044
593.492382,3256.906145,7698.141797,-383.047749
593.492703,2960.823768,5995.668130,-1149.143247
593.493023,6735.874072,6587.832884,-842.705048
593.493343,5033.400406,6513.812290,383.047749
593.493664,5255.462188,7476.080014,3294.210641
593.493984,7105.977043,9326.594869,1302.362347
593.494305,2590.720797,6217.729913,-2528.115143
593.494625,4737.318029,5181.441594,-1608.800546
593.494946,7550.100608,6957.935855,1915.238745
593.495266,5773.606348,7328.038826,0.000000
593.495587,5773.606348,9178.553681,-1149.143247
593.495907,7402.059420,11547.212695,-1378.971896
593.496227,5699.585753,9844.739029,-459.657299
593.496548,6217.729913,8734.430116,2451.505594
593.496868,4293.194464,5181.441594,1608.800546
593.497189,740.205942,3108.864956,-995.924147
593.497509,4367.215058,6069.688724,76.609550
593.497830,5477.523971,9030.512492,0.000000
593.498150,2368.659014,8438.347739,-1455.581446
593.498471,5107.421000,8290.306550,-1302.362347
593.498791,4959.379811,8364.327145,-1149.143247
593.499112,1850.514855,6957.935855,459.657299
593.499432,4071.132681,6291.750507,1302.362347
593.499752,6143.709319,8586.388927,-2757.943793
593.500073,2960.823768,9844.739029,-4979.620737
593.500393,4293.194464,9844.739029,-1378.971896
593.500714,7772.162391,11695.253884,306.438199
593.501034,7105.977043,11251.130318,229.828649
593.501355,3478.967927,8364.327145,-153.219100
593.501675,4959.379811,7772.162391,-2221.676944
593.501996,5403.503377,7772.162391,-1149.143247
593.502316,2516.700203,6143.709319,1608.800546
593.502636,5625.565159,4811.338623,-689.485948
593.502957,7105.977043,7920.203579,-3907.087040
593.503277,4515.256246,10214.842000,-2451.505594
593.503598,3701.029710,10362.883188,-842.705048
593.503918,7920.203579,10214.842000,-1302.362347
593.504239,6513.812290,10288.862594,153.219100
593.504559,5033.400406,8512.368333,1225.752797
593.504880,6217.729913,8290.306550,-612.876398
593.505200,5255.462188,9696.697840,-1072.533697
593.505521,2516.700203,9474.636058,-306.438199
593.505841,7624.121203,9178.553681,-995.924147
593.506161,7624.121203,10140.821405,-689.485948
593.506482,2960.823768,8364.327145,766.095498
593.506802,4367.215058,6513.812290,76.609550
593.507123,5329.482782,5181.441594,-1608.800546
593.507443,2220.617826,5181.441594,-612.876398
593.507764,3627.009116,7105.977043,995.924147
593.508084,7254.018232,10288.862594,-1072.533697
593.508405,5329.482782,11473.192101,-2604.724693
593.508725,4367.215058,9844.739029,-1915.238745
593.509046,6365.771101,8734.430116,-612.876398
593.509366,6217.729913,8142.265362,1532.190996
593.509686,3478.967927,7031.956449,1762.019645
593.510007,4367.215058,6587.832884,-1838.629195
593.510327,5107.421000,7179.997637,-2757.943793
593.510648,4441.235652,7476.080014,229.828649
593.510968,5773.606348,7698.141797,1915.238745
593.511289,5255.462188,7105.977043,153.219100
593.511609,3997.112087,7772.162391,0.000000
593.511930,3701.029710,5107.421000,1378.971896
593.512250,5551.544565,3552.988522,536.266849
593.512570,4219.173869,5625.565159,536.266849
593.512891,4737.318029,9770.718434,0.000000
593.513211,6291.750507,10510.924376,-536.266849
593.513532,6365.771101,10288.862594,612.876398
593.513852,5255.462188,7846.182985,2604.724693
593.514173,5033.400406,6217.729913,1991.848295
593.514493,3997.112087,6217.729913,0.000000
593.514814,2442.679609,6439.791695,-689.485948
593.515134,4367.215058,7031.956449,-995.924147
593.515455,7105.977043,7772.162391,-1455.581446
593.515775,5255.462188,7476.080014,0.000000
593.516095,4737.318029,7031.956449,1225.752797
593.516416,5773.606348,8734.430116,766.095498
593.516736,4293.194464,8142.265362,-995.924147
593.517057,3775.050304,6439.791695,-2528.115143
593.517377,7624.121203,7179.997637,-1608.800546
593.517698,8068.244768,9918.759623,459.657299
593.518018,5551.544565,11547.212695,1915.238745
593.518339,5255.462188,12139.377449,76.609550
593.518659,5847.626942,10732.986159,-1532.190996
593.518980,2590.720797,5329.482782,383.047749
593.519300,4145.153275,3330.926739,2451.505594
593.519620,6143.709319,5551.544565,1302.362347
593.519941,1184.329507,7328.038826,-1378.971896
593.520261,2664.741391,8956.491898,-1225.752797
593.520582,4663.297435,9918.759623,-1915.238745
593.520902,4885.359217,8882.471304,153.219100
593.521223,3552.988522,8586.388927,919.314598
593.521543,5033.400406,9474.636058,-1455.581446
593.521864,4145.153275,9844.739029,-2757.943793
593.522184,3330.926739,9696.697840,-689.485948
593.522504,4367.215058,8290.306550,-842.705048
593.522825,6809.894666,8956.491898,-1532.190996
593.523145,4959.379811,10658.965565,-383.047749
593.523466,1628.453072,8438.347739,-2374.896044
593.523786,4663.297435,8512.368333,-3370.820191
593.524107,6365.771101,8956.491898,-919.314598
593.524427,4441.235652,7328.038826,1991.848295
593.524748,5699.585753,6291.750507,1608.800546
593.525068,5995.668130,8142.265362,-1302.362347
593.525389,2960.823768,9104.533087,-2834.553343
593.525709,4145.153275,8142.265362,-2221.676944
593.526029,7846.182985,8808.450710,-229.828649
593.526350,7772.162391,9696.697840,1685.410096
593.526670,7328.038826,9400.615463,1991.848295
593.526991,6661.853478,9770.718434,-1532.190996
593.527311,4145.153275,8068.244768,-2681.334243
593.527632,3552.988522,6217.729913,-383.047749
593.527952,8216.285956,7328.038826,919.314598
593.528273,8290.306550,7698.141797,-1149.143247
593.528593,4367.215058,8290.306550,-766.095498
593.528913,5847.626942,7179.997637,766.095498
593.529234,5773.606348,6439.791695,919.314598
593.529554,4959.379811,7698.141797,383.047749
593.529875,2590.720797,8068.244768,-995.924147
593.530195,3182.885551,5403.503377,-1915.238745
593.530516,6217.729913,6439.791695,-459.657299
593.530836,6809.894666,9770.718434,1685.410096
593.531157,2812.782580,9992.780217,-995.924147
593.531477,4663.297435,11029.068536,-2451.505594
593.531798,4441.235652,11251.130318,-842.705048
593.532118,3182.885551,9104.533087,2221.676944
593.532439,5181.441594,6587.832884,3064.381992
593.532759,5181.441594,5847.626942,0.000000
593.533080,1776.494261,6735.874072,0.000000
593.533400,3182.885551,7402.059420,1762.019645
593.533721,3923.091493,7402.059420,-306.438199
593.534041,3404.947333,6217.729913,-1149.143247
593.534362,4145.153275,5921.647536,1455.581446
593.534682,5403.503377,8660.409521,2374.896044
593.535003,3923.091493,8734.430116,1302.362347
593.535323,3552.988522,7846.182985,229.828649
593.535644,7105.977043,7994.224174,-1455.581446
593.535964,6069.688724,8216.285956,-1838.629195
593.536285,3997.112087,8586.388927,536.266849
593.536606,5773.606348,9104.533087,1149.143247
593.536926,6735.874072,8068.244768,-383.047749
593.537247,5181.441594,7031.956449,-229.828649
593.537567,3701.029710,4515.256246,-1378.971896
593.537888,6365.771101,6365.771101,-1225.752797
593.538208,6883.915261,10436.903782,1915.238745
593.538529,4959.379811,9548.656652,1685.410096
593.538849,6365.771101,6809.894666,-1378.971896
593.539170,8068.244768,7772.162391,612.876398
593.539490,5847.626942,9030.512492,3600.648841
593.539811,7105.977043,8882.471304,2911.162892
593.540131,6587.832884,8364.327145,-1455.581446
593.540452,1554.432478,6069.688724,-2834.553343
593.540772,5773.606348,7698.141797,306.438199
593.541093,7105.977043,8438.347739,3830.477490
593.541413,2516.700203,7772.162391,2451.505594
593.541734,3552.988522,9178.553681,-689.485948
593.542055,6069.688724,12287.418637,-2451.505594
593.542375,2368.659014,9178.553681,-1915.238745
593.542696,3034.844362,6069.688724,2681.334243
593.543016,6809.894666,6439.791695,2834.553343
593.543337,4367.215058,8068.244768,229.828649
593.543657,1554.432478,7105.977043,-1225.752797
593.543978,4071.132681,7920.203579,-2834.553343
593.544298,7328.038826,10140.821405,-1838.629195
593.544619,4885.359217,8586.388927,1532.190996
593.544939,5181.441594,6217.729913,536.266849
593.545260,6587.832884,6957.935855,-1685.410096
593.545580,3701.029710,7772.162391,-1455.581446
593.545901,2886.803174,6217.729913,-1455.581446
593.546221,6513.812290,5255.462188,-3064.381992
593.546542,6217.729913,7994.224174,-2451.505594
593.546862,6513.812290,10732.986159,-1072.533697
593.547183,4885.359217,9770.718434,-3140.991542
593.547503,6291.750507,9104.533087,-2834.553343
593.547824,5773.606348,8586.388927,1302.362347
593.548145,5699.585753,7105.977043,2604.724693
593.548465,5773.606348,7476.080014,76.609550
593.548786,3775.050304,8142.265362,-459.657299
593.549106,2812.782580,7920.203579,-612.876398
593.549427,7031.956449,8438.347739,919.314598
593.549747,5551.544565,7550.100608,1378.971896
593.550068,3034.844362,5699.585753,-1149.143247
593.550388,4441.235652,6735.874072,-1991.848295
593.550709,6365.771101,8068.244768,-995.924147
593.551029,3478.967927,8660.409521,229.828649
593.551350,6365.771101,9696.697840,612.876398
593.551670,6661.853478,11695.253884,-1149.143247
593.551991,4959.379811,12139.377449,-1149.143247
593.552311,4885.359217,10881.027347,1532.190996
593.552632,7031.956449,10066.800811,1149.143247
593.552952,4663.297435,7328.038826,-153.219100
593.553273,1406.391290,4737.318029,-919.314598
593.553594,4441.235652,7031.956449,-1685.410096
593.553914,4959.379811,9178.553681,-612.876398
593.554235,3108.864956,8216.285956,1149.143247
593.554555,6587.832884,7920.203579,766.095498
593.554876,6809.894666,8956.491898,0.000000
593.555196,3108.864956,8734.430116,995.924147
593.555517,4663.297435,8142.265362,1149.143247
593.555837,5329.482782,7179.997637,-612.876398
593.556158,4589.276840,7328.038826,-1072.533697
593.556478,6661.853478,8882.471304,306.438199
593.556799,6069.688724,10955.047942,0.000000
593.557119,4737.318029,12583.501014,229.828649
593.557440,4885.359217,11621.233289,2221.676944
593.557760,5033.400406,8882.471304,1149.143247
593.558081,3330.926739,5181.441594,2298.286494
593.558401,1776.494261,2664.741391,4596.572988
593.558722,2738.761985,1924.535449,2528.115143
593.559042,3256.906145,3552.988522,-1072.533697
593.559363,4293.194464,8956.491898,-2298.286494
593.559684,5773.606348,11251.130318,-2145.067394
593.560004,6735.874072,9918.759623,-459.657299
593.560325,7476.080014,10140.821405,2451.505594
593.560645,6439.791695,8956.491898,2911.162892
593.560966,4219.173869,5921.647536,1149.143247
593.561286,6661.853478,7105.977043,229.828649
593.561607,4811.338623,7179.997637,-919.314598
593.561927,3108.864956,6735.874072,-1915.238745
593.562248,6735.874072,7254.018232,-1762.019645
593.562568,6069.688724,6291.750507,0.000000
593.562889,2368.659014,4515.256246,1072.533697
593.563209,5107.421000,4367.215058,689.485948
593.563530,4885.359217,5847.626942,-2298.286494
593.563850,3552.988522,7994.224174,-1532.190996
593.564171,6661.853478,9548.656652,2221.676944
593.564491,7994.224174,9622.677246,689.485948
593.564812,5255.462188,8364.327145,0.000000
593.565133,5329.482782,8364.327145,383.047749
593.565453,6587.832884,8142.265362,-1378.971896
593.565774,3404.947333,6143.709319,-1072.533697
593.566094,2516.700203,3627.009116,-1532.190996
593.566415,6217.729913,6587.832884,-3064.381992
593.566735,6365.771101,9770.718434,-689.485948
593.567056,1924.535449,9030.512492,153.219100
593.567376,4811.338623,8068.244768,-2451.505594
593.567697,6735.874072,11251.130318,-2834.553343
593.568017,4589.276840,11103.089130,229.828649
593.568338,5033.400406,7550.100608,536.266849
593.568658,6365.771101,6809.894666,-536.266849
593.568979,4145.153275,9400.615463,-766.095498
593.569299,4071.132681,9400.615463,-766.095498
593.569620,5033.400406,9400.615463,-2681.334243
593.569940,5329.482782,10955.047942,-2451.505594
593.570261,5255.462188,11769.274478,153.219100
593.570581,4811.338623,10807.006753,-1072.533697
593.570902,3849.070898,8956.491898,-1225.752797
593.571223,2368.659014,8438.347739,1762.019645
593.571543,5255.462188,10881.027347,1915.238745
593.571864,3701.029710,10955.047942,-612.876398
593.572184,1184.329507,9400.615463,-2528.115143
593.572505,6217.729913,10140.821405,-1302.362347
593.572825,6439.791695,10362.883188,2757.943793
593.573146,3849.070898,9844.739029,3064.381992
593.573466,5255.462188,8660.409521,229.828649
593.573787,5847.626942,9474.636058,-1225.752797
593.574107,5625.565159,9548.656652,459.657299
593.574428,6217.729913,7994.224174,2221.676944
593.574748,7920.203579,7624.121203,1762.019645
593.575069,7402.059420,7476.080014,1225.752797
593.575389,6661.853478,5995.668130,0.000000
593.575710,6809.894666,5329.482782,-1455.581446
593.576030,6587.832884,4885.359217,-536.266849
593.576351,5921.647536,4885.359217,-689.485948
593.576671,9030.512492,7624.121203,-1302.362347
593.576992,7624.121203,7179.997637,306.438199
593.577313,5255.462188,6809.894666,1072.533697
593.577633,8142.265362,8216.285956,1149.143247
593.577954,5625.565159,7550.100608,689.485948
593.578274,740.205942,4219.173869,-383.047749
593.578595,4663.297435,3997.112087,-612.876398
593.578915,4811.338623,5181.441594,76.609550
593.579236,814.226536,5033.400406,-306.438199
593.579556,1998.556043,5625.565159,-1302.362347
593.579877,4293.194464,7105.977043,-919.314598
593.580197,1776.494261,7254.018232,995.924147
593.580518,2368.659014,6957.935855,2068.457845
593.580838,4441.235652,8142.265362,-1915.238745
593.581159,2812.782580,7846.182985,-2374.896044
593.581479,2294.638420,7994.224174,995.924147
593.581800,5403.503377,8734.430116,995.924147
593.582120,4959.379811,8216.285956,-536.266849
593.582441,3108.864956,8586.388927,-229.828649
593.582762,3478.967927,7994.224174,-1072.533697
593.583082,3034.844362,7772.162391,153.219100
593.583403,4219.173869,8808.450710,2757.943793
593.583723,3923.091493,7031.956449,919.314598
593.584044,4071.132681,5329.482782,-2451.505594
593.584364,5181.441594,8808.450710,-919.314598
593.584685,5329.482782,11325.150913,995.924147
593.585005,5181.441594,9622.677246,0.000000
593.585326,7105.977043,8660.409521,-1608.800546
593.585646,6069.688724,8216.285956,-2451.505594
593.585967,7550.100608,10140.821405,229.828649
593.586287,8142.265362,11103.089130,919.314598
593.586608,7550.100608,10066.800811,-1608.800546
593.586928,6957.935855,11103.089130,-2221.676944
593.587249,8660.409521,11325.150913,-536.266849
593.587569,6217.729913,7920.203579,383.047749
593.587890,4885.359217,5403.503377,919.314598
593.588210,7031.956449,5773.606348,-383.047749
593.588531,6513.812290,6735.874072,-2528.115143
593.588852,4219.173869,7031.956449,-2374.896044
593.589172,6217.729913,9104.533087,-2145.067394
593.589493,9030.512492,11769.274478,-1302.362347
593.589813,5477.523971,10214.842000,-383.047749
593.590134,5181.441594,9104.533087,0.000000
593.590454,7105.977043,8438.347739,-612.876398
593.590775,4219.173869,8364.327145,-995.924147
593.591095,2960.823768,8290.306550,-1072.533697
593.591416,3997.112087,6809.894666,-1838.629195
593.591736,4737.318029,9030.512492,-1991.848295
593.592057,3034.844362,8956.491898,0.000000
593.592377,1184.329507,6217.729913,-995.924147
593.592698,2516.700203,4885.359217,-2604.724693
593.593018,3404.947333,6513.812290,-229.828649
593.593339,2812.782580,7254.018232,1072.533697
593.593659,4589.276840,9030.512492,-2221.676944
593.593980,3256.906145,9326.594869,-3830.477490
593.594301,3627.009116,10288.862594,-995.924147
593.594621,7328.038826,11029.068536,2604.724693
593.594942,5625.565159,8216.285956,1225.752797
593.595262,2812.782580,6957.935855,-1838.629195
593.595583,4737.318029,7105.977043,-2068.457845
593.595903,4737.318029,6217.729913,-459.657299
593.596224,5255.462188,6883.915261,1915.238745
593.596544,6365.771101,6661.853478,1838.629195
593.596865,5921.647536,7254.018232,-1762.019645
593.597185,5773.606348,8660.409521,-1532.190996
593.597506,5477.523971,7846.182985,1149.143247
593.597826,7105.977043,7920.203579,1302.362347
593.598147,7624.121203,7476.080014,1378.971896
593.598467,5107.421000,7476.080014,-919.314598
593.598788,5625.565159,8956.491898,-612.876398
593.599108,6513.812290,9770.718434,2374.896044
593.599429,5181.441594,9252.574275,2145.067394
593.599749,4737.318029,7476.080014,-612.876398
593.600070,4589.276840,7846.182985,-2451.505594
593.600391,5551.544565,9400.615463,229.828649
593.600711,3701.029710,8512.368333,3753.867940
593.601032,2442.679609,5477.523971,842.705048
593.601352,4441.235652,6439.791695,-3217.601092
593.601673,2664.741391,7179.997637,-1532.190996
593.601993,3182.885551,9400.615463,1762.019645
593.602314,8438.347739,10510.924376,1532.190996
593.602634,5107.421000,9696.697840,-536.266849
593.602955,2590.720797,8216.285956,-536.266849
593.603275,4885.359217,7698.141797,1608.800546
593.603596,4959.379811,8512.368333,3370.820191
593.603916,0.000000,4959.379811,1532.190996
593.604237,4811.338623,4737.318029,-2221.676944
593.604557,5403.503377,6513.812290,-3600.648841
593.604878,1036.288319,6069.688724,536.266849
593.605198,4441.235652,6365.771101,1915.238745
593.605519,7105.977043,8882.471304,-2528.115143
593.605840,2738.761985,6365.771101,-4136.915689
593.606160,4959.379811,6735.874072,-1685.410096
593.606481,11399.171507,11917.315666,536.266849
593.606801,5107.421000,11843.295072,612.876398
593.607122,3997.112087,8068.244768,-919.314598
593.607442,9992.780217,7550.100608,-3064.381992
593.607763,6291.750507,6735.874072,-919.314598
593.608083,3478.967927,5773.606348,2451.505594
593.608404,7031.956449,6069.688724,-842.705048
593.608724,5255.462188,5921.647536,-5669.106685
593.609045,3108.864956,6217.729913,-1991.848295
593.609365,7179.997637,8364.327145,1225.752797
593.609686,6735.874072,7920.203579,-766.095498
593.610006,3997.112087,7105.977043,-2068.457845
593.610327,4885.359217,8660.409521,-3983.696590
593.610647,6291.750507,10955.047942,-4673.182538
593.610968,5033.400406,11547.212695,-1225.752797
593.611288,3330.926739,10807.006753,0.000000
593.611609,4737.318029,10288.862594,-2221.676944
593.611930,3627.009116,11029.068536,-1762.019645
593.612250,962.267725,9474.636058,76.609550
593.612571,518.144159,5625.565159,-2374.896044
593.612891,2738.761985,6513.812290,-2145.067394
593.613212,3404.947333,8068.244768,-1072.533697
593.613532,1110.308913,6587.832884,-3447.429741
593.613853,2812.782580,6291.750507,-3140.991542
593.614173,7105.977043,10288.862594,-1378.971896
593.614494,4293.194464,9326.594869,-3294.210641
593.614814,4885.359217,6957.935855,-5286.058936
593.615135,8290.306550,8438.347739,-5592.497135
593.615455,7772.162391,9622.677246,-5362.668486
593.615776,8364.327145,10140.821405,-3600.648841
593.616096,8290.306550,8734.430116,-4290.134789
593.616417,6365.771101,9474.636058,-4213.525239
593.616737,8290.306550,11917.315666,153.219100
593.617058,6809.894666,9992.780217,459.657299
593.617379,2442.679609,2886.803174,-4290.134789
593.617699,4737.318029,2072.576638,-2987.772442
593.618020,4811.338623,3330.926739,-919.314598
593.618340,2442.679609,3404.947333,-4060.306139
593.618661,2664.741391,4959.379811,-5362.668486
593.618981,6809.894666,10584.944971,-6052.154434
593.619302,6883.915261,11621.233289,-4290.134789
593.619622,5107.421000,9548.656652,-3064.381992
593.619943,5847.626942,8734.430116,-4519.963438
593.620263,7105.977043,10066.800811,-5056.230287
593.620584,3552.988522,9030.512492,-3983.696590
593.620904,4441.235652,9030.512492,-5515.887586
593.621225,7105.977043,9770.718434,-5209.449386
593.621545,4663.297435,8438.347739,-5745.716235
593.621866,3034.844362,6587.832884,-6358.592633
593.622186,2812.782580,4589.276840,-5209.449386
593.622507,3478.967927,3627.009116,-2451.505594
593.622827,4293.194464,4663.297435,-306.438199
593.623148,4071.132681,5773.606348,-1838.629195
593.623469,2368.659014,7328.038826,-4903.011187
593.623789,4293.194464,9252.574275,-6971.469032
593.624110,5699.585753,10288.862594,-7277.907231
593.624430,5699.585753,11843.295072,-6818.249932
593.624751,7105.977043,11621.233289,-6971.469032
593.625071,6809.894666,11917.315666,-6588.421283
593.625392,3404.947333,8586.388927,-5286.058936
593.625712,2590.720797,7402.059420,-2145.067394
593.626033,4515.256246,8216.285956,-1378.971896
593.626353,2294.638420,5329.482782,-4826.401637
593.626674,1776.494261,4663.297435,-7354.516781
593.626994,4811.338623,5773.606348,-7890.783629
593.627315,7328.038826,6587.832884,-5439.278036
593.627635,7254.018232,8512.368333,-1915.238745
593.627956,7698.141797,10732.986159,-4749.792088
593.628276,6587.832884,11103.089130,-9269.755526
593.628597,5847.626942,9844.739029,-6588.421283
593.628918,8290.306550,9178.553681,-2757.943793
593.629238,8808.450710,7994.224174,-2374.896044
593.629559,6069.688724,8364.327145,-3753.867940
593.629879,5107.421000,9104.533087,-7507.735880
593.630200,4219.173869,9548.656652,-9346.365076
593.630520,3478.967927,8586.388927,-5286.058936
593.630841,4663.297435,5773.606348,-3907.087040
593.631161,6291.750507,5033.400406,-5132.839837
593.631482,2368.659014,6069.688724,-4903.011187
593.631802,3997.112087,8290.306550,-4903.011187
593.632123,6291.750507,11769.274478,-4213.525239
593.632444,4885.359217,11029.068536,-3217.601092
593.632764,4885.359217,10362.883188,-3064.381992
593.633085,4885.359217,9992.780217,-3830.477490
593.633405,2812.782580,7402.059420,-5286.058936
593.633726,1258.350101,5033.400406,-4366.744339
593.634046,3775.050304,5847.626942,-3983.696590
593.634367,4367.215058,8586.388927,-5515.887586
593.634688,2368.659014,8438.347739,-7584.345430
593.635008,4145.153275,7254.018232,-7967.393179
593.635329,6661.853478,7550.100608,-5209.449386
593.635649,6587.832884,8364.327145,-1378.971896
593.635970,6661.853478,9104.533087,-2834.553343
593.636290,6809.894666,7179.997637,-7048.078582
593.636611,5699.585753,6957.935855,-7124.688131
593.636932,6291.750507,6735.874072,-4979.620737
593.637252,7920.203579,6291.750507,-4749.792088
593.637573,6809.894666,7994.224174,-4366.744339
593.637893,5107.421000,9030.512492,-5286.058936
593.638214,5699.585753,7772.162391,-4903.011187
593.638534,5625.565159,6069.688724,-3677.258390
593.638855,5181.441594,5403.503377,-4826.401637
593.639176,3849.070898,6883.915261,-4519.963438
593.639496,3034.844362,8142.265362,-4366.744339
593.639817,3923.091493,8290.306550,-6281.983084
593.640137,4367.215058,7031.956449,-6281.983084
593.640458,5995.668130,6735.874072,-5132.839837
593.640778,5847.626942,7254.018232,-5056.230287
593.641099,2960.823768,8882.471304,-6205.373534
593.641420,2738.761985,9178.553681,-7584.345430
593.641740,5403.503377,7920.203579,-6052.154434
593.642061,7105.977043,8068.244768,-2834.553343
593.642381,6069.688724,9400.615463,-1378.971896
593.642702,4885.359217,10140.821405,-3447.429741
593.643022,2738.761985,9548.656652,-6511.811733
593.643343,2442.679609,7328.038826,-7201.297681
593.643664,2738.761985,5625.565159,-4903.011187
593.643984,3849.070898,4885.359217,-3983.696590
593.644305,3182.885551,4959.379811,-4826.401637
593.644625,3997.112087,7179.997637,-6281.983084
593.644946,4293.194464,9622.677246,-9346.365076
593.645266,5255.462188,10288.862594,-8963.317327
593.645587,6143.709319,10807.006753,-5286.058936
593.645908,7254.018232,11695.253884,-2604.724693
593.646228,9030.512492,12657.521608,-3140.991542
593.646549,6809.894666,11251.130318,-6128.763984
593.646869,3478.967927,8216.285956,-8273.831378
593.647190,5403.503377,6513.812290,-5898.935335
593.647510,6291.750507,6291.750507,-2681.334243
593.647831,5033.400406,4293.194464,-3677.258390
593.648152,4293.194464,5847.626942,-6971.469032
593.648472,5403.503377,9622.677246,-7048.078582
593.648793,4663.297435,10732.986159,-3753.867940
593.649113,7550.100608,9474.636058,-689.485948
593.649434,7105.977043,8290.306550,-3447.429741
593.649754,5033.400406,8142.265362,-6281.983084
593.650075,4515.256246,9918.759623,-5669.106685
593.650396,4737.318029,11695.253884,-6358.592633
593.650716,4811.338623,10288.862594,-6511.811733
593.651037,5329.482782,8512.368333,-5822.325785
593.651357,5255.462188,7402.059420,-6665.030833
593.651678,3552.988522,6439.791695,-6894.859482
593.651998,2442.679609,6143.709319,-4060.306139
593.652319,3775.050304,5699.585753,-2681.334243
593.652640,4293.194464,4589.276840,-3677.258390
593.652960,3997.112087,4441.235652,-5592.497135
593.653281,5551.544565,6069.688724,-6588.421283
593.653601,6513.812290,7698.141797,-6818.249932
593.653922,5033.400406,8068.244768,-8044.002729
593.654242,6069.688724,7698.141797,-9652.803275
593.654563,7179.997637,7476.080014,-9729.412825
593.654884,6809.894666,7994.224174,-7354.516781
593.655204,5403.503377,9326.594869,-4443.353888
593.655525,4959.379811,9474.636058,-4443.353888
593.655845,4219.173869,8956.491898,-5822.325785
593.656166,2812.782580,6957.935855,-5898.935335
593.656486,4219.173869,5329.482782,-5132.839837
593.656807,4515.256246,4737.318029,-5362.668486
593.657128,2738.761985,4663.297435,-6971.469032
593.657448,3627.009116,6661.853478,-7814.174080
593.657769,4589.276840,8216.285956,-6435.202183
593.658089,6143.709319,9326.594869,-5056.230287
593.658410,6883.915261,10658.965565,-5439.278036
593.658730,5995.668130,12509.480420,-6052.154434
593.659051,5773.606348,13027.624579,-4903.011187
593.659372,6291.750507,11547.212695,-3524.039291
593.659692,5625.565159,8438.347739,-3753.867940
593.660013,4441.235652,6439.791695,-4136.915689
593.660333,3923.091493,6217.729913,-5056.230287
593.660654,3404.947333,6217.729913,-7048.078582
593.660974,3552.988522,6439.791695,-7124.688131
593.661295,5921.647536,7772.162391,-6741.640382
593.661616,6365.771101,8142.265362,-6281.983084
593.661936,6069.688724,9474.636058,-4749.792088
593.662257,7179.997637,11473.192101,-3830.477490
593.662577,6735.874072,12139.377449,-5669.106685
593.662898,5477.523971,9992.780217,-6894.859482
593.663218,7624.121203,8364.327145,-6511.811733
593.663539,7698.141797,9622.677246,-5592.497135
593.663860,5255.462188,10362.883188,-4596.572988
593.664180,3552.988522,8882.471304,-4519.963438
593.664501,3775.050304,6143.709319,-5592.497135
593.664821,4145.153275,5403.503377,-4060.306139
593.665142,3775.050304,6217.729913,-2757.943793
593.665462,2590.720797,6661.853478,-3983.696590
593.665783,3034.844362,8142.265362,-4749.792088
593.666104,4441.235652,8734.430116,-3677.258390
593.666424,5329.482782,8512.368333,-4443.353888
593.666745,5033.400406,8290.306550,-5362.668486
593.667065,3627.009116,9252.574275,-6741.640382
593.667386,4071.132681,9844.739029,-6818.249932
593.667706,6143.709319,10362.883188,-4519.963438
593.668027,5847.626942,9178.553681,-2528.115143
593.668348,4737.318029,7994.224174,-2987.772442
593.668668,3034.844362,6809.894666,-4213.525239
593.668989,2220.617826,5477.523971,-5362.668486
593.669309,3404.947333,4663.297435,-5209.449386
593.669630,5329.482782,3701.029710,-4136.915689
593.669950,5477.523971,2886.803174,-4519.963438
593.670271,5107.421000,3627.009116,-5515.887586
593.670592,5181.441594,6513.812290,-6128.763984
593.670912,6069.688724,9326.594869,-6588.421283
593.671233,7402.059420,10732.986159,-7048.078582
593.671553,7994.224174,10510.924376,-7201.297681
593.671874,7254.018232,9770.718434,-6358.592633
593.672194,6957.935855,8882.471304,-4673.182538
593.672515,4959.379811,7846.182985,-3983.696590
593.672836,3034.844362,6217.729913,-5669.106685
593.673156,2664.741391,4515.256246,-6894.859482
593.673477,2812.782580,4737.318029,-7277.907231
593.673797,3775.050304,5921.647536,-3830.477490
593.674118,4737.318029,7476.080014,-919.314598
593.674438,3923.091493,7624.121203,-3140.991542
593.674759,2812.782580,6883.915261,-5592.497135
593.675080,3997.112087,7846.182985,-6894.859482
593.675400,4737.318029,9400.615463,-6741.640382
593.675721,5181.441594,11103.089130,-6435.202183
593.676041,6735.874072,13323.706956,-6588.421283
593.676362,6661.853478,14063.912898,-6511.811733
593.676682,5847.626942,13545.768739,-5362.668486
593.677003,4663.297435,10732.986159,-3677.258390
593.677324,3478.967927,6809.894666,-4060.306139
593.677644,2368.659014,4145.153275,-4213.525239
593.677965,2664.741391,3701.029710,-3677.258390
593.678285,4737.318029,4737.318029,-4213.525239
593.678606,5995.668130,6439.791695,-5439.278036
593.678926,6661.853478,8142.265362,-7431.126331
593.679247,7179.997637,9548.656652,-8197.221829
593.679568,7476.080014,10214.842000,-6741.640382
593.679888,7698.141797,9474.636058,-5822.325785
593.680209,7254.018232,8512.368333,-6665.030833
593.680529,7698.141797,9844.739029,-6588.421283
593.680850,7328.038826,11325.150913,-6435.202183
593.681170,7328.038826,11917.315666,-5975.544884
593.681491,6883.915261,11251.130318,-6511.811733
593.681812,5181.441594,8512.368333,-5898.935335
593.682132,3478.967927,5033.400406,-2757.943793
593.682453,2590.720797,2516.700203,-1838.629195
593.682773,2368.659014,2146.597232,-2451.505594
593.683094,2590.720797,3849.070898,-5056.230287
593.683414,4145.153275,6809.894666,-6741.640382
593.683735,5403.503377,9992.780217,-7354.516781
