#time,accel_x,accel_y,accel_z
158.947350,4959.379811,8068.244768,0.000000
158.947671,5033.400406,7994.224174,0.000000
158.947992,4959.379811,7994.224174,-229.828649
158.948313,4737.318029,8512.368333,0.000000
158.948634,5181.441594,8216.285956,0.000000
158.948954,5255.462188,8290.306550,-536.266849
158.949275,4885.359217,7994.224174,0.000000
158.949596,4885.359217,8142.265362,0.000000
158.949917,4885.359217,7624.121203,229.828649
158.950238,4885.359217,7994.224174,0.000000
158.950558,4959.379811,7920.203579,0.000000
158.950879,4885.359217,7994.224174,-306.438199
158.951200,5181.441594,7920.203579,-153.219100
158.951521,4737.318029,8290.306550,229.828649
158.951841,5033.400406,7698.141797,-536.266849
158.952162,4885.359217,8216.285956,-383.047749
158.952483,4959.379811,7772.162391,0.000000
158.952804,5107.421000,7994.224174,0.000000
158.953125,4959.379811,8290.306550,-76.609550
158.953445,4959.379811,7772.162391,-229.828649
158.953766,5181.441594,7994.224174,-153.219100
158.954087,5033.400406,7994.224174,0.000000
158.954408,4811.338623,8068.244768,0.000000
158.954729,5255.462188,7994.224174,-612.876398
158.955049,5033.400406,7772.162391,-459.657299
158.955370,5255.462188,7772.162391,0.000000
158.955691,4959.379811,7994.224174,-306.438199
158.956012,5107.421000,8142.265362,-229.828649
158.956333,5329.482782,7994.224174,0.000000
158.956653,5107.421000,7994.224174,-229.828649
158.956974,4811.338623,8142.265362,-383.047749
158.957295,4441.235652,7624.121203,-536.266849
158.957616,4219.173869,7624.121203,-229.828649
158.957936,4367.215058,8438.347739,-306.438199
158.958257,4441.235652,9622.677246,-689.485948
158.958578,4663.297435,10066.800811,-1302.362347
158.958899,4737.318029,9918.759623,-1455.581446
158.959220,4367.215058,9178.553681,-612.876398
158.959540,3849.070898,9030.512492,842.705048
158.959861,3182.885551,9326.594869,919.314598
158.960182,2960.823768,9474.636058,919.314598
158.960503,2738.761985,9252.574275,229.828649
158.960824,2738.761985,8512.368333,-383.047749
158.961144,2886.803174,8512.368333,-459.657299
158.961465,3256.906145,8808.450710,-459.657299
158.961786,2960.823768,9252.574275,76.609550
158.962107,2590.720797,9400.615463,612.876398
158.962428,2368.659014,9178.553681,0.000000
158.962748,2442.679609,9918.759623,0.000000
158.963069,2294.638420,10436.903782,-612.876398
158.963390,1924.535449,11399.171507,-1225.752797
158.963711,1628.453072,11843.295072,-1378.971896
158.964031,1406.391290,11695.253884,-1532.190996
158.964352,592.164754,11103.089130,-1225.752797
158.964673,-74.020594,11399.171507,-995.924147
158.964994,-1184.329507,11991.336260,-383.047749
158.965315,-2072.576638,13101.645173,612.876398
158.965635,-2220.617826,12287.418637,612.876398
158.965956,-1258.350101,11843.295072,1302.362347
158.966277,-1258.350101,12139.377449,1685.410096
158.966598,-1776.494261,12435.459826,1915.238745
158.966919,-2738.761985,11769.274478,689.485948
158.967239,-2516.700203,10732.986159,-766.095498
158.967560,-1924.535449,10140.821405,-459.657299
158.967881,-1036.288319,9918.759623,612.876398
158.968202,-296.082377,10214.842000,842.705048
158.968523,-444.123565,10881.027347,0.000000
158.968843,74.020594,11547.212695,-1225.752797
158.969164,1406.391290,11325.150913,-2298.286494
158.969485,2294.638420,10584.944971,-612.876398
158.969806,2812.782580,10362.883188,153.219100
158.970126,3256.906145,10362.883188,0.000000
158.970447,2220.617826,9622.677246,-1915.238745
158.970768,1850.514855,9474.636058,-2451.505594
158.971089,1998.556043,9770.718434,-1608.800546
158.971410,2146.597232,10214.842000,-383.047749
158.971730,1776.494261,10362.883188,-153.219100
158.972051,1332.370696,10807.006753,-536.266849
158.972372,814.226536,11473.192101,-306.438199
158.972693,74.020594,11325.150913,536.266849
158.973014,-296.082377,10732.986159,612.876398
158.973334,-370.102971,9844.739029,536.266849
158.973655,0.000000,9770.718434,1072.533697
158.973976,-592.164754,10066.800811,1532.190996
158.974297,-962.267725,10362.883188,1915.238745
158.974618,-518.144159,10955.047942,1532.190996
158.974938,814.226536,10807.006753,1225.752797
158.975259,1554.432478,10881.027347,689.485948
158.975580,1776.494261,10881.027347,306.438199
158.975901,2294.638420,10214.842000,-1149.143247
158.976221,2294.638420,9696.697840,-1149.143247
158.976542,2368.659014,8956.491898,-842.705048
158.976863,2072.576638,8512.368333,-229.828649
158.977184,2442.679609,8808.450710,76.609550
158.977505,2812.782580,9474.636058,0.000000
158.977825,2886.803174,10436.903782,-612.876398
158.978146,3256.906145,11029.068536,-1225.752797
158.978467,3552.988522,10584.944971,-1378.971896
158.978788,3552.988522,9992.780217,-1608.800546
158.979109,3256.906145,9400.615463,-1532.190996
158.979429,2442.679609,9474.636058,-1149.143247
158.979750,1850.514855,10510.924376,-76.609550
158.980071,1110.308913,11103.089130,76.609550
158.980392,1184.329507,11917.315666,0.000000
158.980713,962.267725,11473.192101,-612.876398
158.981033,0.000000,10955.047942,-1532.190996
158.981354,-1702.473667,9622.677246,-1608.800546
158.981675,-1850.514855,8660.409521,-1072.533697
158.981996,-2368.659014,8956.491898,612.876398
158.982316,-1406.391290,10362.883188,1762.019645
158.982637,-222.061783,12509.480420,2068.457845
158.982958,296.082377,14137.933492,1608.800546
158.983279,296.082377,14582.057057,306.438199
158.983600,592.164754,13989.892304,0.000000
158.983920,1554.432478,11843.295072,-536.266849
158.984241,1702.473667,10658.965565,-306.438199
158.984562,962.267725,9326.594869,-842.705048
158.984883,-370.102971,8808.450710,-1532.190996
158.985204,-1628.453072,9104.533087,-2145.067394
158.985524,-2294.638420,10066.800811,-1532.190996
158.985845,-1480.411884,11251.130318,-459.657299
158.986166,518.144159,12361.439231,842.705048
158.986487,1110.308913,13101.645173,229.828649
158.986808,814.226536,13471.748144,-153.219100
158.987128,0.000000,13545.768739,-612.876398
158.987449,296.082377,12731.542202,-995.924147
158.987770,1480.411884,11251.130318,-459.657299
158.988091,1406.391290,8364.327145,-995.924147
158.988411,1776.494261,6365.771101,-1149.143247
158.988732,1850.514855,8734.430116,0.000000
158.989053,518.144159,11769.274478,1532.190996
158.989374,-1110.308913,11917.315666,766.095498
158.989695,296.082377,9474.636058,0.000000
158.990015,1628.453072,7994.224174,229.828649
158.990336,148.041188,7772.162391,919.314598
158.990657,814.226536,9992.780217,612.876398
158.990978,518.144159,11843.295072,-1302.362347
158.991299,148.041188,13471.748144,-2604.724693
158.991619,1258.350101,12879.583391,-1838.629195
158.991940,1998.556043,12731.542202,-1378.971896
158.992261,296.082377,13397.727550,-689.485948
158.992582,-962.267725,13841.851115,536.266849
158.992903,-518.144159,11029.068536,1149.143247
158.993223,74.020594,7994.224174,2221.676944
158.993544,-666.185348,7402.059420,2528.115143
158.993865,-1332.370696,8364.327145,1838.629195
158.994186,-2072.576638,9548.656652,229.828649
158.994506,-1332.370696,9696.697840,-612.876398
158.994827,740.205942,10584.944971,0.000000
158.995148,2220.617826,11029.068536,229.828649
158.995469,3552.988522,11991.336260,383.047749
158.995790,2146.597232,12287.418637,229.828649
158.996110,296.082377,10881.027347,-1378.971896
158.996431,1184.329507,8216.285956,-2987.772442
158.996752,3182.885551,6513.812290,-2221.676944
158.997073,4737.318029,9030.512492,995.924147
158.997394,3034.844362,13175.665768,919.314598
158.997714,814.226536,14211.954086,-2528.115143
158.998035,814.226536,13175.665768,-4060.306139
158.998356,814.226536,9696.697840,-2221.676944
158.998677,0.000000,6957.935855,-229.828649
158.998998,-1184.329507,5107.421000,689.485948
158.999318,0.000000,9474.636058,76.609550
158.999639,-222.061783,15174.221811,-383.047749
158.999960,-2516.700203,15840.407159,-459.657299
159.000281,-1332.370696,14434.015869,-229.828649
159.000601,518.144159,13545.768739,1378.971896
159.000922,-1850.514855,12361.439231,2145.067394
159.001243,-1480.411884,10881.027347,1302.362347
159.001564,-1184.329507,9844.739029,-536.266849
159.001885,-962.267725,10362.883188,-459.657299
159.002205,740.205942,10214.842000,1072.533697
159.002526,888.247130,9844.739029,1532.190996
159.002847,-74.020594,9178.553681,153.219100
159.003168,1702.473667,9992.780217,1225.752797
159.003489,3182.885551,11325.150913,919.314598
159.003809,3404.947333,10584.944971,-995.924147
159.004130,4663.297435,11103.089130,-2068.457845
159.004451,5107.421000,12065.356855,-2145.067394
159.004772,2664.741391,10955.047942,-2451.505594
159.005092,1406.391290,7550.100608,-2145.067394
159.005413,2738.761985,7328.038826,-1991.848295
159.005734,3330.926739,10066.800811,0.000000
159.006055,1776.494261,13471.748144,1225.752797
159.006376,1036.288319,13989.892304,-612.876398
159.006696,518.144159,11621.233289,-2145.067394
159.007017,-962.267725,10066.800811,76.609550
159.007338,-1480.411884,9178.553681,1915.238745
159.007659,-1184.329507,9696.697840,1378.971896
159.007979,518.144159,12213.398043,0.000000
159.008300,296.082377,12731.542202,0.000000
159.008621,-370.102971,10362.883188,612.876398
159.008941,222.061783,8808.450710,2374.896044
159.009262,1184.329507,9252.574275,4596.572988
159.009583,888.247130,10140.821405,3753.867940
159.009904,2442.679609,8734.430116,689.485948
159.010224,4145.153275,6291.750507,-1991.848295
159.010545,3330.926739,4811.338623,-1225.752797
159.010866,4071.132681,4811.338623,919.314598
159.011186,6513.812290,5255.462188,1532.190996
159.011507,7476.080014,8142.265362,-766.095498
159.011828,8216.285956,10362.883188,-2604.724693
159.012149,7920.203579,9326.594869,-4290.134789
159.012469,7328.038826,7476.080014,-3524.039291
159.012790,7105.977043,8216.285956,-306.438199
159.013111,6661.853478,8882.471304,-383.047749
159.013431,4441.235652,7550.100608,-2987.772442
159.013752,4219.173869,7402.059420,-3907.087040
159.014073,3256.906145,9474.636058,-1302.362347
159.014394,1184.329507,11399.171507,459.657299
159.014714,444.123565,10658.965565,1685.410096
159.015035,1998.556043,10214.842000,2604.724693
159.015356,2442.679609,8438.347739,3447.429741
159.015676,1554.432478,8142.265362,4290.134789
159.015997,296.082377,7698.141797,3064.381992
159.016318,-74.020594,8660.409521,76.609550
159.016639,2812.782580,9844.739029,1072.533697
159.016959,4441.235652,8216.285956,995.924147
159.017280,5995.668130,6291.750507,229.828649
159.017601,6587.832884,7402.059420,383.047749
159.017921,5551.544565,10140.821405,-229.828649
159.018242,4293.194464,9548.656652,-2068.457845
159.018563,6291.750507,7476.080014,-2451.505594
159.018883,9326.594869,6365.771101,-1762.019645
159.019204,10510.924376,6365.771101,383.047749
159.019525,9844.739029,8068.244768,229.828649
159.019846,7772.162391,8364.327145,-2987.772442
159.020166,5625.565159,6513.812290,-5209.449386
159.020487,7254.018232,5773.606348,-3830.477490
159.020808,8808.450710,6883.915261,-766.095498
159.021128,7179.997637,8660.409521,76.609550
159.021449,5995.668130,9844.739029,0.000000
159.021770,3923.091493,9400.615463,-1149.143247
159.022091,1998.556043,7328.038826,-1762.019645
159.022411,2368.659014,8068.244768,306.438199
159.022732,2516.700203,9844.739029,2221.676944
159.023053,1702.473667,11325.150913,919.314598
159.023373,1554.432478,11325.150913,-153.219100
159.023694,962.267725,9474.636058,-1149.143247
159.024015,1702.473667,9326.594869,1072.533697
159.024336,2590.720797,10955.047942,4213.525239
159.024656,2368.659014,11695.253884,3294.210641
159.024977,1702.473667,9104.533087,0.000000
159.025298,1702.473667,6513.812290,-766.095498
159.025618,4293.194464,7772.162391,2145.067394
159.025939,4737.318029,8512.368333,3600.648841
159.026260,4515.256246,7624.121203,459.657299
159.026581,6365.771101,6661.853478,-2834.553343
159.026901,6365.771101,6513.812290,-2987.772442
159.027222,7402.059420,7476.080014,-383.047749
159.027543,9104.533087,7920.203579,612.876398
159.027863,8660.409521,8216.285956,-995.924147
159.028184,8586.388927,7254.018232,-2221.676944
159.028505,8882.471304,6587.832884,-1455.581446
159.028825,7550.100608,6439.791695,-1378.971896
159.029146,6735.874072,7105.977043,-842.705048
159.029467,6957.935855,8660.409521,-995.924147
159.029788,6883.915261,7402.059420,-1838.629195
159.030108,5847.626942,4589.276840,-1225.752797
159.030429,6809.894666,5403.503377,536.266849
159.030750,4811.338623,7254.018232,1838.629195
159.031070,2146.597232,8882.471304,842.705048
159.031391,3849.070898,7624.121203,383.047749
159.031712,4441.235652,6957.935855,383.047749
159.032033,4737.318029,6883.915261,2681.334243
159.032353,4959.379811,9474.636058,3064.381992
159.032674,2368.659014,10214.842000,766.095498
159.032995,1110.308913,8290.306550,-1149.143247
159.033315,4219.173869,5551.544565,0.000000
159.033636,4515.256246,5033.400406,1072.533697
159.033957,5033.400406,6957.935855,1608.800546
159.034278,3997.112087,9252.574275,919.314598
159.034598,4145.153275,9252.574275,-1685.410096
159.034919,5921.647536,8216.285956,-1838.629195
159.035240,8290.306550,7846.182985,229.828649
159.035560,7105.977043,6883.915261,-1685.410096
159.035881,6587.832884,6883.915261,-2374.896044
159.036202,5477.523971,7476.080014,-1532.190996
159.036522,6069.688724,6957.935855,-1762.019645
159.036843,7179.997637,6883.915261,-1149.143247
159.037164,8290.306550,8734.430116,-1838.629195
159.037485,6957.935855,10732.986159,-2068.457845
159.037805,5181.441594,10066.800811,-995.924147
159.038126,4959.379811,8068.244768,-689.485948
159.038447,5033.400406,6883.915261,459.657299
159.038767,4145.153275,7476.080014,1915.238745
159.039088,3997.112087,8956.491898,1302.362347
159.039409,2368.659014,7846.182985,-1532.190996
159.039730,3923.091493,8142.265362,-1762.019645
159.040050,4811.338623,9474.636058,-153.219100
159.040371,3552.988522,9918.759623,459.657299
159.040692,3775.050304,10732.986159,1302.362347
159.041012,3849.070898,10066.800811,1762.019645
159.041333,3330.926739,8734.430116,306.438199
159.041654,4515.256246,7402.059420,229.828649
159.041975,3997.112087,8068.244768,-842.705048
159.042295,4441.235652,9474.636058,-919.314598
159.042616,5921.647536,9622.677246,76.609550
159.042937,6587.832884,7772.162391,-766.095498
159.043257,7994.224174,7624.121203,-1149.143247
159.043578,6809.894666,7994.224174,-995.924147
159.043899,3997.112087,7624.121203,-1532.190996
159.044220,5181.441594,6661.853478,-766.095498
159.044540,7105.977043,5329.482782,0.000000
159.044861,8142.265362,5995.668130,229.828649
159.045182,7772.162391,7031.956449,-1072.533697
159.045502,6143.709319,8142.265362,-2374.896044
159.045823,5403.503377,8660.409521,-2604.724693
159.046144,6957.935855,7105.977043,-1302.362347
159.046464,7772.162391,6365.771101,0.000000
159.046785,7105.977043,6809.894666,919.314598
159.047106,5033.400406,7698.141797,612.876398
159.047427,3330.926739,7105.977043,-766.095498
159.047747,4071.132681,7624.121203,-1072.533697
159.048068,5551.544565,9400.615463,536.266849
159.048389,5181.441594,9178.553681,612.876398
159.048709,3108.864956,7476.080014,536.266849
159.049030,3775.050304,7105.977043,612.876398
159.049351,3478.967927,7105.977043,1302.362347
159.049672,3552.988522,7994.224174,2298.286494
159.049992,4885.359217,8142.265362,1532.190996
159.050313,3849.070898,7179.997637,-612.876398
159.050634,4515.256246,6439.791695,459.657299
159.050954,6957.935855,8216.285956,1532.190996
159.051275,5847.626942,8734.430116,995.924147
159.051596,6735.874072,8512.368333,-1149.143247
159.051917,6883.915261,6883.915261,-1608.800546
159.052237,5551.544565,5403.503377,-1455.581446
159.052558,7550.100608,5107.421000,1072.533697
159.052879,7920.203579,7105.977043,1915.238745
159.053199,6883.915261,8142.265362,-1608.800546
159.053520,7105.977043,9104.533087,-3294.210641
159.053841,7846.182985,8290.306550,-2374.896044
159.054162,6587.832884,6439.791695,-1149.143247
159.054482,7031.956449,6883.915261,1838.629195
159.054803,5477.523971,8068.244768,1532.190996
159.055124,3182.885551,7920.203579,-1149.143247
159.055444,3552.988522,7105.977043,-1685.410096
159.055765,5699.585753,7698.141797,-1149.143247
159.056086,4367.215058,9992.780217,1072.533697
159.056406,3849.070898,11177.109724,1991.848295
159.056727,2960.823768,9918.759623,153.219100
159.057048,1480.411884,7624.121203,0.000000
159.057369,2590.720797,7254.018232,2221.676944
159.057689,3404.947333,8882.471304,3677.258390
159.058010,2146.597232,9474.636058,842.705048
159.058331,2886.803174,9474.636058,-919.314598
159.058651,4145.153275,8882.471304,-995.924147
159.058972,5329.482782,7179.997637,0.000000
159.059293,6143.709319,7031.956449,2298.286494
159.059614,5773.606348,7550.100608,689.485948
159.059934,4367.215058,7994.224174,-2145.067394
159.060255,4589.276840,7402.059420,-1915.238745
159.060576,7328.038826,7105.977043,-995.924147
159.060896,9696.697840,7772.162391,76.609550
159.061217,8068.244768,8290.306550,0.000000
159.061538,6661.853478,7846.182985,-3217.601092
159.061859,6217.729913,6513.812290,-3447.429741
159.062179,6365.771101,5181.441594,-1532.190996
159.062500,7254.018232,6513.812290,689.485948
159.062821,7698.141797,7920.203579,76.609550
159.063141,5477.523971,8512.368333,-2145.067394
159.063462,4441.235652,7772.162391,-3370.820191
159.063783,5107.421000,8512.368333,-1378.971896
159.064103,5699.585753,8956.491898,919.314598
159.064424,3627.009116,8660.409521,1532.190996
159.064745,3552.988522,7846.182985,-306.438199
159.065066,3108.864956,8216.285956,-842.705048
159.065386,3034.844362,8734.430116,1072.533697
159.065707,4071.132681,9696.697840,1838.629195
159.066028,3404.947333,9400.615463,536.266849
159.066348,3330.926739,9178.553681,-766.095498
159.066669,4145.153275,8364.327145,306.438199
159.066990,4441.235652,7402.059420,1149.143247
159.067311,5403.503377,7994.224174,1455.581446
159.067631,5181.441594,7994.224174,689.485948
159.067952,4071.132681,8290.306550,-1685.410096
159.068273,5329.482782,7698.141797,-1072.533697
159.068593,7550.100608,7179.997637,1072.533697
159.068914,7254.018232,7179.997637,612.876398
159.069235,7105.977043,8290.306550,-689.485948
159.069556,6143.709319,8734.430116,-2374.896044
159.069876,5477.523971,7624.121203,-2451.505594
159.070197,7624.121203,7105.977043,-919.314598
159.070518,8364.327145,7402.059420,0.000000
159.070838,5625.565159,7105.977043,0.000000
159.071159,3997.112087,7994.224174,-842.705048
159.071480,4441.235652,9548.656652,-842.705048
159.071801,3552.988522,8586.388927,-76.609550
159.072121,5255.462188,7179.997637,612.876398
159.072442,5995.668130,7328.038826,689.485948
159.072763,2812.782580,7698.141797,0.000000
159.073083,2368.659014,7179.997637,229.828649
159.073404,3923.091493,8882.471304,766.095498
159.073725,3997.112087,9622.677246,612.876398
159.074045,4515.256246,9918.759623,1149.143247
159.074366,4663.297435,9326.594869,0.000000
159.074687,2886.803174,7846.182985,-1225.752797
159.075008,3627.009116,7994.224174,842.705048
159.075328,5181.441594,8142.265362,1608.800546
159.075649,4515.256246,7179.997637,536.266849
159.075970,4737.318029,6661.853478,-383.047749
159.076290,5477.523971,7105.977043,-842.705048
159.076611,5329.482782,8290.306550,-229.828649
159.076932,5773.606348,9400.615463,0.000000
159.077253,5403.503377,9474.636058,-689.485948
159.077573,5995.668130,7698.141797,-1608.800546
159.077894,5921.647536,6587.832884,-689.485948
159.078215,6069.688724,6439.791695,76.609550
159.078535,5181.441594,7994.224174,-1149.143247
159.078856,4515.256246,9992.780217,-1302.362347
159.079177,3552.988522,10066.800811,-1991.848295
159.079498,4589.276840,8438.347739,-1149.143247
159.079818,5551.544565,9104.533087,1378.971896
159.080139,4145.153275,10140.821405,1991.848295
159.080460,1406.391290,10362.883188,-153.219100
159.080780,1406.391290,9474.636058,-1455.581446
159.081101,2664.741391,7254.018232,0.000000
159.081422,4219.173869,7476.080014,2681.334243
159.081743,3997.112087,8586.388927,3294.210641
159.082063,3034.844362,10584.944971,612.876398
159.082384,1776.494261,10510.924376,-1225.752797
159.082705,2294.638420,8808.450710,-1378.971896
159.083025,5329.482782,6735.874072,842.705048
159.083346,5995.668130,6439.791695,2528.115143
159.083667,5403.503377,7920.203579,766.095498
159.083987,4663.297435,8956.491898,-919.314598
159.084308,4441.235652,7402.059420,-2221.676944
159.084629,6365.771101,7031.956449,-1149.143247
159.084950,8142.265362,9030.512492,459.657299
159.085270,7031.956449,9622.677246,-842.705048
159.085591,5773.606348,8068.244768,-2528.115143
159.085912,5773.606348,6883.915261,-2221.676944
159.086232,7105.977043,5921.647536,-229.828649
159.086553,6291.750507,5551.544565,842.705048
159.086874,5255.462188,7031.956449,-1072.533697
159.087195,4589.276840,8142.265362,-2757.943793
159.087515,4515.256246,7994.224174,-1608.800546
159.087836,6587.832884,7105.977043,459.657299
159.088157,6143.709319,7846.182985,1455.581446
159.088477,4663.297435,8734.430116,0.000000
159.088798,3552.988522,9104.533087,-1302.362347
159.089119,3256.906145,6809.894666,-1762.019645
159.089440,4589.276840,6069.688724,459.657299
159.089760,5995.668130,7772.162391,1762.019645
159.090081,4441.235652,8586.388927,689.485948
159.090402,4293.194464,9622.677246,-995.924147
159.090722,4589.276840,8734.430116,-1149.143247
159.091043,5477.523971,7624.121203,-383.047749
159.091364,6217.729913,7476.080014,1149.143247
159.091684,4811.338623,8364.327145,919.314598
159.092005,3701.029710,7920.203579,-612.876398
159.092326,6217.729913,7624.121203,-459.657299
159.092647,7476.080014,7698.141797,0.000000
159.092967,6143.709319,8142.265362,76.609550
159.093288,5329.482782,9622.677246,-689.485948
159.093609,4441.235652,9992.780217,-1149.143247
159.093929,4219.173869,8956.491898,-689.485948
159.094250,7179.997637,7179.997637,306.438199
159.094571,6735.874072,7698.141797,229.828649
159.094892,4219.173869,9178.553681,-1225.752797
159.095212,2886.803174,10066.800811,-1455.581446
159.095533,2812.782580,8882.471304,-1149.143247
159.095854,4219.173869,7624.121203,612.876398
159.096174,5995.668130,9400.615463,2374.896044
159.096495,3182.885551,10584.944971,-229.828649
159.096816,962.267725,10066.800811,-3294.210641
159.097137,2664.741391,8660.409521,-995.924147
159.097457,3997.112087,8438.347739,1838.629195
159.097778,3849.070898,8512.368333,2604.724693
159.098099,3997.112087,9696.697840,995.924147
159.098419,1924.535449,10732.986159,-1302.362347
159.098740,1110.308913,9474.636058,-766.095498
159.099061,4885.359217,7920.203579,842.705048
159.099382,5403.503377,7550.100608,1149.143247
159.099702,3923.091493,8290.306550,76.609550
159.100023,3404.947333,8216.285956,0.000000
159.100344,2886.803174,7328.038826,-766.095498
159.100664,4515.256246,7846.182985,229.828649
159.100985,6587.832884,9252.574275,1378.971896
159.101306,5625.565159,9474.636058,-995.924147
159.101626,3923.091493,8660.409521,-1685.410096
159.101947,4885.359217,7624.121203,0.000000
159.102268,5847.626942,6513.812290,1378.971896
159.102589,5033.400406,7105.977043,1532.190996
159.102909,4737.318029,7476.080014,-689.485948
159.103230,5181.441594,7846.182985,-2681.334243
159.103551,5403.503377,6735.874072,-1378.971896
159.103871,7105.977043,6365.771101,459.657299
159.104192,7476.080014,7179.997637,1149.143247
159.104513,4959.379811,7254.018232,76.609550
159.104834,4885.359217,6957.935855,-612.876398
159.105154,5847.626942,5921.647536,-919.314598
159.105475,6735.874072,5847.626942,-689.485948
159.105796,7031.956449,7772.162391,229.828649
159.106116,6143.709319,9178.553681,-1532.190996
159.106437,5255.462188,8586.388927,-1991.848295
159.106758,6365.771101,7031.956449,0.000000
159.107078,7624.121203,6735.874072,1455.581446
159.107399,7105.977043,8364.327145,1378.971896
159.107720,4737.318029,9474.636058,689.485948
159.108040,4663.297435,9400.615463,-766.095498
159.108361,6661.853478,7105.977043,0.000000
159.108682,7550.100608,6069.688724,2145.067394
159.109002,7105.977043,7105.977043,2145.067394
159.109323,4367.215058,7994.224174,-612.876398
159.109644,2368.659014,7846.182985,-1685.410096
159.109964,3775.050304,6661.853478,-842.705048
159.110285,6513.812290,6735.874072,1455.581446
159.110606,6809.894666,9326.594869,1838.629195
159.110926,4441.235652,11473.192101,-459.657299
159.111247,3256.906145,11473.192101,-3600.648841
159.111568,3404.947333,9400.615463,-1762.019645
159.111888,4885.359217,7624.121203,612.876398
159.112209,5995.668130,7254.018232,2298.286494
159.112530,5403.503377,9326.594869,536.266849
159.112850,2368.659014,8882.471304,-1991.848295
159.113171,2590.720797,7105.977043,-2298.286494
159.113492,5181.441594,7476.080014,0.000000
159.113812,5847.626942,8808.450710,2451.505594
159.114133,3775.050304,9030.512492,459.657299
159.114454,4811.338623,7920.203579,-1915.238745
159.114774,4959.379811,7031.956449,-1608.800546
159.115095,4737.318029,7328.038826,459.657299
159.115416,5847.626942,8660.409521,536.266849
159.115736,5181.441594,9474.636058,-1072.533697
159.116057,4145.153275,9400.615463,-2145.067394
159.116378,5773.606348,8882.471304,-536.266849
159.116698,6143.709319,7698.141797,153.219100
159.117019,3997.112087,8660.409521,306.438199
159.117340,3627.009116,9252.574275,76.609550
159.117660,3775.050304,8660.409521,-383.047749
159.117981,3923.091493,5773.606348,536.266849
159.118302,6069.688724,5403.503377,1608.800546
159.118622,5329.482782,8364.327145,1608.800546
159.118943,2368.659014,9918.759623,-689.485948
159.119264,2886.803174,9030.512492,-1225.752797
159.119584,5255.462188,6957.935855,-919.314598
159.119905,6069.688724,5921.647536,459.657299
159.120226,4737.318029,6809.894666,1302.362347
159.120546,2886.803174,9178.553681,-842.705048
159.120867,3775.050304,10436.903782,-1532.190996
159.121188,5551.544565,9030.512492,-153.219100
159.121508,8438.347739,7624.121203,76.609550
159.121829,8438.347739,7550.100608,229.828649
159.122150,5995.668130,8512.368333,-536.266849
159.122470,4663.297435,7328.038826,-1762.019645
159.122791,6143.709319,5107.421000,-612.876398
159.123112,8068.244768,4219.173869,1072.533697
159.123432,8808.450710,6735.874072,1915.238745
159.123753,6883.915261,8734.430116,842.705048
159.124074,4441.235652,9400.615463,-1532.190996
159.124394,5847.626942,8512.368333,-842.705048
159.124715,7105.977043,6291.750507,766.095498
159.125036,6439.791695,6217.729913,1838.629195
159.125356,5033.400406,6143.709319,919.314598
159.125677,3182.885551,7105.977043,-1225.752797
159.125998,3404.947333,7624.121203,-383.047749
159.126318,4737.318029,7920.203579,1225.752797
159.126639,5921.647536,8956.491898,689.485948
159.126960,4885.359217,9326.594869,-536.266849
159.127280,3404.947333,8586.388927,-1225.752797
159.127601,4219.173869,7698.141797,-766.095498
159.127922,4367.215058,7105.977043,536.266849
159.128242,4737.318029,7402.059420,689.485948
159.128563,4145.153275,8142.265362,-383.047749
159.128884,3552.988522,8068.244768,-1149.143247
159.129204,4959.379811,7476.080014,-995.924147
159.129525,6513.812290,8216.285956,-383.047749
159.129846,6143.709319,8734.430116,-919.314598
159.130166,4737.318029,9030.512492,-2145.067394
159.130487,4737.318029,7698.141797,-1149.143247
159.130808,6217.729913,7624.121203,1149.143247
159.131128,6957.935855,6883.915261,2528.115143
159.131449,6513.812290,8216.285956,842.705048
159.131770,5255.462188,8956.491898,-1915.238745
159.132090,3997.112087,7698.141797,-2681.334243
159.132411,5847.626942,6513.812290,-153.219100
159.132732,7476.080014,7031.956449,1915.238745
159.133052,5033.400406,8364.327145,689.485948
159.133373,3923.091493,9178.553681,-1608.800546
159.133694,2886.803174,8882.471304,-1991.848295
159.134014,3552.988522,8808.450710,-229.828649
159.134335,6587.832884,8586.388927,1991.848295
159.134656,5625.565159,9474.636058,1072.533697
159.134976,3701.029710,9326.594869,-1685.410096
159.135297,3627.009116,8882.471304,-1072.533697
159.135618,3478.967927,7772.162391,-536.266849
159.135938,4663.297435,7846.182985,0.000000
159.136259,5255.462188,10362.883188,1072.533697
159.136580,3701.029710,10955.047942,-1149.143247
159.136900,3701.029710,8956.491898,-1302.362347
159.137221,6069.688724,6957.935855,0.000000
159.137541,6661.853478,6735.874072,689.485948
159.137862,5625.565159,8142.265362,383.047749
159.138183,4737.318029,8216.285956,-1225.752797
159.138503,5107.421000,7624.121203,-1991.848295
159.138824,6587.832884,5699.585753,306.438199
159.139145,9030.512492,6809.894666,2528.115143
159.139465,7698.141797,8808.450710,1532.190996
159.139786,4737.318029,9622.677246,-1378.971896
159.140107,5329.482782,8364.327145,-2451.505594
159.140427,7254.018232,5181.441594,-1149.143247
159.140748,8216.285956,4737.318029,1838.629195
159.141069,7254.018232,6217.729913,2451.505594
159.141389,3775.050304,7254.018232,-995.924147
159.141710,3034.844362,7254.018232,-2145.067394
159.142031,5033.400406,5995.668130,-306.438199
159.142351,5847.626942,6291.750507,1302.362347
159.142672,5551.544565,7698.141797,689.485948
159.142993,3627.009116,9252.574275,-1149.143247
159.143313,3256.906145,9030.512492,-2451.505594
159.143634,4515.256246,7254.018232,-459.657299
159.143955,5995.668130,6735.874072,1608.800546
159.144275,4959.379811,8660.409521,612.876398
159.144596,2442.679609,9548.656652,-1225.752797
159.144917,2664.741391,8586.388927,-1532.190996
159.145237,5181.441594,6883.915261,-612.876398
159.145558,7031.956449,6809.894666,919.314598
159.145879,5773.606348,7698.141797,842.705048
159.146199,4293.194464,9326.594869,-1149.143247
159.146520,4367.215058,8734.430116,-1455.581446
159.146841,4959.379811,7254.018232,383.047749
159.147161,7254.018232,8068.244768,2298.286494
159.147482,6439.791695,8512.368333,1378.971896
159.147803,3923.091493,9252.574275,-1072.533697
159.148123,3627.009116,8290.306550,-1915.238745
159.148444,6069.688724,6957.935855,-919.314598
159.148765,6513.812290,6957.935855,-306.438199
159.149085,5403.503377,8956.491898,153.219100
159.149406,2960.823768,10584.944971,-536.266849
159.149727,2886.803174,9918.759623,-689.485948
159.150047,5255.462188,7550.100608,1302.362347
159.150368,7179.997637,7698.141797,1838.629195
159.150689,5329.482782,8586.388927,-383.047749
159.151009,2294.638420,9400.615463,-2604.724693
159.151330,2664.741391,8808.450710,-1991.848295
159.151651,4959.379811,7550.100608,459.657299
159.151971,6809.894666,8290.306550,2374.896044
159.152292,5625.565159,8438.347739,766.095498
159.152613,2368.659014,9326.594869,-2757.943793
159.152933,2368.659014,8956.491898,-2604.724693
159.153254,4737.318029,8512.368333,153.219100
159.153575,7105.977043,7328.038826,1608.800546
159.153895,7328.038826,7550.100608,536.266849
159.154216,4811.338623,9178.553681,-919.314598
159.154537,2590.720797,8734.430116,-1532.190996
159.154857,4737.318029,7698.141797,229.828649
159.155178,7402.059420,7920.203579,1378.971896
159.155499,7179.997637,8216.285956,1072.533697
159.155819,5255.462188,7772.162391,-842.705048
159.156140,4441.235652,7550.100608,-1378.971896
159.156461,4441.235652,6735.874072,229.828649
159.156781,5107.421000,6587.832884,1378.971896
159.157102,4663.297435,8364.327145,-153.219100
159.157423,2664.741391,8364.327145,-1149.143247
159.157743,4145.153275,7476.080014,-229.828649
159.158064,5329.482782,6587.832884,919.314598
159.158385,4589.276840,7328.038826,459.657299
159.158705,4293.194464,10140.821405,0.000000
159.159026,3108.864956,10510.924376,-2451.505594
159.159347,3775.050304,8290.306550,-2068.457845
159.159667,7254.018232,6513.812290,842.705048
159.159988,7105.977043,6735.874072,1608.800546
159.160309,4515.256246,8216.285956,-306.438199
159.160629,2960.823768,9326.594869,-1455.581446
159.160950,3478.967927,7031.956449,-1762.019645
159.161271,7105.977043,6217.729913,919.314598
159.161591,8882.471304,6883.915261,2987.772442
159.161912,5699.585753,7920.203579,-612.876398
159.162233,3775.050304,8734.430116,-3830.477490
159.162553,4737.318029,7550.100608,-1608.800546
159.162874,7031.956449,6513.812290,1225.752797
159.163195,8882.471304,6217.729913,3370.820191
159.163515,6957.935855,7994.224174,919.314598
159.163836,3552.988522,10288.862594,-2451.505594
159.164157,2812.782580,9474.636058,-2374.896044
159.164477,5477.523971,6809.894666,76.609550
159.164798,7920.203579,6143.709319,1455.581446
159.165119,6365.771101,8734.430116,1455.581446
159.165439,2220.617826,10362.883188,-1149.143247
159.165760,1036.288319,9030.512492,-2528.115143
159.166081,3256.906145,7846.182985,0.000000
159.166401,5699.585753,8068.244768,1838.629195
159.166722,4811.338623,8364.327145,1685.410096
159.167043,2960.823768,9474.636058,-1532.190996
159.167363,2220.617826,9696.697840,-2374.896044
159.167684,3182.885551,9844.739029,-383.047749
159.168005,4515.256246,8882.471304,1149.143247
159.168325,4515.256246,9548.656652,383.047749
159.168646,3775.050304,10658.965565,-1149.143247
159.168967,3404.947333,10066.800811,-1072.533697
159.169287,5403.503377,8290.306550,383.047749
159.169608,6661.853478,7624.121203,1302.362347
159.169929,4811.338623,6883.915261,689.485948
159.170249,4145.153275,7624.121203,229.828649
159.170570,4959.379811,7772.162391,0.000000
159.170891,5403.503377,7402.059420,459.657299
159.171211,7254.018232,7772.162391,842.705048
159.171532,6661.853478,8438.347739,-459.657299
159.171853,3997.112087,8956.491898,-2221.676944
159.172173,4293.194464,7994.224174,-1302.362347
159.172494,5773.606348,7179.997637,459.657299
159.172814,5181.441594,7254.018232,1149.143247
159.173135,4071.132681,9696.697840,0.000000
159.173456,2664.741391,11177.109724,-1608.800546
159.173776,2072.576638,9696.697840,-2451.505594
159.174097,4219.173869,7846.182985,229.828649
159.174418,6143.709319,8438.347739,2451.505594
159.174738,2886.803174,8808.450710,1685.410096
159.175059,1406.391290,8882.471304,-459.657299
159.175380,1776.494261,7624.121203,-1685.410096
159.175700,3552.988522,6957.935855,0.000000
159.176021,6883.915261,7772.162391,1302.362347
159.176342,6143.709319,9400.615463,689.485948
159.176662,3256.906145,7846.182985,-1072.533697
159.176983,4737.318029,6661.853478,-306.438199
159.177304,7550.100608,6513.812290,1072.533697
159.177624,7550.100608,7328.038826,536.266849
159.177945,6883.915261,8438.347739,-995.924147
159.178266,7031.956449,8660.409521,-3370.820191
159.178586,7328.038826,6883.915261,-1532.190996
159.178907,7846.182985,4959.379811,2374.896044
159.179228,8290.306550,5625.565159,2528.115143
159.179548,6143.709319,7772.162391,-383.047749
159.179869,3256.906145,8956.491898,-3064.381992
159.180190,4663.297435,7328.038826,-2528.115143
159.180510,7920.203579,5847.626942,229.828649
159.180831,7254.018232,6735.874072,1838.629195
159.181152,5181.441594,9178.553681,459.657299
159.181472,2368.659014,10066.800811,-1838.629195
159.181793,1332.370696,9178.553681,-1225.752797
159.182114,4441.235652,7698.141797,1149.143247
159.182434,5699.585753,7920.203579,1455.581446
159.182755,3478.967927,8882.471304,-995.924147
159.183076,1406.391290,9918.759623,-2298.286494
159.183396,2516.700203,9474.636058,-1608.800546
159.183717,4663.297435,8290.306550,766.095498
159.184038,5995.668130,8956.491898,2604.724693
159.184358,3997.112087,10362.883188,689.485948
159.184679,2220.617826,11251.130318,-919.314598
159.185000,3775.050304,9474.636058,0.000000
159.185320,6439.791695,6957.935855,1149.143247
159.185641,6439.791695,5847.626942,995.924147
159.185962,4737.318029,7550.100608,0.000000
159.186282,2442.679609,8438.347739,-2145.067394
159.186603,2886.803174,9104.533087,-1915.238745
159.186924,6513.812290,8216.285956,1072.533697
159.187244,7476.080014,8290.306550,1378.971896
159.187565,5921.647536,9104.533087,689.485948
159.187886,4737.318029,10807.006753,-153.219100
159.188206,4367.215058,8660.409521,-1378.971896
159.188527,4959.379811,5477.523971,-689.485948
159.188848,6513.812290,6809.894666,766.095498
159.189168,5181.441594,8882.471304,306.438199
159.189489,2294.638420,9400.615463,-1915.238745
159.189810,4589.276840,8734.430116,-1532.190996
159.190130,6809.894666,7846.182985,76.609550
159.190451,5551.544565,7994.224174,536.266849
159.190772,3923.091493,8068.244768,153.219100
159.191092,2590.720797,8364.327145,-766.095498
159.191413,3701.029710,7846.182985,612.876398
159.191734,6587.832884,6217.729913,2757.943793
159.192054,6661.853478,6513.812290,1072.533697
159.192375,4663.297435,8734.430116,-2145.067394
159.192696,2664.741391,9252.574275,-2298.286494
159.193016,4441.235652,7920.203579,-459.657299
159.193337,7179.997637,6143.709319,1915.238745
159.193658,7105.977043,6439.791695,1915.238745
159.193978,5255.462188,7105.977043,-689.485948
159.194299,3256.906145,8438.347739,-1991.848295
159.194620,4071.132681,7994.224174,-842.705048
159.194940,6291.750507,6217.729913,1149.143247
159.195261,7772.162391,5477.523971,1455.581446
159.195582,6069.688724,6735.874072,0.000000
159.195902,3256.906145,8216.285956,-2221.676944
159.196223,3182.885551,7550.100608,-2374.896044
159.196544,6883.915261,7105.977043,-689.485948
159.196864,7179.997637,8734.430116,153.219100
159.197185,6217.729913,9622.677246,-1302.362347
159.197506,5033.400406,9696.697840,-1762.019645
159.197826,4589.276840,8364.327145,-612.876398
159.198147,5255.462188,7105.977043,2221.676944
159.198468,6143.709319,6957.935855,1991.848295
159.198788,4515.256246,7920.203579,-1302.362347
159.199109,4071.132681,8290.306550,-2681.334243
159.199430,4071.132681,7994.224174,-919.314598
159.199750,6587.832884,7994.224174,842.705048
159.200071,5847.626942,9104.533087,1685.410096
159.200392,3701.029710,9770.718434,0.000000
159.200712,4145.153275,9474.636058,-1532.190996
159.201033,5403.503377,8882.471304,1072.533697
159.201354,5033.400406,7698.141797,2145.067394
159.201674,5255.462188,7476.080014,536.266849
159.201995,4885.359217,9104.533087,-1302.362347
159.202316,3478.967927,9548.656652,-2221.676944
159.202636,5181.441594,7920.203579,-766.095498
159.202957,7624.121203,6513.812290,153.219100
159.203278,6809.894666,8068.244768,306.438199
159.203598,3997.112087,9252.574275,-153.219100
159.203919,3627.009116,8808.450710,-1608.800546
159.204240,5551.544565,7920.203579,-766.095498
159.204560,7624.121203,7772.162391,919.314598
159.204881,6661.853478,9104.533087,536.266849
159.205202,4515.256246,10140.821405,-2834.553343
159.205522,2442.679609,10658.965565,-2911.162892
159.205843,4515.256246,8734.430116,-842.705048
159.206164,5921.647536,6587.832884,1532.190996
159.206484,7476.080014,7402.059420,1915.238745
159.206805,3923.091493,8290.306550,-306.438199
159.207125,666.185348,8290.306550,-2451.505594
159.207446,3330.926739,8438.347739,383.047749
159.207767,5773.606348,7920.203579,2987.772442
159.208087,5625.565159,7698.141797,2834.553343
159.208408,5255.462188,7476.080014,612.876398
159.208729,2294.638420,7920.203579,-2374.896044
159.209049,1776.494261,7624.121203,-1991.848295
159.209370,4885.359217,7698.141797,1685.410096
159.209691,6069.688724,7105.977043,1532.190996
159.210012,5255.462188,8216.285956,-306.438199
159.210332,5181.441594,9178.553681,-842.705048
159.210653,4515.256246,7698.141797,-766.095498
159.210974,5107.421000,6513.812290,153.219100
159.211294,6365.771101,7254.018232,1455.581446
159.211615,5329.482782,7179.997637,-1225.752797
159.211936,5477.523971,6513.812290,-1838.629195
159.212256,6883.915261,5255.462188,-689.485948
159.212577,7105.977043,5921.647536,-306.438199
159.212898,6439.791695,7624.121203,459.657299
159.213218,5773.606348,9104.533087,-1532.190996
159.213539,4959.379811,8364.327145,-2451.505594
159.213860,5921.647536,5921.647536,153.219100
159.214180,7846.182985,6513.812290,2604.724693
159.214501,5921.647536,8216.285956,766.095498
159.214822,2294.638420,9474.636058,-1991.848295
159.215142,3330.926739,9844.739029,-2528.115143
159.215463,5699.585753,8142.265362,-919.314598
159.215784,6661.853478,6513.812290,2298.286494
159.216104,5995.668130,7105.977043,2451.505594
159.216425,3404.947333,9622.677246,-306.438199
159.216746,1776.494261,10436.903782,-1838.629195
159.217067,3330.926739,8364.327145,229.828649
159.217387,7179.997637,6587.832884,1762.019645
159.217708,6957.935855,7105.977043,1991.848295
159.218029,3552.988522,8438.347739,76.609550
159.218349,3256.906145,8660.409521,-1991.848295
159.218670,5403.503377,8512.368333,-1149.143247
159.218991,6883.915261,7328.038826,689.485948
159.219311,6883.915261,6291.750507,0.000000
159.219632,5847.626942,7846.182985,-1762.019645
159.219953,4071.132681,8956.491898,-1915.238745
159.220273,5255.462188,8290.306550,-689.485948
159.220594,9252.574275,7254.018232,-842.705048
159.220915,9622.677246,7994.224174,-689.485948
159.221235,6439.791695,9400.615463,-1838.629195
159.221556,5033.400406,8734.430116,-2068.457845
159.221877,5921.647536,7476.080014,-842.705048
159.222197,7179.997637,6661.853478,766.095498
159.222518,6291.750507,7105.977043,1149.143247
159.222839,4737.318029,8956.491898,-1608.800546
159.223159,3627.009116,10140.821405,-2145.067394
159.223480,2590.720797,9474.636058,-536.266849
159.223801,3923.091493,7402.059420,1302.362347
159.224122,4737.318029,6365.771101,2757.943793
159.224442,2368.659014,8956.491898,1072.533697
159.224763,370.102971,9400.615463,-153.219100
159.225084,3849.070898,8512.368333,-76.609550
159.225404,5255.462188,7254.018232,-612.876398
159.225725,3997.112087,7772.162391,-153.219100
159.226046,4441.235652,9770.718434,-612.876398
159.226366,4811.338623,10436.903782,-1302.362347
159.226687,3552.988522,8142.265362,-612.876398
159.227008,7328.038826,7105.977043,919.314598
159.227328,7254.018232,6809.894666,612.876398
159.227649,3330.926739,8068.244768,-1302.362347
159.227970,3478.967927,8956.491898,-1072.533697
159.228290,5921.647536,8808.450710,-919.314598
159.228611,7179.997637,7254.018232,536.266849
159.228932,7254.018232,7031.956449,1149.143247
159.229252,4441.235652,7846.182985,-1532.190996
159.229573,1702.473667,7920.203579,-2834.553343
159.229894,2664.741391,7698.141797,536.266849
159.230215,6365.771101,7179.997637,2145.067394
159.230535,7031.956449,7772.162391,2068.457845
159.230856,4663.297435,9252.574275,-995.924147
159.231177,2738.761985,10140.821405,-3294.210641
159.231497,3478.967927,8956.491898,-995.924147
159.231818,6365.771101,7624.121203,2374.896044
159.232139,5921.647536,6735.874072,2451.505594
159.232459,3997.112087,6809.894666,153.219100
159.232780,3108.864956,8068.244768,-459.657299
159.233101,2664.741391,8734.430116,-459.657299
159.233421,5181.441594,8216.285956,842.705048
159.233742,7328.038826,9400.615463,995.924147
159.234063,5107.421000,8882.471304,-306.438199
159.234383,4145.153275,8364.327145,-306.438199
159.234704,5477.523971,6883.915261,1378.971896
159.235025,5847.626942,5773.606348,1608.800546
159.235345,6439.791695,5921.647536,306.438199
159.235666,5773.606348,7031.956449,-1532.190996
159.235987,5551.544565,7550.100608,-2298.286494
159.236307,6809.894666,6883.915261,153.219100
159.236628,8734.430116,6957.935855,1072.533697
159.236949,7994.224174,7254.018232,-612.876398
159.237270,5255.462188,6883.915261,-2911.162892
159.237590,4885.359217,6513.812290,-1915.238745
159.237911,5847.626942,5551.544565,153.219100
159.238232,7772.162391,7550.100608,1302.362347
159.238552,6365.771101,9770.718434,0.000000
159.238873,3404.947333,10288.862594,-2987.772442
159.239194,3552.988522,9474.636058,-2374.896044
159.239514,4663.297435,7698.141797,229.828649
159.239835,5329.482782,6513.812290,1838.629195
159.240156,5033.400406,7772.162391,1685.410096
159.240476,2442.679609,9696.697840,-1455.581446
159.240797,1924.535449,10436.903782,-1915.238745
159.241118,3775.050304,8882.471304,229.828649
159.241438,5551.544565,7254.018232,1302.362347
159.241759,5551.544565,8438.347739,1991.848295
159.242080,2664.741391,10362.883188,0.000000
159.242400,1702.473667,8956.491898,-2221.676944
159.242721,3034.844362,7254.018232,-1149.143247
159.243042,6069.688724,7254.018232,766.095498
159.243362,5625.565159,9696.697840,1685.410096
159.243683,3701.029710,11251.130318,-1302.362347
159.244004,3256.906145,10955.047942,-3830.477490
159.244325,4959.379811,8290.306550,-1838.629195
159.244645,6661.853478,6661.853478,1685.410096
159.244966,7105.977043,7402.059420,1685.410096
159.245287,4367.215058,8290.306550,-1149.143247
159.245607,2960.823768,8142.265362,-3447.429741
159.245928,5255.462188,7920.203579,-1991.848295
159.246249,7698.141797,7772.162391,995.924147
159.246569,6661.853478,8808.450710,153.219100
159.246890,4441.235652,8586.388927,-1915.238745
159.247211,4145.153275,8512.368333,-3064.381992
159.247531,5847.626942,8142.265362,0.000000
159.247852,5847.626942,8068.244768,1838.629195
159.248173,5921.647536,9030.512492,995.924147
159.248493,4219.173869,9992.780217,-1608.800546
159.248814,2738.761985,9104.533087,-2068.457845
159.249135,3701.029710,6661.853478,459.657299
159.249455,6143.709319,7328.038826,2451.505594
159.249776,3923.091493,8512.368333,1685.410096
159.250097,1850.514855,8882.471304,-153.219100
159.250417,3330.926739,7624.121203,-766.095498
159.250738,4293.194464,7328.038826,842.705048
159.251059,5847.626942,7698.141797,2834.553343
159.251380,5477.523971,8586.388927,1608.800546
159.251700,3478.967927,9030.512492,-1378.971896
159.252021,4441.235652,8512.368333,-842.705048
159.252342,6291.750507,6735.874072,1378.971896
159.252662,6957.935855,5329.482782,-306.438199
159.252983,5995.668130,6809.894666,-229.828649
159.253304,4367.215058,9104.533087,-2068.457845
159.253624,4737.318029,8586.388927,-1532.190996
159.253945,7772.162391,6957.935855,0.000000
159.254266,9030.512492,6365.771101,0.000000
159.254586,6143.709319,7920.203579,-612.876398
159.254907,4071.132681,9252.574275,-1225.752797
159.255228,3923.091493,8660.409521,-1149.143247
159.255548,4737.318029,5329.482782,383.047749
159.255869,6957.935855,5699.585753,2068.457845
159.256190,5551.544565,8882.471304,1685.410096
159.256510,1628.453072,10955.047942,-1838.629195
159.256831,1850.514855,10140.821405,-1532.190996
159.257152,4367.215058,7920.203579,459.657299
159.257472,5255.462188,5995.668130,2374.896044
159.257793,5847.626942,8660.409521,3217.601092
159.258114,2220.617826,9400.615463,689.485948
159.258435,962.267725,9178.553681,-1838.629195
159.258755,4441.235652,7179.997637,612.876398
159.259076,6957.935855,6883.915261,2145.067394
159.259397,6217.729913,8660.409521,1685.410096
159.259717,4441.235652,10436.903782,-536.266849
159.260038,3849.070898,10881.027347,-2451.505594
159.260359,4959.379811,7994.224174,-689.485948
159.260679,7105.977043,5699.585753,1225.752797
159.261000,6809.894666,6957.935855,459.657299
159.261321,4071.132681,8586.388927,-1302.362347
159.261641,3182.885551,9104.533087,-1685.410096
159.261962,5255.462188,8142.265362,-919.314598
159.262283,6735.874072,7550.100608,536.266849
159.262603,6069.688724,8364.327145,536.266849
159.262924,3849.070898,9252.574275,-2374.896044
159.263245,3404.947333,8142.265362,-2757.943793
159.263565,4959.379811,7105.977043,-383.047749
159.263886,6883.915261,7254.018232,766.095498
159.264207,5699.585753,8956.491898,76.609550
159.264527,3404.947333,11177.109724,-2374.896044
159.264848,2590.720797,10881.027347,-2221.676944
159.265169,5699.585753,8364.327145,153.219100
159.265490,6809.894666,6069.688724,2145.067394
159.265810,4811.338623,6661.853478,536.266849
159.266131,2664.741391,7698.141797,-1378.971896
159.266452,3108.864956,8364.327145,-1532.190996
159.266772,5773.606348,7698.141797,0.000000
159.267093,8512.368333,7698.141797,1149.143247
159.267414,7031.956449,7994.224174,383.047749
159.267734,4071.132681,8734.430116,-1149.143247
159.268055,4663.297435,9030.512492,-612.876398
159.268376,5329.482782,7994.224174,1378.971896
159.268696,7105.977043,6365.771101,1225.752797
159.269017,6809.894666,6957.935855,-306.438199
159.269338,3849.070898,7772.162391,-2374.896044
159.269658,3404.947333,8290.306550,-1762.019645
159.269979,6365.771101,7846.182985,229.828649
159.270300,8068.244768,6809.894666,842.705048
159.270620,7031.956449,8364.327145,-229.828649
159.270941,4071.132681,9844.739029,-1532.190996
159.271262,2664.741391,9622.677246,-2068.457845
159.271583,4589.276840,8216.285956,995.924147
159.271903,6069.688724,8364.327145,2604.724693
159.272224,5403.503377,9030.512492,1608.800546
159.272545,3256.906145,8956.491898,-1072.533697
159.272865,2368.659014,8660.409521,-2221.676944
159.273186,3701.029710,8216.285956,459.657299
159.273507,5847.626942,8438.347739,2528.115143
159.273827,4367.215058,7920.203579,1225.752797
159.274148,2220.617826,6661.853478,-229.828649
159.274469,3478.967927,6735.874072,536.266849
159.274789,5403.503377,7994.224174,2528.115143
159.275110,5033.400406,8290.306550,2068.457845
159.275431,5773.606348,9474.636058,-766.095498
159.275751,5329.482782,9326.594869,-3294.210641
159.276072,5403.503377,8142.265362,-1302.362347
159.276393,6513.812290,6291.750507,1838.629195
159.276713,6735.874072,5699.585753,1608.800546
159.277034,5181.441594,7772.162391,0.000000
159.277355,4145.153275,8808.450710,-1762.019645
159.277675,5773.606348,7328.038826,-1455.581446
159.277996,6809.894666,6809.894666,689.485948
159.278317,7105.977043,7772.162391,1455.581446
159.278638,4811.338623,8290.306550,-306.438199
159.278958,3478.967927,8290.306550,-3217.601092
159.279279,3997.112087,6809.894666,-2068.457845
159.279600,6365.771101,5921.647536,919.314598
159.279920,5995.668130,6957.935855,1991.848295
159.280241,3256.906145,9844.739029,459.657299
159.280562,2294.638420,11103.089130,-1302.362347
159.280882,3923.091493,9844.739029,-383.047749
159.281203,5773.606348,7179.997637,1838.629195
159.281524,5773.606348,5847.626942,2451.505594
159.281844,3849.070898,7031.956449,0.000000
159.282165,2072.576638,7772.162391,-1378.971896
159.282486,3478.967927,8364.327145,-306.438199
159.282806,6513.812290,7105.977043,1455.581446
159.283127,8216.285956,7772.162391,1455.581446
159.283448,5995.668130,9326.594869,-459.657299
159.283768,4293.194464,10732.986159,-2068.457845
159.284089,5181.441594,9992.780217,-1685.410096
159.284410,6439.791695,7328.038826,459.657299
159.284730,7031.956449,6809.894666,1302.362347
159.285051,5921.647536,8142.265362,383.047749
159.285372,3997.112087,10288.862594,-1149.143247
159.285693,4145.153275,9844.739029,-1608.800546
159.286013,6365.771101,8216.285956,-919.314598
159.286334,7254.018232,6513.812290,-76.609550
159.286655,5921.647536,8956.491898,536.266849
159.286975,3330.926739,10066.800811,306.438199
159.287296,2812.782580,8216.285956,-306.438199
159.287617,6143.709319,6809.894666,995.924147
159.287937,4737.318029,7105.977043,995.924147
159.288258,3997.112087,8290.306550,-536.266849
159.288579,4441.235652,9326.594869,-1532.190996
159.288899,4885.359217,8364.327145,-2068.457845
159.289220,6735.874072,7031.956449,153.219100
159.289541,7920.203579,6809.894666,536.266849
159.289861,4885.359217,7550.100608,-1455.581446
159.290182,3923.091493,8660.409521,-1455.581446
159.290503,5625.565159,9252.574275,536.266849
159.290823,7772.162391,7698.141797,1455.581446
159.291144,7328.038826,6365.771101,995.924147
159.291465,6365.771101,7105.977043,-766.095498
159.291785,3256.906145,7772.162391,-2834.553343
159.292106,3552.988522,7402.059420,-1225.752797
159.292427,5847.626942,5995.668130,1072.533697
159.292748,5995.668130,5921.647536,842.705048
159.293068,4441.235652,7698.141797,229.828649
159.293389,3034.844362,10436.903782,-919.314598
159.293710,2738.761985,10362.883188,-1072.533697
159.294030,4737.318029,7698.141797,612.876398
159.294351,6513.812290,5699.585753,842.705048
159.294672,4145.153275,6735.874072,-766.095498
159.294992,3034.844362,9030.512492,-383.047749
159.295313,2738.761985,9252.574275,-612.876398
159.295634,4663.297435,8142.265362,153.219100
159.295954,6735.874072,8216.285956,536.266849
159.296275,5921.647536,9400.615463,-229.828649
159.296596,3701.029710,9844.739029,-1378.971896
159.296916,4367.215058,8734.430116,-229.828649
159.297237,5921.647536,7179.997637,995.924147
159.297558,6217.729913,6735.874072,842.705048
159.297878,6069.688724,7105.977043,76.609550
159.298199,4441.235652,8364.327145,-459.657299
159.298520,4367.215058,8068.244768,0.000000
159.298840,6661.853478,7476.080014,1149.143247
159.299161,7550.100608,7402.059420,689.485948
159.299482,5995.668130,8660.409521,-766.095498
159.299803,4811.338623,9104.533087,-1225.752797
159.300123,5329.482782,8142.265362,-536.266849
159.300444,6809.894666,6883.915261,842.705048
159.300765,6661.853478,6957.935855,1685.410096
159.301085,5181.441594,8586.388927,0.000000
159.301406,3701.029710,9992.780217,-2298.286494
159.301727,3552.988522,9474.636058,-1149.143247
159.302047,5551.544565,8142.265362,919.314598
159.302368,6069.688724,7550.100608,1455.581446
159.302689,3404.947333,7698.141797,0.000000
159.303009,1850.514855,7994.224174,-1225.752797
159.303330,2886.803174,7846.182985,153.219100
159.303651,5255.462188,7328.038826,2145.067394
159.303971,6439.791695,8216.285956,1991.848295
159.304292,5551.544565,9770.718434,-383.047749
159.304613,2664.741391,8734.430116,-2451.505594
159.304933,3552.988522,6957.935855,-1072.533697
159.305254,6735.874072,6069.688724,1915.238745
159.305575,6439.791695,5847.626942,1378.971896
159.305895,4959.379811,7328.038826,-1149.143247
159.306216,4441.235652,8586.388927,-2987.772442
159.306537,4219.173869,8216.285956,-1838.629195
159.306858,6883.915261,7105.977043,995.924147
159.307178,9030.512492,7179.997637,1532.190996
159.307499,6957.935855,7994.224174,-1302.362347
159.307820,5033.400406,8290.306550,-1915.238745
159.308140,4663.297435,7179.997637,-1072.533697
159.308461,5921.647536,5995.668130,-306.438199
159.308782,6217.729913,7031.956449,1149.143247
159.309102,5995.668130,9400.615463,-229.828649
159.309423,4219.173869,10436.903782,-2298.286494
159.309744,4145.153275,8438.347739,-1608.800546
159.310064,5033.400406,6661.853478,0.000000
159.310385,5181.441594,7105.977043,1149.143247
159.310705,3627.009116,9030.512492,995.924147
159.311026,2146.597232,9770.718434,-536.266849
159.311347,2590.720797,8512.368333,-612.876398
159.311667,5699.585753,7698.141797,1685.410096
159.311988,5107.421000,9326.594869,2068.457845
159.312309,3404.947333,10362.883188,-306.438199
159.312629,2664.741391,10288.862594,-2528.115143
159.312950,3478.967927,8290.306550,-1838.629195
159.313271,6439.791695,6291.750507,1072.533697
159.313591,7105.977043,7402.059420,2911.162892
159.313912,4219.173869,9252.574275,612.876398
159.314232,2812.782580,9918.759623,-2221.676944
159.314553,5181.441594,8290.306550,-1378.971896
159.314874,8512.368333,5773.606348,689.485948
159.315194,9326.594869,5699.585753,2145.067394
159.315515,6661.853478,7476.080014,153.219100
159.315836,4145.153275,9326.594869,-2757.943793
159.316156,3478.967927,8142.265362,-2374.896044
159.316477,7254.018232,6587.832884,153.219100
159.316798,9326.594869,6217.729913,1455.581446
159.317118,5329.482782,7550.100608,-383.047749
159.317439,3034.844362,8956.491898,-2451.505594
159.317759,3552.988522,8512.368333,-1302.362347
159.318080,5107.421000,6883.915261,536.266849
159.318401,6513.812290,5995.668130,1455.581446
159.318721,5477.523971,7846.182985,0.000000
159.319042,2146.597232,9178.553681,-2681.334243
159.319363,1850.514855,9178.553681,-1225.752797
159.319683,4737.318029,7920.203579,1302.362347
159.320004,6069.688724,8438.347739,1149.143247
159.320325,4145.153275,9178.553681,229.828649
159.320645,2368.659014,9178.553681,-1302.362347
159.320966,3478.967927,8808.450710,-1149.143247
159.321287,3997.112087,8142.265362,1072.533697
159.321607,5033.400406,8068.244768,1225.752797
159.321928,4885.359217,8068.244768,229.828649
159.322248,3182.885551,9030.512492,-842.705048
159.322569,4737.318029,8216.285956,306.438199
159.322890,6069.688724,6291.750507,1455.581446
159.323210,6661.853478,7254.018232,536.266849
159.323531,5403.503377,9178.553681,-383.047749
159.323852,4071.132681,8512.368333,-1762.019645
159.324172,6069.688724,7179.997637,-766.095498
159.324493,7698.141797,7179.997637,1149.143247
159.324814,6587.832884,8512.368333,689.485948
159.325134,4737.318029,9770.718434,-1762.019645
159.325455,2516.700203,9548.656652,-2681.334243
159.325775,4367.215058,7550.100608,-995.924147
159.326096,7476.080014,6069.688724,1608.800546
159.326417,7254.018232,6661.853478,1991.848295
159.326737,2590.720797,9400.615463,-612.876398
159.327058,1258.350101,10658.965565,-2298.286494
159.327379,3256.906145,9474.636058,-306.438199
159.327699,5995.668130,8068.244768,2298.286494
159.328020,6809.894666,8142.265362,2451.505594
159.328341,4663.297435,9474.636058,-459.657299
159.328661,1702.473667,8586.388927,-3140.991542
159.328982,2220.617826,7105.977043,-995.924147
159.329302,5551.544565,6365.771101,2221.676944
159.329623,6513.812290,6365.771101,1149.143247
159.329944,4959.379811,8660.409521,-383.047749
159.330264,3701.029710,9770.718434,-2681.334243
159.330585,4367.215058,8660.409521,-1685.410096
159.330906,7105.977043,6365.771101,1532.190996
159.331226,7920.203579,6069.688724,1838.629195
159.331547,7105.977043,7846.182985,-919.314598
159.331868,4663.297435,8512.368333,-2834.553343
159.332188,5033.400406,7402.059420,-2528.115143
159.332509,7031.956449,6143.709319,0.000000
159.332830,7846.182985,7105.977043,1072.533697
159.333150,6439.791695,9400.615463,-383.047749
159.333471,3182.885551,9030.512492,-2221.676944
159.333791,3997.112087,8142.265362,-1149.143247
159.334112,5921.647536,7328.038826,919.314598
159.334433,4737.318029,7920.203579,1072.533697
159.334753,2664.741391,9400.615463,-459.657299
159.335074,2516.700203,10584.944971,-2451.505594
159.335395,2664.741391,9030.512492,-919.314598
159.335715,4367.215058,8438.347739,1762.019645
159.336036,4811.338623,8438.347739,2145.067394
159.336357,2442.679609,9696.697840,0.000000
159.336677,1850.514855,10732.986159,-1685.410096
159.336998,3108.864956,9548.656652,-306.438199
159.337318,5773.606348,8142.265362,1072.533697
159.337639,5847.626942,7772.162391,1149.143247
159.337960,4293.194464,8734.430116,536.266849
159.338280,2664.741391,9400.615463,-1225.752797
159.338601,3923.091493,8142.265362,-229.828649
159.338922,6143.709319,6883.915261,1455.581446
159.339242,6883.915261,7402.059420,1149.143247
159.339563,5477.523971,8956.491898,-306.438199
159.339884,3478.967927,9770.718434,-1991.848295
159.340204,4737.318029,7772.162391,-1225.752797
159.340525,6883.915261,6291.750507,153.219100
159.340845,7624.121203,6883.915261,842.705048
159.341166,5033.400406,8364.327145,-229.828649
159.341487,3330.926739,9326.594869,-2298.286494
159.341807,5033.400406,8438.347739,-1302.362347
159.342128,6809.894666,7105.977043,459.657299
159.342449,6291.750507,6513.812290,76.609550
159.342769,4589.276840,7846.182985,-536.266849
159.343090,2368.659014,8290.306550,-1608.800546
159.343411,3108.864956,7402.059420,-919.314598
159.343731,5107.421000,6291.750507,1072.533697
159.344052,5625.565159,7772.162391,1149.143247
159.344373,4071.132681,9548.656652,306.438199
159.344693,3775.050304,10510.924376,-919.314598
159.345014,4885.359217,8512.368333,-306.438199
159.345334,5625.565159,6365.771101,1378.971896
159.345655,5255.462188,5551.544565,1838.629195
159.345976,4441.235652,7550.100608,383.047749
159.346296,3034.844362,9030.512492,-919.314598
159.346617,4219.173869,7550.100608,-995.924147
159.346938,8882.471304,5847.626942,0.000000
159.347258,7920.203579,6217.729913,-383.047749
159.347579,4589.276840,8364.327145,-689.485948
159.347900,4441.235652,8882.471304,-1302.362347
159.348220,5995.668130,7105.977043,0.000000
159.348541,8290.306550,6513.812290,1302.362347
159.348861,8216.285956,7402.059420,919.314598
159.349182,5329.482782,8882.471304,-2757.943793
159.349503,3404.947333,9992.780217,-3447.429741
159.349823,5255.462188,9030.512492,-76.609550
159.350144,7772.162391,6587.832884,1302.362347
159.350465,7698.141797,6069.688724,995.924147
159.350785,4885.359217,9104.533087,-612.876398
159.351106,2072.576638,10732.986159,-2221.676944
159.351427,2738.761985,9622.677246,-612.876398
159.351747,6439.791695,8068.244768,1378.971896
159.352068,6587.832884,7476.080014,2068.457845
159.352388,4441.235652,8512.368333,919.314598
159.352709,3478.967927,10288.862594,-306.438199
159.353030,2220.617826,9548.656652,-842.705048
159.353350,3552.988522,7624.121203,536.266849
159.353671,5625.565159,7994.224174,1225.752797
159.353992,4071.132681,9474.636058,153.219100
159.354312,1776.494261,9696.697840,76.609550
159.354633,3997.112087,8882.471304,689.485948
159.354954,4737.318029,7105.977043,383.047749
159.355274,5107.421000,7328.038826,0.000000
159.355595,4885.359217,9178.553681,-842.705048
159.355916,3256.906145,10288.862594,-2298.286494
159.356236,4885.359217,8808.450710,-689.485948
159.356557,7328.038826,7254.018232,919.314598
159.356877,6513.812290,7994.224174,0.000000
159.357198,3775.050304,9918.759623,-1072.533697
159.357519,2442.679609,10510.924376,-1378.971896
159.357839,3701.029710,8734.430116,-612.876398
159.358160,6439.791695,7031.956449,1915.238745
159.358481,6661.853478,6217.729913,2374.896044
159.358801,4441.235652,7772.162391,-229.828649
159.359122,1628.453072,8068.244768,-1302.362347
159.359443,2812.782580,7179.997637,-766.095498
159.359763,5625.565159,6365.771101,1225.752797
159.360084,6957.935855,6957.935855,1991.848295
159.360404,5921.647536,9622.677246,0.000000
159.360725,3404.947333,10214.842000,-2374.896044
159.361046,4811.338623,8290.306550,-1225.752797
159.361366,7476.080014,6291.750507,1225.752797
159.361687,7254.018232,6291.750507,2068.457845
159.362008,5847.626942,7772.162391,459.657299
159.362328,3552.988522,9178.553681,-1838.629195
159.362649,3478.967927,7550.100608,-1685.410096
159.362970,7179.997637,6291.750507,766.095498
159.363290,8512.368333,5329.482782,1378.971896
159.363611,5403.503377,6735.874072,-383.047749
159.363931,2442.679609,8068.244768,-1762.019645
159.364252,4959.379811,6883.915261,-383.047749
159.364573,6661.853478,5329.482782,1149.143247
159.364893,7402.059420,5699.585753,1608.800546
159.365214,6587.832884,8512.368333,-689.485948
159.365535,4737.318029,10362.883188,-2987.772442
159.365855,4737.318029,8956.491898,-2451.505594
159.366176,8586.388927,6809.894666,0.000000
159.366497,9252.574275,5995.668130,229.828649
159.366817,5107.421000,7105.977043,-1532.190996
159.367138,2960.823768,8956.491898,-2145.067394
159.367459,3701.029710,8808.450710,-1225.752797
159.367779,5847.626942,7624.121203,919.314598
159.368100,7624.121203,8438.347739,1838.629195
159.368420,4367.215058,9326.594869,-689.485948
159.368741,1332.370696,8956.491898,-2681.334243
159.369062,2664.741391,7328.038826,-383.047749
159.369382,4663.297435,6587.832884,2298.286494
159.369703,5847.626942,7476.080014,2374.896044
159.370024,4663.297435,10288.862594,0.000000
159.370344,2368.659014,11177.109724,-3294.210641
159.370665,2960.823768,9400.615463,-2068.457845
159.370986,6809.894666,7328.038826,1455.581446
159.371306,6513.812290,7105.977043,1455.581446
159.371627,3552.988522,8216.285956,-995.924147
159.371947,2664.741391,9178.553681,-2068.457845
159.372268,5107.421000,9252.574275,-1915.238745
159.372589,6661.853478,8364.327145,229.828649
159.372909,7105.977043,8438.347739,612.876398
159.373230,4293.194464,9400.615463,-1685.410096
159.373551,3108.864956,9770.718434,-1762.019645
159.373871,5181.441594,8290.306550,1149.143247
159.374192,6661.853478,6587.832884,1685.410096
159.374513,6365.771101,7105.977043,306.438199
159.374833,3478.967927,8956.491898,-1072.533697
159.375154,2294.638420,10214.842000,-2298.286494
159.375474,3849.070898,9326.594869,-383.047749
159.375795,6883.915261,7550.100608,1378.971896
159.376116,7031.956449,7476.080014,1072.533697
159.376436,3404.947333,9548.656652,-995.924147
159.376757,444.123565,9770.718434,-1608.800546
159.377078,2886.803174,7920.203579,0.000000
159.377398,6513.812290,6143.709319,2604.724693
159.377719,6735.874072,7031.956449,2757.943793
159.378040,3849.070898,8438.347739,229.828649
159.378360,2220.617826,8808.450710,-1838.629195
159.378681,3997.112087,7476.080014,-842.705048
159.379002,6217.729913,5921.647536,1762.019645
159.379322,7698.141797,4959.379811,1915.238745
159.379643,6291.750507,7254.018232,-459.657299
159.379963,3997.112087,8068.244768,-2145.067394
159.380284,5329.482782,7254.018232,-1149.143247
159.380605,8808.450710,5921.647536,383.047749
159.380925,8438.347739,7179.997637,1072.533697
159.381246,5551.544565,9030.512492,-1302.362347
159.381567,4441.235652,8216.285956,-3064.381992
159.381887,5773.606348,6143.709319,-1225.752797
159.382208,7179.997637,5847.626942,1072.533697
159.382529,7254.018232,7328.038826,1378.971896
159.382849,5773.606348,8586.388927,-1149.143247
159.383170,2664.741391,8882.471304,-2298.286494
159.383490,3775.050304,7105.977043,536.266849
159.383811,6957.935855,7105.977043,3140.991542
159.384132,4737.318029,7476.080014,2528.115143
159.384452,3256.906145,8882.471304,76.609550
159.384773,3701.029710,8216.285956,-1608.800546
159.385094,3404.947333,7254.018232,-153.219100
159.385414,5773.606348,7105.977043,2451.505594
159.385735,5921.647536,8808.450710,1838.629195
159.386056,3330.926739,10510.924376,-2145.067394
159.386376,2812.782580,10140.821405,-3064.381992
159.386697,4737.318029,8142.265362,-459.657299
159.387018,6957.935855,6661.853478,1685.410096
159.387338,5847.626942,7698.141797,1991.848295
159.387659,3627.009116,9622.677246,-842.705048
159.387979,3108.864956,9548.656652,-2834.553343
159.388300,5181.441594,8216.285956,-689.485948
159.388621,7994.224174,6809.894666,842.705048
159.388941,7328.038826,7476.080014,842.705048
159.389262,4367.215058,9548.656652,-1762.019645
159.389583,2886.803174,10066.800811,-2911.162892
159.389903,4737.318029,7550.100608,-919.314598
159.390224,7105.977043,5773.606348,1685.410096
159.390545,6809.894666,7105.977043,1838.629195
159.390865,3923.091493,10140.821405,-689.485948
159.391186,2368.659014,11325.150913,-2911.162892
159.391506,4071.132681,9178.553681,-1838.629195
159.391827,6587.832884,6069.688724,-306.438199
159.392148,5773.606348,7105.977043,995.924147
159.392468,2886.803174,9104.533087,-229.828649
159.392789,1776.494261,9918.759623,-1149.143247
159.393110,4515.256246,8290.306550,-153.219100
159.393430,7698.141797,7179.997637,1378.971896
159.393751,8364.327145,9252.574275,1991.848295
159.394072,4663.297435,9844.739029,-536.266849
159.394392,2590.720797,8734.430116,-2604.724693
159.394713,5551.544565,6217.729913,-383.047749
159.395033,7550.100608,4885.359217,2145.067394
159.395354,6365.771101,5403.503377,1762.019645
159.395675,3849.070898,7698.141797,-1762.019645
159.395995,3108.864956,9252.574275,-2911.162892
159.396316,5107.421000,7994.224174,-612.876398
159.396637,8216.285956,6587.832884,2068.457845
159.396957,8142.265362,7179.997637,1225.752797
159.397278,4663.297435,8882.471304,-1762.019645
159.397599,2886.803174,8956.491898,-2528.115143
159.397919,4663.297435,6883.915261,-1072.533697
159.398240,6957.935855,5773.606348,1149.143247
159.398561,7105.977043,7846.182985,1149.143247
159.398881,4589.276840,9770.718434,-1225.752797
159.399202,3034.844362,10362.883188,-2451.505594
159.399522,4441.235652,8438.347739,459.657299
159.399843,4663.297435,7105.977043,1991.848295
159.400164,4441.235652,6291.750507,1685.410096
159.400484,2368.659014,7624.121203,306.438199
159.400805,1406.391290,9104.533087,-306.438199
159.401126,3108.864956,8216.285956,1532.190996
159.401446,6365.771101,7698.141797,2451.505594
159.401767,5995.668130,8512.368333,612.876398
159.402088,3256.906145,9104.533087,-1149.143247
159.402408,2590.720797,8734.430116,-1225.752797
159.402729,4959.379811,7920.203579,612.876398
159.403049,5847.626942,6587.832884,1838.629195
159.403370,6069.688724,6735.874072,459.657299
159.403691,5773.606348,8512.368333,-1915.238745
159.404011,3775.050304,9770.718434,-2757.943793
159.404332,4219.173869,8290.306550,-1455.581446
159.404653,7402.059420,6587.832884,153.219100
159.404973,7254.018232,6957.935855,306.438199
159.405294,4811.338623,9474.636058,0.000000
159.405615,3404.947333,9696.697840,-1149.143247
159.405935,3775.050304,7624.121203,-2221.676944
159.406256,5403.503377,7031.956449,-306.438199
159.406576,6217.729913,9104.533087,1532.190996
159.406897,3923.091493,9696.697840,0.000000
159.407218,2590.720797,9326.594869,-1838.629195
159.407538,4589.276840,8142.265362,-1455.581446
159.407859,4885.359217,7402.059420,459.657299
159.408180,4737.318029,8142.265362,919.314598
159.408500,3552.988522,10436.903782,153.219100
159.408821,1628.453072,9104.533087,-612.876398
159.409142,3701.029710,7254.018232,919.314598
159.409463,7920.203579,7772.162391,2604.724693
159.409783,5329.482782,8808.450710,995.924147
159.410104,3034.844362,10066.800811,-2451.505594
159.410425,4145.153275,9252.574275,-2757.943793
159.410746,5033.400406,7328.038826,-995.924147
159.411066,6513.812290,6291.750507,2834.553343
159.411387,7624.121203,7550.100608,2528.115143
159.411708,4663.297435,8512.368333,-1838.629195
159.412028,2590.720797,8290.306550,-3140.991542
159.412349,6365.771101,7402.059420,-842.705048
159.412670,10140.821405,6883.915261,536.266849
159.412991,7550.100608,8290.306550,459.657299
159.413311,5255.462188,9178.553681,-1685.410096
159.413632,4441.235652,8438.347739,-3217.601092
159.413953,5625.565159,6809.894666,0.000000
159.414274,7254.018232,5921.647536,1838.629195
159.414594,6291.750507,6439.791695,612.876398
159.414915,4367.215058,8586.388927,-1608.800546
159.415236,3627.009116,9548.656652,-766.095498
159.415556,4959.379811,8068.244768,1072.533697
159.415877,7031.956449,5921.647536,842.705048
159.416198,6143.709319,6883.915261,-306.438199
159.416519,2516.700203,8438.347739,-1608.800546
159.416839,2590.720797,9326.594869,-306.438199
159.417160,4737.318029,7846.182985,1378.971896
159.417481,7031.956449,6735.874072,919.314598
159.417801,6735.874072,7920.203579,383.047749
159.418122,4367.215058,9992.780217,-995.924147
159.418443,2146.597232,9104.533087,-1915.238745
159.418764,4071.132681,6365.771101,0.000000
159.419084,6513.812290,5403.503377,2068.457845
159.419405,5773.606348,6661.853478,1838.629195
159.419726,3034.844362,9696.697840,229.828649
159.420047,3108.864956,10140.821405,-1685.410096
159.420367,4515.256246,7254.018232,-1685.410096
159.420688,6439.791695,5033.400406,612.876398
159.421009,7031.956449,7920.203579,1302.362347
159.421329,4219.173869,10807.006753,0.000000
159.421650,1184.329507,9622.677246,-2145.067394
159.421971,4885.359217,7624.121203,-1149.143247
159.422292,7105.977043,6809.894666,229.828649
159.422612,4515.256246,8438.347739,459.657299
159.422933,2368.659014,10066.800811,-919.314598
159.423254,2442.679609,10658.965565,-2757.943793
159.423575,4589.276840,8734.430116,-995.924147
159.423895,6809.894666,7550.100608,2451.505594
159.424216,5255.462188,8364.327145,1685.410096
159.424537,1480.411884,10732.986159,-1455.581446
159.424857,222.061783,10510.924376,-1685.410096
159.425178,3849.070898,8142.265362,459.657299
159.425499,7105.977043,6661.853478,2604.724693
159.425820,5847.626942,7698.141797,2068.457845
159.426140,2886.803174,9474.636058,-1762.019645
159.426461,1628.453072,10066.800811,-3370.820191
159.426782,4959.379811,9104.533087,-153.219100
159.427102,7476.080014,7105.977043,2451.505594
159.427423,6735.874072,6365.771101,2298.286494
159.427744,4589.276840,8956.491898,-306.438199
159.428065,3330.926739,10807.006753,-1838.629195
159.428385,4293.194464,8734.430116,-1149.143247
159.428706,7698.141797,5995.668130,-153.219100
159.429027,7920.203579,6439.791695,-383.047749
159.429348,5699.585753,8882.471304,-919.314598
159.429668,4219.173869,9104.533087,-1149.143247
159.429989,4811.338623,7476.080014,-766.095498
159.430310,7328.038826,6069.688724,-229.828649
159.430630,6883.915261,7254.018232,919.314598
159.430951,4811.338623,8586.388927,-459.657299
159.431272,4441.235652,8290.306550,-1915.238745
159.431593,6513.812290,6957.935855,0.000000
159.431913,7476.080014,5699.585753,76.609550
159.432234,6365.771101,6957.935855,-383.047749
159.432555,4441.235652,8290.306550,-1225.752797
159.432876,4441.235652,9104.533087,-1149.143247
159.433196,5255.462188,7328.038826,459.657299
159.433517,7105.977043,5995.668130,1455.581446
159.433838,6735.874072,7105.977043,536.266849
159.434158,5329.482782,8956.491898,-842.705048
159.434479,3552.988522,8586.388927,-1838.629195
159.434800,5625.565159,6513.812290,-842.705048
159.435121,7550.100608,5033.400406,766.095498
159.435441,6513.812290,7698.141797,919.314598
159.435762,3923.091493,9548.656652,-459.657299
159.436083,3330.926739,9992.780217,-1762.019645
159.436404,6143.709319,7994.224174,-1302.362347
159.436724,7105.977043,6957.935855,1149.143247
159.437045,5551.544565,7994.224174,1149.143247
159.437366,2664.741391,9548.656652,-995.924147
159.437686,1702.473667,9178.553681,-1532.190996
159.438007,3478.967927,7846.182985,306.438199
159.438328,6365.771101,7179.997637,2451.505594
159.438649,5847.626942,8512.368333,2068.457845
159.438969,2220.617826,10288.862594,-1149.143247
159.439290,1924.535449,9326.594869,-2604.724693
159.439611,5329.482782,8438.347739,153.219100
159.439931,6957.935855,7846.182985,1608.800546
159.440252,5181.441594,8290.306550,689.485948
159.440573,4737.318029,9326.594869,-1915.238745
159.440894,3034.844362,9178.553681,-1762.019645
159.441214,4515.256246,7550.100608,919.314598
159.441535,7105.977043,5995.668130,2681.334243
159.441856,6809.894666,7328.038826,536.266849
159.442177,4071.132681,9178.553681,-2068.457845
159.442497,3552.988522,9252.574275,-1915.238745
159.442818,5995.668130,7105.977043,-459.657299
159.443139,7105.977043,6439.791695,1532.190996
159.443459,5773.606348,7920.203579,919.314598
159.443780,3775.050304,9918.759623,-1378.971896
159.444101,2886.803174,9252.574275,-1685.410096
159.444422,4589.276840,7328.038826,-536.266849
159.444742,6661.853478,6513.812290,153.219100
159.445063,5625.565159,7476.080014,0.000000
159.445384,4219.173869,9326.594869,-1685.410096
159.445705,3182.885551,8956.491898,-1532.190996
159.446025,3923.091493,6587.832884,536.266849
159.446346,6587.832884,6809.894666,2834.553343
159.446667,5329.482782,8956.491898,1685.410096
159.446987,2146.597232,10140.821405,-2145.067394
159.447308,2886.803174,9400.615463,-2374.896044
159.447629,5699.585753,7031.956449,-306.438199
159.447950,7031.956449,5847.626942,1685.410096
159.448270,6143.709319,6587.832884,1532.190996
159.448591,3849.070898,9326.594869,-1762.019645
159.448912,3552.988522,8734.430116,-2451.505594
159.449232,5995.668130,7402.059420,-306.438199
159.449553,8734.430116,5995.668130,995.924147
159.449874,8660.409521,7328.038826,1149.143247
159.450195,6439.791695,9104.533087,-612.876398
159.450515,4663.297435,8438.347739,-2681.334243
159.450836,6587.832884,6069.688724,-1915.238745
159.451157,8734.430116,5107.421000,919.314598
159.451478,7328.038826,7105.977043,1685.410096
159.451798,4441.235652,8290.306550,-459.657299
159.452119,4145.153275,9770.718434,-1685.410096
159.452440,5773.606348,8586.388927,-536.266849
159.452760,6365.771101,7550.100608,1072.533697
159.453081,5699.585753,8290.306550,229.828649
159.453402,3108.864956,9770.718434,-1149.143247
159.453723,1480.411884,9030.512492,-766.095498
159.454043,4071.132681,8512.368333,1302.362347
159.454364,4737.318029,7846.182985,1608.800546
159.454685,3627.009116,9474.636058,153.219100
159.455006,2294.638420,11843.295072,-536.266849
159.455326,1628.453072,10510.924376,-919.314598
159.455647,3108.864956,7550.100608,689.485948
159.455968,6291.750507,7105.977043,1915.238745
159.456288,5477.523971,8216.285956,1685.410096
159.456609,2072.576638,9696.697840,-229.828649
159.456930,3404.947333,8364.327145,-1225.752797
159.457251,7254.018232,6365.771101,0.000000
159.457571,8364.327145,5699.585753,1532.190996
159.457892,6661.853478,5403.503377,842.705048
159.458213,6587.832884,8586.388927,-1762.019645
159.458533,5921.647536,8808.450710,-1991.848295
159.458854,7031.956449,6217.729913,-919.314598
159.459175,11473.192101,4515.256246,0.000000
159.459496,8882.471304,6735.874072,-1302.362347
159.459816,4145.153275,9178.553681,-2145.067394
159.460137,3849.070898,8586.388927,-1838.629195
159.460458,7254.018232,6809.894666,-612.876398
159.460779,7920.203579,6291.750507,1072.533697
159.461099,5329.482782,7846.182985,1149.143247
159.461420,2146.597232,9918.759623,-2145.067394
159.461741,814.226536,9474.636058,-1991.848295
159.462061,2368.659014,7920.203579,1455.581446
159.462382,5255.462188,6883.915261,3140.991542
159.462703,3923.091493,8290.306550,1762.019645
159.463024,1110.308913,11325.150913,-1072.533697
159.463344,296.082377,11769.274478,-1685.410096
159.463665,2368.659014,8438.347739,383.047749
159.463986,5699.585753,6957.935855,1991.848295
159.464307,5181.441594,7994.224174,2145.067394
159.464627,2146.597232,8364.327145,-383.047749
159.464948,3108.864956,8956.491898,-536.266849
159.465269,5107.421000,8512.368333,0.000000
159.465589,7328.038826,7179.997637,459.657299
159.465910,7476.080014,7476.080014,-306.438199
159.466231,7105.977043,9474.636058,-2374.896044
159.466552,6735.874072,9178.553681,-1915.238745
159.466872,7846.182985,6365.771101,766.095498
159.467193,9400.615463,4515.256246,306.438199
159.467514,8142.265362,6809.894666,-536.266849
159.467834,4663.297435,9548.656652,-689.485948
159.468155,5033.400406,8660.409521,-1378.971896
159.468476,8512.368333,6587.832884,-229.828649
159.468797,9252.574275,5847.626942,995.924147
159.469117,5625.565159,7031.956449,153.219100
159.469438,3552.988522,8734.430116,-1302.362347
159.469759,2738.761985,9696.697840,-1532.190996
159.470080,3775.050304,7698.141797,766.095498
159.470400,6217.729913,7254.018232,1991.848295
159.470721,5847.626942,8734.430116,76.609550
159.471042,962.267725,9696.697840,-1608.800546
159.471362,1258.350101,9696.697840,-1149.143247
159.471683,4441.235652,7476.080014,459.657299
159.472004,5921.647536,7105.977043,2068.457845
159.472325,4515.256246,8808.450710,1378.971896
159.472645,2812.782580,10807.006753,-1685.410096
159.472966,1480.411884,9474.636058,-2451.505594
159.473287,3849.070898,7105.977043,153.219100
159.473608,7624.121203,6069.688724,2834.553343
159.473928,7254.018232,6957.935855,1991.848295
159.474249,4737.318029,7698.141797,-1302.362347
159.474570,3997.112087,7179.997637,-2604.724693
159.474890,6809.894666,7031.956449,-2145.067394
159.475211,8512.368333,6587.832884,306.438199
159.475532,7994.224174,7254.018232,689.485948
159.475853,6661.853478,8808.450710,-1378.971896
159.476173,5625.565159,7846.182985,-1991.848295
159.476494,5847.626942,6439.791695,-1149.143247
159.476815,6661.853478,6735.874072,-612.876398
159.477135,4811.338623,8364.327145,-995.924147
159.477456,3701.029710,10066.800811,-536.266849
159.477777,3775.050304,10288.862594,-536.266849
159.478098,5255.462188,7772.162391,842.705048
159.478418,4589.276840,7105.977043,1378.971896
159.478739,1924.535449,8438.347739,766.095498
159.479060,370.102971,10584.944971,-306.438199
159.479381,592.164754,9992.780217,153.219100
159.479701,4293.194464,7772.162391,1762.019645
159.480022,7550.100608,8216.285956,2145.067394
159.480343,3997.112087,10288.862594,0.000000
159.480663,148.041188,10436.903782,-1915.238745
159.480984,2294.638420,8956.491898,-995.924147
159.481305,5107.421000,7105.977043,1608.800546
159.481626,6883.915261,6883.915261,2757.943793
159.481946,6587.832884,9030.512492,1685.410096
159.482267,3923.091493,10214.842000,-2528.115143
159.482588,3552.988522,9622.677246,-3140.991542
159.482909,6661.853478,7254.018232,-459.657299
159.483229,8882.471304,6143.709319,995.924147
159.483550,6735.874072,7105.977043,1608.800546
159.483871,3552.988522,8364.327145,306.438199
159.484191,3182.885551,8290.306550,-1532.190996
159.484512,5699.585753,7328.038826,-459.657299
159.484833,7846.182985,7328.038826,153.219100
159.485154,5699.585753,9474.636058,-689.485948
159.485474,3256.906145,9030.512492,-1991.848295
159.485795,3404.947333,7920.203579,-612.876398
159.486116,4663.297435,6291.750507,1532.190996
159.486437,5551.544565,7179.997637,1685.410096
159.486757,3256.906145,8586.388927,-536.266849
159.487078,2072.576638,9474.636058,-2451.505594
159.487399,4293.194464,9178.553681,-995.924147
159.487719,6143.709319,6957.935855,2374.896044
159.488040,5699.585753,5773.606348,1762.019645
159.488361,5181.441594,8734.430116,-536.266849
159.488682,2072.576638,9474.636058,-1685.410096
159.489002,4071.132681,7772.162391,-383.047749
159.489323,8142.265362,5847.626942,2068.457845
159.489644,7772.162391,5329.482782,919.314598
159.489964,5477.523971,6809.894666,-842.705048
159.490285,4811.338623,8882.471304,-2221.676944
159.490606,6587.832884,7846.182985,-1532.190996
159.490927,8216.285956,4959.379811,1072.533697
159.491247,9844.739029,4959.379811,1149.143247
159.491568,7846.182985,7698.141797,-1225.752797
159.491889,3775.050304,9770.718434,-2221.676944
159.492210,4811.338623,8586.388927,-1225.752797
159.492530,7698.141797,6217.729913,-383.047749
159.492851,7476.080014,5329.482782,229.828649
159.493172,5995.668130,7994.224174,-383.047749
159.493492,2738.761985,11103.089130,-1378.971896
159.493813,1776.494261,10214.842000,-1685.410096
159.494134,5033.400406,7994.224174,459.657299
159.494455,6661.853478,7698.141797,2145.067394
159.494775,3849.070898,9104.533087,1225.752797
159.495096,1036.288319,10140.821405,76.609550
159.495417,1258.350101,9474.636058,-1608.800546
159.495738,3997.112087,7846.182985,-383.047749
159.496058,4885.359217,7624.121203,1685.410096
159.496379,4589.276840,10140.821405,459.657299
159.496700,3256.906145,11991.336260,-459.657299
159.497020,2146.597232,11103.089130,-153.219100
159.497341,4293.194464,8290.306550,536.266849
159.497662,5847.626942,6883.915261,1915.238745
159.497983,5107.421000,8512.368333,995.924147
159.498303,3182.885551,9548.656652,-1072.533697
159.498624,3997.112087,9178.553681,-1838.629195
159.498945,7105.977043,6365.771101,306.438199
159.499265,7179.997637,4959.379811,1225.752797
159.499586,5403.503377,6809.894666,459.657299
159.499907,3701.029710,9918.759623,-1762.019645
159.500228,3849.070898,9622.677246,-1915.238745
159.500548,6735.874072,7402.059420,-153.219100
159.500869,9548.656652,6587.832884,536.266849
159.501190,6069.688724,8142.265362,-612.876398
159.501511,2368.659014,9622.677246,-1838.629195
159.501831,2072.576638,9178.553681,-1378.971896
159.502152,4515.256246,7698.141797,0.000000
159.502473,5551.544565,6809.894666,1072.533697
159.502793,4441.235652,8512.368333,0.000000
159.503114,1628.453072,10214.842000,-1991.848295
159.503435,592.164754,9326.594869,-689.485948
159.503756,3701.029710,7402.059420,1685.410096
159.504076,5699.585753,6513.812290,2528.115143
159.504397,4589.276840,7772.162391,1378.971896
159.504718,2738.761985,9178.553681,-689.485948
159.505039,2516.700203,8956.491898,-766.095498
159.505359,5477.523971,7624.121203,612.876398
159.505680,7920.203579,7179.997637,995.924147
159.506001,6513.812290,6587.832884,0.000000
159.506321,4811.338623,6587.832884,-1838.629195
159.506642,5403.503377,7105.977043,-1532.190996
159.506963,6439.791695,6735.874072,0.000000
159.507284,8438.347739,6587.832884,383.047749
159.507604,7994.224174,7550.100608,-919.314598
159.507925,6069.688724,8438.347739,-2068.457845
159.508246,5403.503377,7994.224174,-1225.752797
159.508566,7105.977043,5921.647536,0.000000
159.508887,8734.430116,5773.606348,-459.657299
159.509208,6809.894666,8068.244768,-1608.800546
159.509529,3775.050304,9178.553681,-2834.553343
159.509849,4663.297435,9474.636058,-1915.238745
159.510170,6661.853478,7624.121203,536.266849
159.510491,7105.977043,7624.121203,1608.800546
159.510812,4441.235652,9622.677246,536.266849
159.511132,1628.453072,9770.718434,-1915.238745
159.511453,2812.782580,8364.327145,-919.314598
159.511774,5477.523971,6957.935855,1991.848295
159.512095,6291.750507,7920.203579,2681.334243
159.512415,4515.256246,10362.883188,536.266849
159.512736,1332.370696,11325.150913,-2681.334243
159.513057,1258.350101,9030.512492,-1915.238745
159.513378,5773.606348,7698.141797,1532.190996
159.513698,7031.956449,7994.224174,2911.162892
159.514019,4959.379811,9770.718434,995.924147
159.514340,3108.864956,10510.924376,-2068.457845
159.514661,3256.906145,8808.450710,-2298.286494
159.514981,5107.421000,5773.606348,689.485948
159.515302,7624.121203,6069.688724,2298.286494
159.515623,6365.771101,8142.265362,229.828649
159.515943,3108.864956,9548.656652,-3140.991542
159.516264,3182.885551,7994.224174,-2604.724693
159.516585,7105.977043,6513.812290,-306.438199
159.516906,8068.244768,7105.977043,1455.581446
159.517226,5255.462188,9178.553681,536.266849
159.517547,3627.009116,10732.986159,-2221.676944
159.517868,4367.215058,9178.553681,-2987.772442
159.518189,4959.379811,5847.626942,76.609550
159.518509,5773.606348,6513.812290,2298.286494
159.518830,4663.297435,9548.656652,995.924147
159.519151,518.144159,10955.047942,-1762.019645
159.519472,2442.679609,8290.306550,-2068.457845
159.519792,5773.606348,5921.647536,383.047749
159.520113,5255.462188,7179.997637,2374.896044
159.520434,2368.659014,10140.821405,2221.676944
159.520755,666.185348,11177.109724,-383.047749
159.521075,2812.782580,9622.677246,-459.657299
159.521396,4959.379811,6957.935855,1838.629195
159.521717,5403.503377,5995.668130,2681.334243
159.522038,3701.029710,7698.141797,306.438199
159.522358,2072.576638,8734.430116,-1838.629195
159.522679,4071.132681,7994.224174,-1915.238745
159.523000,8290.306550,6217.729913,0.000000
159.523321,9474.636058,5699.585753,1225.752797
159.523641,6883.915261,7254.018232,306.438199
159.523962,4663.297435,8734.430116,-1302.362347
159.524283,5921.647536,7698.141797,-1915.238745
159.524604,8290.306550,5255.462188,-689.485948
159.524924,9548.656652,4441.235652,229.828649
159.525245,8808.450710,7550.100608,-383.047749
159.525566,5551.544565,9696.697840,-1455.581446
159.525887,4737.318029,7846.182985,-2221.676944
159.526207,7031.956449,5921.647536,-1225.752797
159.526528,7772.162391,5551.544565,229.828649
159.526849,5477.523971,8216.285956,766.095498
159.527170,3478.967927,9178.553681,153.219100
159.527490,3849.070898,8364.327145,-766.095498
159.527811,5551.544565,6735.874072,153.219100
159.528132,5625.565159,6735.874072,842.705048
159.528453,3997.112087,9030.512492,153.219100
159.528773,1924.535449,10436.903782,-689.485948
159.529094,2590.720797,9104.533087,-689.485948
159.529415,5995.668130,7105.977043,842.705048
159.529735,7402.059420,8364.327145,1072.533697
159.530056,3701.029710,11103.089130,-229.828649
159.530377,1776.494261,11029.068536,-1455.581446
159.530698,3849.070898,8586.388927,-689.485948
159.531018,5921.647536,6365.771101,2068.457845
159.531339,6217.729913,6809.894666,2068.457845
159.531660,4737.318029,9178.553681,-919.314598
159.531981,2368.659014,9696.697840,-3677.258390
159.532301,3849.070898,8438.347739,-2757.943793
159.532622,7698.141797,6217.729913,459.657299
159.532943,9992.780217,7105.977043,1302.362347
159.533264,6069.688724,9844.739029,-153.219100
159.533584,2368.659014,10362.883188,-3447.429741
159.533905,4811.338623,8586.388927,-3370.820191
159.534226,7846.182985,6883.915261,306.438199
159.534547,7772.162391,7254.018232,1762.019645
159.534867,5181.441594,9474.636058,0.000000
159.535188,1480.411884,9844.739029,-2604.724693
159.535509,2442.679609,8734.430116,-1302.362347
159.535830,4737.318029,6291.750507,2298.286494
159.536150,7105.977043,6735.874072,2145.067394
159.536471,4737.318029,9252.574275,0.000000
159.536792,0.000000,10436.903782,-1915.238745
159.537113,1702.473667,9548.656652,-536.266849
159.537433,5847.626942,7994.224174,3370.820191
159.537754,4515.256246,7550.100608,2221.676944
159.538075,3627.009116,8882.471304,76.609550
159.538396,2960.823768,9696.697840,-2451.505594
159.538716,2072.576638,8734.430116,-2221.676944
159.539037,4959.379811,6957.935855,1532.190996
159.539358,6957.935855,6809.894666,1378.971896
159.539679,5329.482782,8882.471304,-612.876398
159.539999,3478.967927,9918.759623,-919.314598
159.540320,4737.318029,8142.265362,-612.876398
159.540641,6661.853478,5921.647536,-229.828649
159.540962,7254.018232,5699.585753,459.657299
159.541282,5773.606348,7920.203579,306.438199
159.541603,4071.132681,8216.285956,-1532.190996
159.541924,4811.338623,6513.812290,-1149.143247
159.542245,8882.471304,5551.544565,229.828649
159.542565,7772.162391,6587.832884,459.657299
159.542886,5477.523971,9548.656652,0.000000
159.543207,3849.070898,9918.759623,-1685.410096
159.543527,4885.359217,6365.771101,-995.924147
159.543848,8142.265362,3923.091493,2451.505594
159.544169,8660.409521,5699.585753,3294.210641
159.544490,4219.173869,8734.430116,-536.266849
159.544810,1480.411884,9918.759623,-2757.943793
159.545131,3923.091493,8290.306550,-2298.286494
159.545452,7994.224174,6143.709319,1532.190996
159.545773,8290.306550,7105.977043,4366.744339
159.546093,5773.606348,8882.471304,1225.752797
159.546414,1702.473667,9474.636058,-3600.648841
159.546735,2294.638420,7624.121203,-2757.943793
159.547056,7031.956449,5699.585753,1915.238745
159.547376,8734.430116,5329.482782,4060.306139
159.547697,6069.688724,8438.347739,1072.533697
159.548018,3627.009116,10584.944971,-3294.210641
159.548339,3404.947333,9030.512492,-4136.915689
159.548659,6291.750507,6735.874072,-229.828649
159.548980,8586.388927,6217.729913,2298.286494
159.549301,6957.935855,8512.368333,76.609550
159.549622,3701.029710,10658.965565,-2528.115143
159.549942,2886.803174,9548.656652,-2298.286494
159.550263,5995.668130,7624.121203,459.657299
159.550584,5329.482782,7031.956449,1455.581446
159.550905,3701.029710,8512.368333,0.000000
159.551225,2368.659014,10362.883188,-1685.410096
159.551546,2368.659014,8734.430116,-766.095498
159.551867,4885.359217,7105.977043,1072.533697
159.552188,6883.915261,7698.141797,1302.362347
159.552508,4071.132681,9844.739029,-1225.752797
159.552829,2294.638420,10436.903782,-1608.800546
159.553150,3923.091493,8660.409521,-536.266849
159.553471,7328.038826,7402.059420,842.705048
159.553791,6661.853478,7846.182985,1838.629195
159.554112,3923.091493,9696.697840,-919.314598
159.554433,2664.741391,10732.986159,-3217.601092
159.554754,3552.988522,9474.636058,-1762.019645
159.555074,5847.626942,7105.977043,1302.362347
159.555395,7328.038826,6439.791695,1838.629195
159.555716,5255.462188,8438.347739,919.314598
159.556037,2664.741391,9918.759623,-1072.533697
159.556357,2886.803174,8364.327145,-1685.410096
159.556678,6513.812290,6661.853478,0.000000
159.556999,8660.409521,7846.182985,1455.581446
159.557319,5995.668130,10214.842000,1532.190996
159.557640,3627.009116,9770.718434,-383.047749
159.557961,5477.523971,7920.203579,-1685.410096
159.558282,6957.935855,5181.441594,153.219100
159.558602,7920.203579,5255.462188,1838.629195
159.558923,6957.935855,7254.018232,1455.581446
159.559244,4811.338623,7328.038826,0.000000
159.559565,5847.626942,5847.626942,-383.047749
159.559885,8734.430116,4219.173869,1455.581446
159.560206,9030.512492,4219.173869,1455.581446
159.560527,7772.162391,6069.688724,153.219100
159.560848,7402.059420,5551.544565,-1072.533697
159.561168,9178.553681,4663.297435,-1072.533697
159.561489,11251.130318,2442.679609,689.485948
159.561810,11769.274478,4367.215058,1149.143247
159.562131,10510.924376,7031.956449,-1455.581446
159.562451,7328.038826,7105.977043,-2834.553343
159.562772,9474.636058,5329.482782,-2451.505594
159.563093,11251.130318,2590.720797,0.000000
159.563414,10510.924376,2072.576638,1685.410096
159.563734,7994.224174,5033.400406,612.876398
159.564055,5255.462188,6365.771101,-1838.629195
159.564376,6661.853478,5699.585753,-1532.190996
159.564697,10140.821405,3923.091493,612.876398
159.565017,10584.944971,4737.318029,612.876398
159.565338,9252.574275,7846.182985,0.000000
159.565659,5773.606348,8808.450710,-1072.533697
159.565980,6809.894666,6735.874072,-459.657299
159.566300,10140.821405,4737.318029,2374.896044
159.566621,10362.883188,3775.050304,3064.381992
159.566942,8956.491898,5995.668130,689.485948
159.567263,7846.182985,7698.141797,-1378.971896
159.567583,8068.244768,5181.441594,-2374.896044
159.567904,11399.171507,1776.494261,459.657299
159.568225,13101.645173,1628.453072,2451.505594
159.568546,11769.274478,4737.318029,383.047749
159.568866,8882.471304,7328.038826,-2374.896044
159.569187,10436.903782,8068.244768,-2987.772442
159.569508,12435.459826,5625.565159,-612.876398
159.569829,13841.851115,3552.988522,1378.971896
159.570149,13249.686362,5477.523971,1072.533697
159.570470,9252.574275,8142.265362,-2068.457845
159.570791,6809.894666,8216.285956,-3524.039291
159.571111,8734.430116,5921.647536,-842.705048
159.571432,9474.636058,3997.112087,229.828649
159.571753,7698.141797,4071.132681,919.314598
159.572074,6217.729913,7772.162391,0.000000
159.572394,5107.421000,8882.471304,-1225.752797
159.572715,5921.647536,7624.121203,-536.266849
159.573036,8142.265362,6587.832884,1455.581446
159.573357,7105.977043,6217.729913,1072.533697
159.573677,5773.606348,7476.080014,229.828649
159.573998,6661.853478,8956.491898,0.000000
159.574319,7254.018232,7994.224174,-689.485948
159.574640,9326.594869,5699.585753,459.657299
159.574960,9178.553681,4515.256246,1378.971896
159.575281,7772.162391,4515.256246,766.095498
159.575602,8290.306550,4885.359217,612.876398
159.575923,9326.594869,4737.318029,306.438199
159.576243,11251.130318,3775.050304,-536.266849
159.576564,12287.418637,3034.844362,-689.485948
159.576885,12213.398043,4219.173869,306.438199
159.577206,11547.212695,5699.585753,306.438199
159.577526,11103.089130,5551.544565,-153.219100
159.577847,10362.883188,4367.215058,-1685.410096
159.578168,10288.862594,3330.926739,-1532.190996
159.578489,10658.965565,4145.153275,-536.266849
159.578809,10066.800811,6217.729913,0.000000
159.579130,9030.512492,6291.750507,-995.924147
159.579451,7920.203579,5477.523971,-995.924147
159.579772,7550.100608,4885.359217,-306.438199
159.580092,6587.832884,4367.215058,919.314598
159.580413,6291.750507,4589.276840,995.924147
159.580734,7476.080014,5625.565159,229.828649
159.581055,7994.224174,6735.874072,-689.485948
159.581375,9178.553681,7476.080014,306.438199
159.581696,8216.285956,7105.977043,689.485948
159.582017,7772.162391,5773.606348,766.095498
159.582338,8882.471304,5107.421000,1455.581446
159.582658,8290.306550,4589.276840,1378.971896
159.582979,8216.285956,2886.803174,-306.438199
159.583300,10881.027347,2220.617826,-536.266849
159.583620,12435.459826,3256.906145,-536.266849
159.583941,12435.459826,4663.297435,-383.047749
159.584262,12361.439231,4885.359217,-383.047749
159.584583,12509.480420,5551.544565,-1302.362347
159.584903,11843.295072,5033.400406,-1378.971896
159.585224,11991.336260,4959.379811,-459.657299
159.585545,11547.212695,5107.421000,-689.485948
159.585866,9696.697840,5847.626942,-1225.752797
159.586186,8512.368333,5995.668130,-1838.629195
159.586507,7772.162391,6587.832884,-2451.505594
159.586828,8142.265362,6735.874072,-919.314598
159.587149,8290.306550,7698.141797,842.705048
159.587469,7105.977043,8142.265362,1149.143247
159.587790,5921.647536,7031.956449,536.266849
159.588111,5255.462188,6291.750507,842.705048
159.588432,4959.379811,5625.565159,1455.581446
159.588752,5699.585753,5403.503377,1608.800546
159.589073,6513.812290,6291.750507,612.876398
159.589394,6587.832884,6809.894666,-1149.143247
159.589715,7105.977043,7254.018232,-2451.505594
159.590035,9622.677246,7772.162391,-612.876398
159.590356,10732.986159,7846.182985,306.438199
159.590677,10436.903782,6809.894666,1149.143247
159.590998,10066.800811,5625.565159,459.657299
159.591318,10140.821405,4737.318029,-229.828649
159.591639,10362.883188,4885.359217,-536.266849
159.591960,11103.089130,4959.379811,-766.095498
159.592281,11695.253884,4367.215058,-1915.238745
159.592601,11695.253884,3849.070898,-2451.505594
159.592922,11399.171507,4367.215058,-995.924147
159.593243,10436.903782,4293.194464,0.000000
159.593564,9992.780217,4737.318029,766.095498
159.593884,9548.656652,5551.544565,459.657299
159.594205,9548.656652,5403.503377,-306.438199
159.594526,9474.636058,5329.482782,-995.924147
159.594847,9622.677246,5551.544565,-536.266849
159.595167,8882.471304,6439.791695,-229.828649
159.595488,8142.265362,6365.771101,-383.047749
159.595809,8068.244768,6143.709319,-995.924147
159.596130,8438.347739,5181.441594,-689.485948
159.596450,8364.327145,4145.153275,919.314598
159.596771,8808.450710,3182.885551,1915.238745
159.597092,8660.409521,2442.679609,1455.581446
159.597412,9178.553681,3034.844362,1072.533697
159.597733,10362.883188,3404.947333,459.657299
159.598054,10881.027347,4515.256246,-229.828649
159.598375,11251.130318,5329.482782,-612.876398
159.598695,11621.233289,6513.812290,-1302.362347
159.599016,12065.356855,6735.874072,-919.314598
159.599337,11843.295072,6365.771101,-1072.533697
159.599658,11917.315666,5181.441594,-459.657299
159.599978,11029.068536,4811.338623,0.000000
159.600299,9844.739029,4367.215058,1072.533697
159.600620,9548.656652,4441.235652,1455.581446
159.600941,9030.512492,3997.112087,919.314598
159.601261,8808.450710,4145.153275,612.876398
159.601582,8660.409521,4589.276840,383.047749
159.601903,9030.512492,4663.297435,0.000000
159.602224,8734.430116,4737.318029,76.609550
159.602544,8808.450710,5033.400406,-459.657299
159.602865,8956.491898,6513.812290,-1378.971896
159.603186,9326.594869,7402.059420,-1302.362347
159.603507,9622.677246,8068.244768,0.000000
159.603827,9696.697840,8216.285956,536.266849
159.604148,9104.533087,6883.915261,1225.752797
159.604469,7994.224174,5847.626942,1532.190996
159.604790,7476.080014,4589.276840,1302.362347
159.605110,7624.121203,3997.112087,766.095498
159.605431,7846.182985,3108.864956,383.047749
159.605752,8734.430116,2812.782580,-306.438199
159.606073,9770.718434,4441.235652,-383.047749
159.606393,9548.656652,6661.853478,-306.438199
159.606714,10214.842000,8734.430116,0.000000
159.607035,10214.842000,9992.780217,-153.219100
159.607356,9030.512492,9474.636058,0.000000
159.607676,7550.100608,8068.244768,153.219100
159.607997,7105.977043,7328.038826,229.828649
159.608318,5921.647536,6883.915261,-689.485948
159.608639,4441.235652,5625.565159,-1455.581446
159.608959,5403.503377,5551.544565,-1685.410096
159.609280,5329.482782,6069.688724,-612.876398
159.609601,4885.359217,7402.059420,995.924147
159.609922,5329.482782,9252.574275,2298.286494
159.610242,6365.771101,10362.883188,2374.896044
159.610563,6439.791695,10510.924376,2834.553343
159.610884,6587.832884,9548.656652,3447.429741
159.611204,6661.853478,8438.347739,2681.334243
159.611525,5847.626942,7994.224174,2528.115143
159.611846,5551.544565,7994.224174,2987.772442
159.612167,5847.626942,9326.594869,2068.457845
159.612487,6735.874072,9400.615463,2757.943793
159.612808,7031.956449,9030.512492,3983.696590
159.613129,6735.874072,7994.224174,4826.401637
159.613449,6439.791695,7624.121203,4903.011187
159.613770,6069.688724,7550.100608,4826.401637
159.614091,7105.977043,7550.100608,4903.011187
159.614412,7624.121203,8142.265362,4979.620737
159.614732,8216.285956,8956.491898,5822.325785
159.615053,8068.244768,9548.656652,6511.811733
159.615374,7846.182985,9252.574275,7048.078582
159.615694,7254.018232,8808.450710,7277.907231
159.616015,7105.977043,7624.121203,7354.516781
159.616336,7105.977043,7105.977043,7201.297681
159.616657,6365.771101,5773.606348,6971.469032
159.616977,5847.626942,4811.338623,7354.516781
159.617298,5995.668130,4737.318029,7277.907231
159.617619,6365.771101,5255.462188,6588.421283
159.617939,6291.750507,6809.894666,6358.592633
159.618260,6217.729913,7105.977043,6511.811733
159.618581,5847.626942,7772.162391,6435.202183
159.618902,5625.565159,7105.977043,7277.907231
159.619222,5107.421000,6809.894666,7354.516781
159.619543,4441.235652,5625.565159,7354.516781
159.619864,3552.988522,6069.688724,7354.516781
159.620184,2738.761985,6217.729913,6588.421283
159.620505,2220.617826,5995.668130,6511.811733
159.620826,1628.453072,5625.565159,6741.640382
159.621147,1776.494261,5403.503377,6818.249932
159.621467,2072.576638,5699.585753,6741.640382
159.621788,2072.576638,6143.709319,6511.811733
159.622109,2368.659014,6587.832884,6358.592633
159.622429,3627.009116,7328.038826,6358.592633
159.622750,3997.112087,7920.203579,6435.202183
159.623071,3997.112087,8142.265362,5822.325785
159.623392,4071.132681,7772.162391,5362.668486
159.623712,3849.070898,6809.894666,4979.620737
159.624033,3330.926739,5551.544565,4749.792088
159.624354,3330.926739,4219.173869,4519.963438
159.624674,3627.009116,4515.256246,2834.553343
159.624995,3775.050304,5107.421000,2604.724693
159.625316,4737.318029,6735.874072,2451.505594
159.625637,5255.462188,7846.182985,2604.724693
159.625957,5921.647536,8882.471304,2298.286494
159.626278,6513.812290,10066.800811,2451.505594
159.626599,7031.956449,11103.089130,2528.115143
159.626919,7179.997637,10807.006753,3064.381992
159.627240,7254.018232,10658.965565,4366.744339
159.627561,6513.812290,11325.150913,5515.887586
159.627882,6365.771101,11473.192101,5286.058936
159.628202,4589.276840,9992.780217,4903.011187
159.628523,3256.906145,6957.935855,3677.258390
159.628844,2294.638420,3330.926739,2451.505594
159.629164,3108.864956,1554.432478,1608.800546
159.629485,4589.276840,3404.947333,1072.533697
159.629806,6217.729913,8808.450710,-229.828649
159.630127,7772.162391,13915.871710,-919.314598
159.630447,9918.759623,17394.839637,-1225.752797
159.630768,11325.150913,18579.169144,995.924147
159.631089,10584.944971,17246.798449,3370.820191
159.631409,8438.347739,13619.789333,4903.011187
159.631730,6957.935855,9030.512492,5745.716235
159.632051,6365.771101,7105.977043,6052.154434
159.632372,3923.091493,7254.018232,6435.202183
159.632692,2516.700203,8068.244768,4826.401637
159.633013,2368.659014,8216.285956,3600.648841
159.633334,3478.967927,7476.080014,3677.258390
159.633654,4367.215058,6069.688724,4290.134789
159.633975,5255.462188,6661.853478,4903.011187
159.634296,6513.812290,8586.388927,4826.401637
159.634617,6513.812290,11917.315666,3600.648841
159.634937,5403.503377,14137.933492,2757.943793
159.635258,7476.080014,15026.180623,2221.676944
159.635579,9030.512492,13989.892304,3294.210641
159.635899,6291.750507,10436.903782,5132.839837
159.636220,4885.359217,6513.812290,6588.421283
159.636541,3034.844362,3923.091493,7124.688131
159.636862,1480.411884,4293.194464,6435.202183
159.637182,2294.638420,4959.379811,5209.449386
159.637503,4145.153275,5921.647536,4826.401637
159.637824,3404.947333,6513.812290,5056.230287
159.638144,4367.215058,6439.791695,7584.345430
159.638465,5699.585753,7328.038826,9806.022374
159.638786,4737.318029,9622.677246,9193.145976
159.639107,2072.576638,9918.759623,7201.297681
159.639427,2072.576638,7624.121203,4596.572988
159.639748,3849.070898,6143.709319,5132.839837
159.640069,4219.173869,4737.318029,7967.393179
159.640389,4589.276840,6587.832884,9422.974625
159.640710,2072.576638,7920.203579,7737.564530
159.641031,370.102971,9178.553681,4903.011187
159.641352,962.267725,6513.812290,5209.449386
159.641672,3108.864956,3182.885551,6435.202183
159.641993,2516.700203,444.123565,6971.469032
159.642314,4737.318029,2368.659014,6052.154434
159.642634,5995.668130,7402.059420,5439.278036
159.642955,5847.626942,11843.295072,4596.572988
159.643276,4959.379811,11843.295072,4060.306139
159.643597,6069.688724,8808.450710,4366.744339
159.643917,4663.297435,5995.668130,5745.716235
159.644238,1998.556043,3182.885551,8503.660028
159.644559,4367.215058,3627.009116,10265.679673
159.644879,4663.297435,7105.977043,8963.317327
159.645200,2812.782580,11547.212695,4596.572988
159.645521,3701.029710,12731.542202,1838.629195
159.645842,6069.688724,11325.150913,2451.505594
159.646162,4515.256246,7550.100608,6052.154434
159.646483,4515.256246,4589.276840,8350.440928
159.646804,5255.462188,4071.132681,8580.269578
159.647124,4145.153275,6735.874072,6052.154434
159.647445,1702.473667,8068.244768,4290.134789
159.647766,3997.112087,9030.512492,3217.601092
159.648087,7328.038826,11103.089130,3830.477490
159.648407,5181.441594,13249.686362,5439.278036
159.648728,5477.523971,13101.645173,6511.811733
159.649049,7550.100608,11177.109724,5132.839837
159.649370,6439.791695,9400.615463,3294.210641
159.649690,3256.906145,5699.585753,1608.800546
159.650011,4737.318029,4811.338623,1225.752797
159.650332,6735.874072,8142.265362,3600.648841
159.650652,5847.626942,11843.295072,5669.106685
159.650973,6587.832884,11917.315666,5822.325785
159.651294,8142.265362,11473.192101,3524.039291
159.651615,6365.771101,11547.212695,3600.648841
159.651935,4515.256246,10881.027347,5669.106685
159.652256,4885.359217,9400.615463,6511.811733
159.652577,5255.462188,8142.265362,5515.887586
159.652897,4663.297435,8068.244768,5515.887586
159.653218,3404.947333,8290.306550,4749.792088
159.653539,3997.112087,8142.265362,3447.429741
159.653860,3182.885551,8734.430116,2604.724693
159.654180,3775.050304,9400.615463,3217.601092
159.654501,4737.318029,9030.512492,3600.648841
159.654822,4885.359217,8068.244768,3907.087040
159.655142,4293.194464,7994.224174,3753.867940
159.655463,4663.297435,8586.388927,2834.553343
159.655784,5625.565159,9178.553681,2145.067394
159.656105,4367.215058,7698.141797,1608.800546
159.656425,5551.544565,7105.977043,1991.848295
159.656746,7105.977043,7624.121203,2681.334243
159.657067,5181.441594,7698.141797,2374.896044
159.657387,2960.823768,6957.935855,1532.190996
159.657708,4071.132681,5255.462188,1685.410096
159.658029,4663.297435,4293.194464,2757.943793
159.658350,5181.441594,4441.235652,3677.258390
159.658670,4737.318029,5255.462188,3140.991542
159.658991,2516.700203,6439.791695,1455.581446
159.659312,2442.679609,7476.080014,1149.143247
159.659632,3923.091493,7624.121203,1072.533697
159.659953,4219.173869,6883.915261,919.314598
159.660274,4811.338623,6661.853478,766.095498
159.660595,3552.988522,7328.038826,0.000000
159.660915,1998.556043,8586.388927,0.000000
159.661236,2590.720797,8882.471304,842.705048
159.661557,5181.441594,8586.388927,1302.362347
159.661877,6957.935855,9104.533087,1302.362347
159.662198,5773.606348,11325.150913,2145.067394
159.662519,3849.070898,11473.192101,2145.067394
159.662840,3997.112087,8956.491898,2528.115143
159.663160,4811.338623,6365.771101,3600.648841
159.663481,4811.338623,4959.379811,4290.134789
159.663802,4737.318029,6883.915261,1762.019645
159.664122,4811.338623,9992.780217,0.000000
159.664443,4367.215058,10955.047942,0.000000
159.664764,5403.503377,8734.430116,536.266849
159.665085,7846.182985,7105.977043,612.876398
159.665405,7328.038826,7476.080014,229.828649
159.665726,5995.668130,9474.636058,76.609550
159.666047,6069.688724,11917.315666,-383.047749
159.666367,6365.771101,11621.233289,-766.095498
159.666688,6735.874072,9474.636058,0.000000
159.667009,8660.409521,8660.409521,1762.019645
159.667330,7476.080014,9992.780217,1608.800546
159.667650,3923.091493,10214.842000,229.828649
159.667971,2294.638420,8216.285956,-1225.752797
159.668292,4663.297435,5921.647536,-689.485948
159.668612,4959.379811,5329.482782,2451.505594
159.668933,5107.421000,6883.915261,3294.210641
159.669254,3627.009116,9104.533087,306.438199
159.669575,1258.350101,9622.677246,-2528.115143
159.669895,1998.556043,8142.265362,-2068.457845
159.670216,5551.544565,7254.018232,-306.438199
159.670537,6735.874072,9622.677246,919.314598
159.670857,4737.318029,12435.459826,919.314598
159.671178,2960.823768,12361.439231,-536.266849
159.671499,3478.967927,9400.615463,-383.047749
159.671820,3849.070898,6809.894666,1915.238745
159.672140,4589.276840,6809.894666,2681.334243
159.672461,3627.009116,8216.285956,1072.533697
159.672782,2220.617826,8512.368333,0.000000
159.673102,3256.906145,6513.812290,-383.047749
159.673423,5551.544565,4293.194464,919.314598
159.673744,6291.750507,5033.400406,2528.115143
159.674065,5625.565159,7772.162391,1532.190996
159.674385,4589.276840,8586.388927,-612.876398
159.674706,5477.523971,7179.997637,-2528.115143
159.675027,7994.224174,5995.668130,-2221.676944
159.675347,9030.512492,7328.038826,383.047749
159.675668,7550.100608,8956.491898,612.876398
159.675989,5255.462188,9696.697840,-1532.190996
159.676310,5181.441594,8216.285956,-3753.867940
159.676630,6365.771101,6143.709319,-3370.820191
159.676951,7254.018232,5255.462188,0.000000
159.677272,6809.894666,7698.141797,1838.629195
159.677592,4663.297435,9104.533087,153.219100
159.677913,3997.112087,7772.162391,-2528.115143
159.678234,5107.421000,5847.626942,-2451.505594
159.678555,5551.544565,5255.462188,1378.971896
159.678875,4219.173869,6957.935855,4136.915689
159.679196,3256.906145,8660.409521,1378.971896
159.679517,2664.741391,8660.409521,-1915.238745
159.679837,4071.132681,8216.285956,-2757.943793
159.680158,5551.544565,8808.450710,-229.828649
159.680479,4071.132681,8882.471304,1455.581446
159.680800,2590.720797,8956.491898,-306.438199
159.681120,3108.864956,8364.327145,-3524.039291
159.681441,3627.009116,6217.729913,-3447.429741
159.681762,5403.503377,6439.791695,-1455.581446
159.682082,6957.935855,9696.697840,-229.828649
159.682403,4737.318029,10510.924376,-1685.410096
159.682724,4663.297435,8734.430116,-4213.525239
159.683045,8216.285956,7328.038826,-3064.381992
159.683365,7920.203579,7994.224174,-306.438199
159.683686,6217.729913,8734.430116,1455.581446
159.684007,6661.853478,9918.759623,-1838.629195
159.684327,5699.585753,8438.347739,-3830.477490
159.684648,5477.523971,6291.750507,-2681.334243
159.684969,8882.471304,6365.771101,-1762.019645
159.685290,7772.162391,8956.491898,-1991.848295
159.685610,4071.132681,9326.594869,-1532.190996
159.685931,5255.462188,8290.306550,-1915.238745
159.686252,7328.038826,8142.265362,-1915.238745
159.686572,6587.832884,9178.553681,459.657299
159.686893,5699.585753,10510.924376,1378.971896
159.687214,4515.256246,10214.842000,-536.266849
159.687535,3775.050304,9104.533087,-1762.019645
159.687855,5551.544565,8068.244768,0.000000
159.688176,6661.853478,8512.368333,536.266849
159.688497,4663.297435,9178.553681,842.705048
159.688817,2960.823768,9326.594869,1302.362347
159.689138,3701.029710,8216.285956,-383.047749
159.689459,4515.256246,6883.915261,-766.095498
159.689780,4737.318029,7254.018232,766.095498
159.690100,5773.606348,9252.574275,919.314598
159.690421,3997.112087,8660.409521,-383.047749
159.690742,3182.885551,6661.853478,-2145.067394
159.691063,5921.647536,5921.647536,-2604.724693
159.691383,7031.956449,7920.203579,-1225.752797
159.691704,4737.318029,10362.883188,0.000000
159.692025,4737.318029,10140.821405,-383.047749
159.692345,5403.503377,7846.182985,-1991.848295
159.692666,5329.482782,4737.318029,-1685.410096
159.692987,5773.606348,5699.585753,383.047749
159.693308,5625.565159,8438.347739,1302.362347
159.693628,4367.215058,9400.615463,76.609550
159.693949,5107.421000,7624.121203,-1378.971896
159.694270,5773.606348,4441.235652,-995.924147
159.694590,5847.626942,4071.132681,2145.067394
159.694911,4441.235652,5995.668130,3983.696590
159.695232,2812.782580,6513.812290,1225.752797
159.695553,3330.926739,5255.462188,-3294.210641
159.695873,6439.791695,6217.729913,-2911.162892
159.696194,7031.956449,7328.038826,-153.219100
159.696515,5921.647536,8660.409521,1532.190996
159.696835,5773.606348,9918.759623,-1072.533697
159.697156,4589.276840,8808.450710,-3830.477490
159.697477,4737.318029,5107.421000,-2145.067394
159.697798,7179.997637,4737.318029,1455.581446
159.698118,7254.018232,7550.100608,1072.533697
159.698439,2516.700203,8956.491898,-1072.533697
159.698760,2590.720797,7328.038826,-4213.525239
159.699080,6587.832884,6143.709319,-2528.115143
159.699401,7476.080014,7624.121203,1455.581446
159.699722,5477.523971,9400.615463,1149.143247
159.700043,2664.741391,9104.533087,-3140.991542
159.700363,2146.597232,7920.203579,-4290.134789
159.700684,5773.606348,8068.244768,153.219100
159.701005,7254.018232,8882.471304,766.095498
159.701325,5107.421000,9770.718434,-1762.019645
159.701646,2886.803174,11177.109724,-3753.867940
159.701967,3923.091493,9622.677246,-2681.334243
159.702288,4811.338623,8142.265362,-153.219100
159.702608,6809.894666,8142.265362,1149.143247
159.702929,6661.853478,10288.862594,612.876398
159.703250,3478.967927,10510.924376,-1532.190996
159.703570,2590.720797,8882.471304,-919.314598
159.703891,6365.771101,7550.100608,229.828649
159.704212,7698.141797,7476.080014,153.219100
159.704533,5625.565159,8364.327145,-229.828649
159.704853,4959.379811,8956.491898,-2834.553343
159.705174,5551.544565,9326.594869,-3600.648841
159.705495,6513.812290,7846.182985,-766.095498
159.705815,7476.080014,7254.018232,153.219100
159.706136,7254.018232,9844.739029,-459.657299
159.706457,4293.194464,10955.047942,-1991.848295
159.706778,4367.215058,8808.450710,-3064.381992
159.707098,7476.080014,5255.462188,-2681.334243
159.707419,7402.059420,6143.709319,-689.485948
159.707740,5107.421000,9400.615463,-459.657299
159.708060,3923.091493,10214.842000,-1685.410096
159.708381,4367.215058,7698.141797,-2681.334243
159.708702,5403.503377,5699.585753,-995.924147
159.709023,6365.771101,6587.832884,842.705048
159.709343,4663.297435,8956.491898,229.828649
159.709664,3627.009116,10807.006753,-306.438199
159.709985,4515.256246,8808.450710,-766.095498
159.710305,5699.585753,5847.626942,-536.266849
159.710626,6513.812290,6513.812290,1685.410096
159.710947,3997.112087,8808.450710,3447.429741
159.711268,1480.411884,8068.244768,842.705048
159.711588,3552.988522,6661.853478,-1915.238745
159.711909,5921.647536,6735.874072,-1838.629195
159.712230,5921.647536,8142.265362,1072.533697
159.712550,4885.359217,8882.471304,3064.381992
159.712871,3701.029710,9992.780217,842.705048
159.713192,2590.720797,7920.203579,-1378.971896
159.713513,4293.194464,4737.318029,-383.047749
159.713833,7772.162391,5255.462188,919.314598
159.714154,6143.709319,8364.327145,1455.581446
159.714475,3108.864956,9474.636058,0.000000
159.714796,5329.482782,7846.182985,-2834.553343
159.715117,7105.977043,6143.709319,-766.095498
159.715437,7402.059420,7328.038826,3447.429741
159.715758,5921.647536,9104.533087,2911.162892
159.716079,2516.700203,8290.306550,-2221.676944
159.716400,3182.885551,7179.997637,-2911.162892
159.716720,7402.059420,6957.935855,1378.971896
159.717041,7920.203579,7772.162391,2374.896044
159.717362,4219.173869,8438.347739,689.485948
159.717683,1406.391290,8364.327145,-1838.629195
159.718003,2146.597232,6217.729913,-1762.019645
159.718324,4663.297435,5477.523971,1378.971896
159.718645,4959.379811,6957.935855,1838.629195
159.718966,3701.029710,9252.574275,-536.266849
159.719286,3182.885551,9474.636058,-1838.629195
159.719607,3701.029710,8364.327145,-1302.362347
159.719928,5107.421000,6957.935855,-459.657299
159.720249,5625.565159,7402.059420,153.219100
159.720570,4737.318029,8956.491898,-766.095498
159.720890,3256.906145,9104.533087,-2604.724693
159.721211,4145.153275,7920.203579,-1915.238745
159.721532,7105.977043,7105.977043,-612.876398
159.721853,7402.059420,8142.265362,229.828649
159.722173,5477.523971,9770.718434,-229.828649
159.722494,3478.967927,10066.800811,-2221.676944
159.722815,4663.297435,7772.162391,-2068.457845
159.723136,6587.832884,5329.482782,76.609550
159.723456,7031.956449,5551.544565,1378.971896
159.723777,5477.523971,8438.347739,-459.657299
159.724098,3627.009116,9918.759623,-3753.867940
159.724419,4737.318029,8512.368333,-3983.696590
159.724739,7624.121203,8364.327145,-1072.533697
159.725060,8438.347739,9918.759623,1915.238745
159.725381,5995.668130,12287.418637,1532.190996
159.725702,3923.091493,11547.212695,-536.266849
159.726022,4737.318029,9030.512492,-1149.143247
159.726343,6957.935855,7402.059420,689.485948
159.726664,6883.915261,8734.430116,2604.724693
159.726985,4737.318029,9770.718434,2145.067394
159.727306,3034.844362,9844.739029,76.609550
159.727626,5255.462188,7846.182985,-306.438199
159.727947,5625.565159,5995.668130,1072.533697
159.728268,5921.647536,7179.997637,2451.505594
159.728589,4737.318029,9770.718434,2374.896044
159.728909,3627.009116,11547.212695,0.000000
159.729230,3923.091493,9326.594869,-536.266849
159.729551,6439.791695,7328.038826,536.266849
159.729872,7105.977043,7994.224174,1838.629195
159.730192,4811.338623,9696.697840,1378.971896
159.730513,2368.659014,9622.677246,-1072.533697
159.730834,3552.988522,7624.121203,-2221.676944
159.731155,6587.832884,6217.729913,919.314598
159.731475,6809.894666,7105.977043,3753.867940
159.731796,2738.761985,7624.121203,2604.724693
159.732117,962.267725,7179.997637,0.000000
159.732438,3108.864956,6217.729913,0.000000
159.732759,5847.626942,5847.626942,1915.238745
159.733079,5995.668130,6735.874072,2298.286494
159.733400,4219.173869,8660.409521,1378.971896
159.733721,2220.617826,7920.203579,229.828649
159.734042,3478.967927,6439.791695,766.095498
159.734362,5625.565159,5551.544565,2221.676944
159.734683,5329.482782,6661.853478,2374.896044
159.735004,3404.947333,8734.430116,1378.971896
159.735325,3034.844362,8586.388927,0.000000
159.735645,3849.070898,6661.853478,-459.657299
159.735966,5921.647536,5403.503377,766.095498
159.736287,6365.771101,6439.791695,2145.067394
159.736608,4367.215058,7698.141797,1762.019645
159.736928,2146.597232,7920.203579,0.000000
159.737249,3034.844362,5255.462188,-1378.971896
159.737570,4811.338623,3627.009116,-76.609550
159.737891,6513.812290,6143.709319,919.314598
159.738212,5477.523971,10955.047942,0.000000
159.738532,2590.720797,11399.171507,-2987.772442
159.738853,4219.173869,8734.430116,-3217.601092
159.739174,7328.038826,7105.977043,229.828649
159.739495,6735.874072,7994.224174,2681.334243
159.739815,3997.112087,10066.800811,1302.362347
159.740136,2368.659014,10436.903782,-2528.115143
159.740457,2960.823768,7994.224174,-3064.381992
159.740778,5995.668130,7179.997637,76.609550
159.741098,7550.100608,9400.615463,2374.896044
159.741419,4441.235652,12065.356855,383.047749
159.741740,2442.679609,12213.398043,-1608.800546
159.742061,4737.318029,9548.656652,-995.924147
159.742381,7179.997637,7846.182985,1762.019645
159.742702,7105.977043,8734.430116,4366.744339
159.743023,4663.297435,9622.677246,3140.991542
159.743344,3256.906145,8956.491898,-995.924147
159.743664,4737.318029,7698.141797,-2451.505594
159.743985,7328.038826,7624.121203,-612.876398
159.744306,7402.059420,7772.162391,459.657299
159.744627,5847.626942,9918.759623,0.000000
159.744948,3552.988522,11177.109724,-2221.676944
159.745268,4293.194464,8142.265362,-2604.724693
159.745589,7105.977043,6143.709319,-1225.752797
159.745910,7994.224174,7920.203579,383.047749
159.746231,4737.318029,11325.150913,0.000000
159.746551,2664.741391,11251.130318,-2145.067394
159.746872,5107.421000,7994.224174,-3217.601092
159.747193,6809.894666,6291.750507,-383.047749
159.747514,6883.915261,7772.162391,2528.115143
159.747834,3478.967927,9178.553681,919.314598
159.748155,1110.308913,8216.285956,-1991.848295
159.748476,3775.050304,7994.224174,-1072.533697
159.748797,7105.977043,7402.059420,1685.410096
159.749117,5921.647536,8216.285956,2604.724693
159.749438,2812.782580,8364.327145,1225.752797
159.749759,1554.432478,7698.141797,-383.047749
159.750080,3404.947333,6069.688724,-459.657299
159.750401,5181.441594,5255.462188,612.876398
159.750721,5329.482782,7698.141797,1302.362347
159.751042,5255.462188,10658.965565,2068.457845
159.751363,3775.050304,10140.821405,919.314598
159.751684,3627.009116,6735.874072,-153.219100
159.752004,5699.585753,5033.400406,306.438199
159.752325,5773.606348,5995.668130,2298.286494
159.752646,4219.173869,8142.265362,2068.457845
159.752967,3330.926739,7920.203579,-612.876398
159.753287,4145.153275,5625.565159,-2374.896044
159.753608,7105.977043,4959.379811,-536.266849
159.753929,7476.080014,7846.182985,1072.533697
159.754250,4515.256246,10881.027347,229.828649
159.754570,2664.741391,9844.739029,-2221.676944
159.754891,5255.462188,5921.647536,-1838.629195
159.755212,7105.977043,4737.318029,1149.143247
159.755533,6661.853478,7772.162391,3753.867940
159.755853,3849.070898,11843.295072,1072.533697
159.756174,1480.411884,10584.944971,-2451.505594
159.756495,3256.906145,7328.038826,-2145.067394
159.756816,6513.812290,5107.421000,1532.190996
159.757137,5033.400406,6143.709319,2987.772442
159.757457,2146.597232,8512.368333,1608.800546
159.757778,2072.576638,10066.800811,-842.705048
159.758099,3997.112087,9030.512492,-2068.457845
159.758420,6735.874072,7994.224174,459.657299
159.758740,6809.894666,8956.491898,3447.429741
159.759061,5107.421000,9844.739029,3140.991542
159.759382,3034.844362,9474.636058,612.876398
159.759703,2886.803174,6365.771101,-1838.629195
159.760023,5699.585753,4367.215058,-1225.752797
159.760344,7698.141797,6957.935855,1455.581446
159.760665,5403.503377,10140.821405,1225.752797
159.760986,3182.885551,11029.068536,-2834.553343
159.761306,5625.565159,9548.656652,-4060.306139
159.761627,7476.080014,7328.038826,-995.924147
159.761948,7105.977043,6661.853478,2451.505594
159.762269,6587.832884,8586.388927,1225.752797
159.762590,3923.091493,9918.759623,-3447.429741
159.762910,3552.988522,9252.574275,-4060.306139
159.763231,7476.080014,8734.430116,383.047749
159.763552,8438.347739,8660.409521,1378.971896
159.763873,4515.256246,8956.491898,612.876398
159.764193,2960.823768,8364.327145,-1608.800546
159.764514,4293.194464,7105.977043,-2757.943793
159.764835,5403.503377,6735.874072,-229.828649
159.765156,5255.462188,8142.265362,2145.067394
