#time,accel_x,accel_y,accel_z
146.401086,4885.359217,7846.182985,76.609550
146.401407,5107.421000,7920.203579,0.000000
146.401728,4959.379811,8068.244768,0.000000
146.402049,4885.359217,8068.244768,-153.219100
146.402370,5107.421000,7994.224174,-383.047749
146.402691,4885.359217,7698.141797,0.000000
146.403012,4737.318029,7994.224174,-153.219100
146.403333,4959.379811,7846.182985,-306.438199
146.403654,5033.400406,7846.182985,0.000000
146.403975,4885.359217,7994.224174,0.000000
146.404296,5107.421000,7994.224174,0.000000
146.404617,5255.462188,8068.244768,0.000000
146.404938,4959.379811,7920.203579,0.000000
146.405258,4959.379811,8216.285956,-153.219100
146.405579,5033.400406,8216.285956,-76.609550
146.405900,5255.462188,8216.285956,0.000000
146.406221,5107.421000,8142.265362,-229.828649
146.406542,5033.400406,7994.224174,0.000000
146.406863,4885.359217,8142.265362,-153.219100
146.407184,5255.462188,7994.224174,0.000000
146.407505,5107.421000,7994.224174,-229.828649
146.407826,5107.421000,7846.182985,0.000000
146.408147,4811.338623,8290.306550,0.000000
146.408468,4885.359217,8216.285956,-383.047749
146.408789,4811.338623,7994.224174,-153.219100
146.409110,5033.400406,7920.203579,-229.828649
146.409430,5107.421000,8142.265362,0.000000
146.409751,4737.318029,8216.285956,0.000000
146.410072,4737.318029,8142.265362,0.000000
146.410393,4811.338623,8216.285956,-306.438199
146.410714,4959.379811,8068.244768,-229.828649
146.411035,5107.421000,8216.285956,0.000000
146.411356,4737.318029,8216.285956,-229.828649
146.411677,4885.359217,7994.224174,-229.828649
146.411998,5033.400406,8290.306550,0.000000
146.412319,5033.400406,7994.224174,-229.828649
146.412640,5329.482782,7772.162391,-229.828649
146.412961,4811.338623,8068.244768,0.000000
146.413281,4515.256246,7772.162391,-612.876398
146.413602,4441.235652,7402.059420,-153.219100
146.413923,4293.194464,7624.121203,0.000000
146.414244,4663.297435,8882.471304,-383.047749
146.414565,4515.256246,9696.697840,-842.705048
146.414886,4737.318029,9548.656652,-1072.533697
146.415207,5033.400406,9696.697840,-612.876398
146.415528,4811.338623,9918.759623,-229.828649
146.415849,3552.988522,9178.553681,229.828649
146.416170,3034.844362,7476.080014,536.266849
146.416491,3108.864956,7105.977043,766.095498
146.416812,3330.926739,7846.182985,1072.533697
146.417133,3701.029710,8142.265362,0.000000
146.417453,3701.029710,8438.347739,-995.924147
146.417774,4367.215058,8512.368333,-689.485948
146.418095,4145.153275,8512.368333,153.219100
146.418416,4515.256246,8956.491898,229.828649
146.418737,4145.153275,9400.615463,-689.485948
146.419058,3182.885551,9178.553681,-1685.410096
146.419379,3552.988522,9622.677246,-1302.362347
146.419700,3923.091493,10658.965565,-459.657299
146.420021,2812.782580,10881.027347,-1072.533697
146.420342,1924.535449,9326.594869,-766.095498
146.420663,2590.720797,9030.512492,0.000000
146.420984,1998.556043,9992.780217,0.000000
146.421305,888.247130,9918.759623,-153.219100
146.421625,1924.535449,9030.512492,0.000000
146.421946,2220.617826,8882.471304,766.095498
146.422267,2220.617826,9252.574275,2528.115143
146.422588,2220.617826,9252.574275,2298.286494
146.422909,2664.741391,9696.697840,-612.876398
146.423230,1702.473667,10066.800811,-1991.848295
146.423551,1998.556043,10955.047942,-536.266849
146.423872,2886.803174,9474.636058,-383.047749
146.424193,3627.009116,8808.450710,-229.828649
146.424514,3701.029710,9474.636058,153.219100
146.424835,2516.700203,9918.759623,-229.828649
146.425156,3182.885551,9326.594869,-842.705048
146.425477,4071.132681,9252.574275,-612.876398
146.425797,4293.194464,9104.533087,0.000000
146.426118,4589.276840,8586.388927,306.438199
146.426439,4959.379811,9326.594869,383.047749
146.426760,3404.947333,9326.594869,-229.828649
146.427081,3552.988522,8290.306550,0.000000
146.427402,4663.297435,7179.997637,-229.828649
146.427723,4737.318029,6957.935855,0.000000
146.428044,4515.256246,7550.100608,1149.143247
146.428365,5477.523971,7920.203579,1072.533697
146.428686,5551.544565,7550.100608,153.219100
146.429007,5921.647536,7550.100608,-612.876398
146.429328,6439.791695,7105.977043,0.000000
146.429648,6809.894666,6143.709319,-612.876398
146.429969,7254.018232,6365.771101,-995.924147
146.430290,7476.080014,6587.832884,-612.876398
146.430611,7550.100608,5921.647536,-612.876398
146.430932,8290.306550,6291.750507,-459.657299
146.431253,7550.100608,6883.915261,-612.876398
146.431574,7402.059420,6957.935855,-1072.533697
146.431895,7920.203579,7105.977043,-1149.143247
146.432216,7179.997637,6661.853478,-919.314598
146.432537,6809.894666,6661.853478,-383.047749
146.432858,6957.935855,6661.853478,0.000000
146.433179,6661.853478,6513.812290,0.000000
146.433500,5699.585753,6809.894666,0.000000
146.433820,5625.565159,7476.080014,0.000000
146.434141,4959.379811,7846.182985,-842.705048
146.434462,4367.215058,8290.306550,-689.485948
146.434783,4441.235652,8956.491898,0.000000
146.435104,4367.215058,9400.615463,153.219100
146.435425,3923.091493,9252.574275,-383.047749
146.435746,3182.885551,9326.594869,-536.266849
146.436067,2812.782580,9400.615463,-229.828649
146.436388,2886.803174,9030.512492,766.095498
146.436709,2960.823768,9400.615463,919.314598
146.437030,3256.906145,9770.718434,536.266849
146.437351,3627.009116,9770.718434,0.000000
146.437672,4145.153275,9992.780217,0.000000
146.437992,3849.070898,9400.615463,383.047749
146.438313,4293.194464,8734.430116,995.924147
146.438634,4737.318029,8216.285956,919.314598
146.438955,4589.276840,7846.182985,0.000000
146.439276,4515.256246,7846.182985,0.000000
146.439597,4885.359217,7624.121203,0.000000
146.439918,5107.421000,8216.285956,-689.485948
146.440239,5551.544565,8364.327145,-995.924147
146.440560,5625.565159,8364.327145,-1072.533697
146.440881,5847.626942,8142.265362,-995.924147
146.441202,5847.626942,8438.347739,-1072.533697
146.441523,5477.523971,8142.265362,-689.485948
146.441844,5403.503377,8216.285956,-919.314598
146.442164,4885.359217,8068.244768,-1149.143247
146.442485,4589.276840,8438.347739,-995.924147
146.442806,4589.276840,8142.265362,-306.438199
146.443127,4293.194464,8142.265362,76.609550
146.443448,3849.070898,8216.285956,153.219100
146.443769,3701.029710,8290.306550,0.000000
146.444090,3552.988522,8586.388927,0.000000
146.444411,3775.050304,8364.327145,383.047749
146.444732,3404.947333,8586.388927,306.438199
146.445053,3404.947333,8290.306550,1149.143247
146.445374,3775.050304,8290.306550,536.266849
146.445695,3627.009116,8882.471304,0.000000
146.446015,3997.112087,8882.471304,-306.438199
146.446336,4367.215058,8734.430116,-153.219100
146.446657,5033.400406,8216.285956,383.047749
146.446978,5181.441594,8290.306550,612.876398
146.447299,5625.565159,7920.203579,536.266849
146.447620,5773.606348,7105.977043,76.609550
146.447941,6143.709319,6661.853478,0.000000
146.448262,6365.771101,6439.791695,383.047749
146.448583,6809.894666,6143.709319,306.438199
146.448904,7402.059420,5921.647536,0.000000
146.449225,7550.100608,5995.668130,-842.705048
146.449546,7698.141797,6217.729913,-1225.752797
146.449867,7698.141797,6513.812290,-1302.362347
146.450187,7772.162391,6735.874072,-1225.752797
146.450508,7772.162391,7105.977043,-1072.533697
146.450829,7254.018232,7550.100608,-1225.752797
146.451150,6957.935855,7994.224174,-1302.362347
146.451471,6143.709319,8512.368333,-1838.629195
146.451792,5847.626942,8808.450710,-383.047749
146.452113,5403.503377,8512.368333,-919.314598
146.452434,4737.318029,8290.306550,-229.828649
146.452755,3923.091493,8734.430116,153.219100
146.453076,3256.906145,8956.491898,0.000000
146.453397,2886.803174,8586.388927,76.609550
146.453718,2368.659014,8882.471304,919.314598
146.454039,2442.679609,8734.430116,1378.971896
146.454359,2516.700203,9326.594869,1072.533697
146.454680,2516.700203,9474.636058,995.924147
146.455001,2220.617826,9696.697840,919.314598
146.455322,2442.679609,9770.718434,536.266849
146.455643,3256.906145,9400.615463,383.047749
146.455964,3404.947333,9622.677246,612.876398
146.456285,3775.050304,9474.636058,766.095498
146.456606,4589.276840,9474.636058,-76.609550
146.456927,4811.338623,8586.388927,-229.828649
146.457248,4959.379811,8068.244768,-459.657299
146.457569,5255.462188,7254.018232,-153.219100
146.457890,5699.585753,7105.977043,-306.438199
146.458211,5847.626942,7031.956449,-766.095498
146.458531,6365.771101,7179.997637,-1072.533697
146.458852,6661.853478,7179.997637,-1072.533697
146.459173,6735.874072,7105.977043,-919.314598
146.459494,6661.853478,7179.997637,-536.266849
146.459815,6661.853478,7550.100608,-536.266849
146.460136,6291.750507,7772.162391,-842.705048
146.460457,5995.668130,7846.182985,-1072.533697
146.460778,5847.626942,7624.121203,-1532.190996
146.461099,5255.462188,7698.141797,-995.924147
146.461420,4811.338623,8216.285956,-536.266849
146.461741,4441.235652,8364.327145,229.828649
146.462061,4145.153275,8438.347739,459.657299
146.462382,3775.050304,8290.306550,229.828649
146.462703,3404.947333,8660.409521,459.657299
146.463024,3330.926739,8734.430116,536.266849
146.463344,3108.864956,8882.471304,919.314598
146.463665,3404.947333,8808.450710,842.705048
146.463986,3552.988522,8734.430116,1225.752797
146.464307,3849.070898,8956.491898,1302.362347
146.464627,3627.009116,8808.450710,995.924147
146.464948,4145.153275,7994.224174,1072.533697
146.465269,4367.215058,8068.244768,842.705048
146.465589,5255.462188,7624.121203,689.485948
146.465910,5847.626942,7179.997637,0.000000
146.466231,5847.626942,7031.956449,0.000000
146.466552,6069.688724,6439.791695,0.000000
146.466872,6809.894666,6587.832884,-536.266849
146.467193,7476.080014,6439.791695,-1378.971896
146.467514,7698.141797,6587.832884,-1378.971896
146.467835,7624.121203,7105.977043,-1762.019645
146.468155,7698.141797,7179.997637,-1762.019645
146.468476,7994.224174,7328.038826,-1838.629195
146.468797,7328.038826,7550.100608,-1685.410096
146.469118,7031.956449,7402.059420,-1685.410096
146.469438,6365.771101,7402.059420,-1532.190996
146.469759,5551.544565,7698.141797,-995.924147
146.470080,5551.544565,7920.203579,-536.266849
146.470400,4737.318029,7846.182985,76.609550
146.470721,4293.194464,8068.244768,76.609550
146.471042,3627.009116,8438.347739,0.000000
146.471363,3330.926739,8586.388927,0.000000
146.471683,3256.906145,9104.533087,-306.438199
146.472004,2664.741391,9400.615463,306.438199
146.472325,3108.864956,9622.677246,612.876398
146.472646,2886.803174,9918.759623,229.828649
146.472966,2960.823768,9918.759623,612.876398
146.473287,3478.967927,9474.636058,153.219100
146.473608,3256.906145,9548.656652,76.609550
146.473929,3404.947333,9548.656652,689.485948
146.474249,3997.112087,9400.615463,153.219100
146.474570,4589.276840,8734.430116,153.219100
146.474891,5181.441594,8216.285956,306.438199
146.475212,5255.462188,7624.121203,76.609550
146.475532,5403.503377,7254.018232,229.828649
146.475853,6069.688724,7105.977043,0.000000
146.476174,6439.791695,7254.018232,-383.047749
146.476494,6661.853478,7550.100608,-459.657299
146.476815,7402.059420,7328.038826,-1149.143247
146.477136,7254.018232,7846.182985,-1378.971896
146.477457,7328.038826,7476.080014,-1149.143247
146.477777,7105.977043,7550.100608,-689.485948
146.478098,6735.874072,7698.141797,-919.314598
146.478419,6291.750507,7772.162391,-612.876398
146.478740,6069.688724,7550.100608,-766.095498
146.479060,5551.544565,7624.121203,-689.485948
146.479381,5329.482782,7624.121203,-459.657299
146.479702,4663.297435,8068.244768,383.047749
146.480023,4071.132681,8216.285956,76.609550
146.480343,3701.029710,7846.182985,919.314598
146.480664,3701.029710,7920.203579,842.705048
146.480985,3256.906145,8660.409521,612.876398
146.481305,2812.782580,8586.388927,459.657299
146.481626,3182.885551,8438.347739,1149.143247
146.481947,3404.947333,8216.285956,995.924147
146.482268,3478.967927,8364.327145,766.095498
146.482588,3256.906145,8290.306550,842.705048
146.482909,3997.112087,8512.368333,153.219100
146.483230,4515.256246,8216.285956,459.657299
146.483551,4885.359217,7550.100608,612.876398
146.483871,5847.626942,7105.977043,76.609550
146.484192,6143.709319,6513.812290,-229.828649
146.484513,6217.729913,6809.894666,0.000000
146.484834,6217.729913,6661.853478,-153.219100
146.485154,7105.977043,6439.791695,-766.095498
146.485475,7550.100608,6365.771101,-842.705048
146.485796,7624.121203,6735.874072,-1225.752797
146.486116,7772.162391,6809.894666,-1072.533697
146.486437,7402.059420,6957.935855,-995.924147
146.486758,6957.935855,7254.018232,-1455.581446
146.487079,6809.894666,7328.038826,-1149.143247
146.487399,6365.771101,7550.100608,-612.876398
146.487720,5551.544565,8068.244768,-995.924147
146.488041,5181.441594,8364.327145,-919.314598
146.488362,4663.297435,8586.388927,-612.876398
146.488682,4219.173869,8882.471304,-229.828649
146.489003,3552.988522,9178.553681,-153.219100
146.489324,3330.926739,9326.594869,306.438199
146.489645,2886.803174,9252.574275,0.000000
146.489965,2368.659014,9400.615463,536.266849
146.490286,2368.659014,9696.697840,459.657299
146.490607,2516.700203,9474.636058,459.657299
146.490928,2738.761985,9770.718434,459.657299
146.491248,2738.761985,9918.759623,306.438199
146.491569,3108.864956,9696.697840,459.657299
146.491890,3404.947333,9696.697840,689.485948
146.492210,4071.132681,9178.553681,306.438199
146.492531,4663.297435,9474.636058,76.609550
146.492852,5329.482782,8808.450710,0.000000
146.493173,5847.626942,8438.347739,-383.047749
146.493493,5995.668130,8142.265362,-689.485948
146.493814,6513.812290,7031.956449,-536.266849
146.494135,6883.915261,6735.874072,-306.438199
146.494456,7105.977043,6735.874072,-919.314598
146.494776,7254.018232,7105.977043,-1302.362347
146.495097,7476.080014,7105.977043,-1532.190996
146.495418,7772.162391,6883.915261,-1455.581446
146.495739,7550.100608,7105.977043,-1302.362347
146.496059,6957.935855,7550.100608,-919.314598
146.496380,6439.791695,7698.141797,-995.924147
146.496701,6365.771101,7254.018232,-1302.362347
146.497021,5329.482782,7772.162391,-1072.533697
146.497342,4885.359217,7994.224174,-459.657299
146.497663,4737.318029,8364.327145,-229.828649
146.497984,4293.194464,7920.203579,-153.219100
146.498304,3330.926739,8364.327145,612.876398
146.498625,2960.823768,8216.285956,689.485948
146.498946,2812.782580,8512.368333,689.485948
146.499267,2516.700203,8660.409521,766.095498
146.499587,2516.700203,8734.430116,1302.362347
146.499908,3108.864956,8734.430116,1072.533697
146.500229,3404.947333,8660.409521,1072.533697
146.500550,3108.864956,8882.471304,766.095498
146.500870,3330.926739,8882.471304,842.705048
146.501191,3849.070898,8660.409521,383.047749
146.501512,4219.173869,8216.285956,612.876398
146.501832,5551.544565,7772.162391,229.828649
146.502153,5921.647536,7328.038826,229.828649
146.502474,5995.668130,7031.956449,383.047749
146.502795,6143.709319,6513.812290,76.609550
146.503115,6439.791695,6291.750507,0.000000
146.503436,6661.853478,6587.832884,-306.438199
146.503757,7105.977043,6587.832884,-995.924147
146.504078,7624.121203,6957.935855,-1149.143247
146.504398,7624.121203,7105.977043,-995.924147
146.504719,7105.977043,7254.018232,-919.314598
146.505040,7254.018232,7328.038826,-1225.752797
146.505361,6587.832884,7328.038826,-1149.143247
146.505681,6069.688724,7920.203579,-1532.190996
146.506002,5403.503377,7624.121203,-1149.143247
146.506323,5107.421000,7846.182985,-459.657299
146.506643,4885.359217,8068.244768,0.000000
146.506964,4367.215058,8290.306550,0.000000
146.507285,3627.009116,8734.430116,-76.609550
146.507606,3330.926739,8660.409521,0.000000
146.507926,3108.864956,8660.409521,306.438199
146.508247,2812.782580,9104.533087,459.657299
146.508568,3256.906145,9104.533087,995.924147
146.508889,3182.885551,9252.574275,612.876398
146.509209,3108.864956,9844.739029,229.828649
146.509530,2960.823768,9696.697840,306.438199
146.509851,3478.967927,9400.615463,612.876398
146.510172,3997.112087,9178.553681,536.266849
146.510492,4589.276840,8882.471304,0.000000
146.510813,4737.318029,8808.450710,76.609550
146.511134,4885.359217,8290.306550,0.000000
146.511455,5403.503377,7846.182985,-306.438199
146.511775,6069.688724,7328.038826,0.000000
146.512096,5995.668130,7105.977043,-689.485948
146.512417,5995.668130,7550.100608,-1072.533697
146.512737,6143.709319,7920.203579,-995.924147
146.513058,6661.853478,8142.265362,-1378.971896
146.513379,7105.977043,7994.224174,-1762.019645
146.513700,6809.894666,7846.182985,-1378.971896
146.514020,6513.812290,7920.203579,-1378.971896
146.514341,6069.688724,7994.224174,-1072.533697
146.514662,5625.565159,7994.224174,-995.924147
146.514983,5107.421000,8512.368333,-689.485948
146.515303,4959.379811,7994.224174,-689.485948
146.515624,4589.276840,8142.265362,-919.314598
146.515945,4367.215058,8216.285956,0.000000
146.516266,4071.132681,8216.285956,383.047749
146.516586,3552.988522,8364.327145,612.876398
146.516907,3775.050304,8512.368333,612.876398
146.517228,2960.823768,8586.388927,229.828649
146.517548,2960.823768,8882.471304,536.266849
146.517869,3182.885551,9178.553681,766.095498
146.518190,3552.988522,9252.574275,766.095498
146.518511,3256.906145,8808.450710,612.876398
146.518831,3478.967927,8956.491898,383.047749
146.519152,3775.050304,8290.306550,536.266849
146.519473,4219.173869,8068.244768,229.828649
146.519794,4737.318029,8068.244768,459.657299
146.520114,5255.462188,7402.059420,306.438199
146.520435,5847.626942,6957.935855,76.609550
146.520756,5773.606348,7105.977043,76.609550
146.521077,5995.668130,6735.874072,-229.828649
146.521397,6439.791695,6957.935855,-536.266849
146.521718,6735.874072,6661.853478,-842.705048
146.522039,7105.977043,6883.915261,-995.924147
146.522359,7105.977043,7031.956449,-842.705048
146.522680,7254.018232,7105.977043,-1072.533697
146.523001,7031.956449,7328.038826,-1302.362347
146.523322,6735.874072,7920.203579,-1378.971896
146.523642,6513.812290,7624.121203,-995.924147
146.523963,5921.647536,7772.162391,-1072.533697
146.524284,5551.544565,7920.203579,-766.095498
146.524605,4959.379811,7994.224174,-459.657299
146.524925,4737.318029,8068.244768,76.609550
146.525246,4293.194464,8216.285956,153.219100
146.525567,3478.967927,9030.512492,153.219100
146.525888,3404.947333,8660.409521,306.438199
146.526208,3108.864956,8882.471304,612.876398
146.526529,3034.844362,9030.512492,1225.752797
146.526850,3108.864956,8882.471304,995.924147
146.527171,3256.906145,8882.471304,612.876398
146.527491,3256.906145,9030.512492,842.705048
146.527812,3182.885551,9548.656652,766.095498
146.528133,3478.967927,8956.491898,842.705048
146.528453,3997.112087,9104.533087,689.485948
146.528774,4515.256246,8882.471304,689.485948
146.529095,4811.338623,8808.450710,0.000000
146.529416,5255.462188,8586.388927,0.000000
146.529736,5255.462188,8290.306550,-842.705048
146.530057,5625.565159,7550.100608,-383.047749
146.530378,5625.565159,7105.977043,-229.828649
146.530699,5995.668130,7105.977043,0.000000
146.531019,6069.688724,7476.080014,-919.314598
146.531340,6291.750507,8142.265362,-1225.752797
146.531661,6513.812290,7772.162391,-1532.190996
146.531982,6439.791695,7476.080014,-1378.971896
146.532302,6365.771101,7624.121203,-612.876398
146.532623,6217.729913,7624.121203,-689.485948
146.532944,5551.544565,7994.224174,-995.924147
146.533264,5033.400406,8142.265362,-1302.362347
146.533585,4959.379811,7994.224174,-1149.143247
146.533906,4885.359217,8290.306550,-536.266849
146.534227,4737.318029,8142.265362,229.828649
146.534547,3997.112087,8512.368333,919.314598
146.534868,3849.070898,8142.265362,766.095498
146.535189,3330.926739,8438.347739,0.000000
146.535510,3330.926739,8438.347739,0.000000
146.535830,3108.864956,8660.409521,229.828649
146.536151,4071.132681,8808.450710,536.266849
146.536472,3923.091493,8438.347739,766.095498
146.536793,3849.070898,8808.450710,306.438199
146.537113,3849.070898,8512.368333,536.266849
146.537434,4145.153275,8142.265362,306.438199
146.537755,4663.297435,8660.409521,689.485948
146.538075,5551.544565,7846.182985,0.000000
146.538396,6069.688724,7550.100608,0.000000
146.538717,5995.668130,7105.977043,0.000000
146.539038,6143.709319,6735.874072,-153.219100
146.539358,6291.750507,6365.771101,-229.828649
146.539679,6883.915261,6365.771101,-689.485948
146.540000,7105.977043,6587.832884,-1072.533697
146.540321,7328.038826,6957.935855,-995.924147
146.540641,7550.100608,7179.997637,-1302.362347
146.540962,7328.038826,7550.100608,-766.095498
146.541283,7328.038826,7254.018232,-842.705048
146.541604,6957.935855,7698.141797,-1225.752797
146.541924,6513.812290,7698.141797,-1225.752797
146.542245,5625.565159,7698.141797,-1072.533697
146.542566,5477.523971,7624.121203,-689.485948
146.542887,5329.482782,7920.203579,0.000000
146.543207,4663.297435,8216.285956,153.219100
146.543528,3849.070898,8660.409521,0.000000
146.543849,3552.988522,8586.388927,0.000000
146.544169,3552.988522,8956.491898,612.876398
146.544490,2960.823768,9178.553681,459.657299
146.544811,2886.803174,9030.512492,689.485948
146.545132,3108.864956,9326.594869,612.876398
146.545452,2960.823768,9326.594869,536.266849
146.545773,3108.864956,9770.718434,842.705048
146.546094,2960.823768,9696.697840,383.047749
146.546415,3478.967927,9104.533087,689.485948
146.546735,3701.029710,8882.471304,536.266849
146.547056,4071.132681,8882.471304,153.219100
146.547377,4441.235652,8364.327145,0.000000
146.547698,4737.318029,8290.306550,0.000000
146.548018,5033.400406,7550.100608,0.000000
146.548339,5255.462188,7105.977043,0.000000
146.548660,5477.523971,7105.977043,-229.828649
146.548980,6143.709319,7624.121203,-536.266849
146.549301,6143.709319,7624.121203,-995.924147
146.549622,6809.894666,7698.141797,-1225.752797
146.549943,6661.853478,7772.162391,-1378.971896
146.550263,7105.977043,7254.018232,-1378.971896
146.550584,6217.729913,7994.224174,-1072.533697
146.550905,5921.647536,7550.100608,-1225.752797
146.551226,5403.503377,7994.224174,-995.924147
146.551546,5477.523971,7846.182985,-459.657299
146.551867,5033.400406,7624.121203,-612.876398
146.552188,5033.400406,8068.244768,-536.266849
146.552509,4589.276840,8216.285956,0.000000
146.552829,3849.070898,8142.265362,229.828649
146.553150,3997.112087,7920.203579,383.047749
146.553471,3330.926739,8216.285956,229.828649
146.553791,3701.029710,8808.450710,612.876398
146.554112,3552.988522,8808.450710,766.095498
146.554433,3775.050304,8438.347739,612.876398
146.554754,4071.132681,8734.430116,459.657299
146.555074,4293.194464,8438.347739,689.485948
146.555395,4219.173869,8808.450710,536.266849
146.555716,4367.215058,8290.306550,153.219100
146.556037,5181.441594,7846.182985,229.828649
146.556357,5551.544565,7550.100608,153.219100
146.556678,6143.709319,7254.018232,0.000000
146.556999,6217.729913,7328.038826,766.095498
146.557320,6217.729913,6735.874072,0.000000
146.557640,6513.812290,6513.812290,-689.485948
146.557961,7105.977043,6735.874072,-612.876398
146.558282,7254.018232,6809.894666,-1072.533697
146.558602,7624.121203,7105.977043,-1149.143247
146.558923,7476.080014,6883.915261,-1378.971896
146.559244,7402.059420,7254.018232,-1149.143247
146.559565,7105.977043,7328.038826,-1378.971896
146.559885,7105.977043,7328.038826,-1072.533697
146.560206,6513.812290,7476.080014,-1225.752797
146.560527,5477.523971,8216.285956,-1225.752797
146.560848,5181.441594,8290.306550,-919.314598
146.561168,4737.318029,8512.368333,0.000000
146.561489,3997.112087,8512.368333,383.047749
146.561810,3775.050304,8512.368333,306.438199
146.562131,2886.803174,9178.553681,0.000000
146.562452,2664.741391,9252.574275,0.000000
146.562773,2442.679609,9326.594869,842.705048
146.563093,2368.659014,9178.553681,1302.362347
146.563414,2442.679609,9474.636058,1608.800546
146.563735,2664.741391,8882.471304,1149.143247
146.564056,2590.720797,9400.615463,383.047749
146.564377,2812.782580,9178.553681,536.266849
146.564698,3552.988522,8956.491898,689.485948
146.565019,4145.153275,8734.430116,995.924147
146.565339,4663.297435,8512.368333,383.047749
146.565660,5033.400406,8586.388927,459.657299
146.565981,5255.462188,8290.306550,0.000000
146.566302,5625.565159,7772.162391,-459.657299
146.566623,5773.606348,7179.997637,-766.095498
146.566944,6291.750507,6883.915261,-383.047749
146.567264,6587.832884,7179.997637,-842.705048
146.567585,6809.894666,7402.059420,-995.924147
146.567906,7254.018232,7254.018232,-1302.362347
146.568227,7328.038826,6957.935855,-1072.533697
146.568548,6513.812290,6809.894666,-1225.752797
146.568869,6513.812290,7179.997637,-1378.971896
146.569190,6069.688724,7402.059420,-1455.581446
146.569510,5847.626942,7698.141797,-842.705048
146.569831,5551.544565,7624.121203,-229.828649
146.570152,5329.482782,7328.038826,0.000000
146.570473,4959.379811,7846.182985,-153.219100
146.570794,4219.173869,8142.265362,0.000000
146.571115,3701.029710,8660.409521,0.000000
146.571436,3775.050304,8290.306550,76.609550
146.571756,3478.967927,8364.327145,229.828649
146.572077,3404.947333,8512.368333,689.485948
146.572398,3404.947333,8660.409521,995.924147
146.572719,3256.906145,8734.430116,1072.533697
146.573040,3256.906145,8734.430116,842.705048
146.573361,3627.009116,8586.388927,306.438199
146.573681,4293.194464,8364.327145,459.657299
146.574002,4071.132681,8734.430116,383.047749
146.574323,4663.297435,8290.306550,689.485948
146.574644,5329.482782,7994.224174,459.657299
146.574965,5477.523971,7328.038826,76.609550
146.575286,5329.482782,7105.977043,-383.047749
146.575607,6217.729913,6735.874072,-383.047749
146.575927,6291.750507,7179.997637,-689.485948
146.576248,6957.935855,6809.894666,-612.876398
146.576569,6883.915261,7031.956449,-1072.533697
146.576890,7254.018232,7402.059420,-1225.752797
146.577211,7254.018232,7624.121203,-1915.238745
146.577532,7105.977043,7698.141797,-1608.800546
146.577852,6957.935855,7846.182985,-1532.190996
146.578173,6809.894666,7698.141797,-1455.581446
146.578494,5847.626942,8142.265362,-995.924147
146.578815,5847.626942,7920.203579,-383.047749
146.579136,5107.421000,8290.306550,0.000000
146.579457,4737.318029,8290.306550,0.000000
146.579778,4367.215058,8290.306550,-306.438199
146.580098,3627.009116,8512.368333,0.000000
146.580419,3256.906145,8512.368333,76.609550
146.580740,3330.926739,8882.471304,612.876398
146.581061,3108.864956,9104.533087,766.095498
146.581382,3034.844362,9252.574275,995.924147
146.581703,3108.864956,9400.615463,536.266849
146.582023,3034.844362,9622.677246,153.219100
146.582344,3478.967927,9474.636058,536.266849
146.582665,3923.091493,9178.553681,383.047749
146.582986,3849.070898,8882.471304,842.705048
146.583307,4219.173869,8512.368333,689.485948
146.583628,4515.256246,8808.450710,229.828649
146.583949,4885.359217,7772.162391,0.000000
146.584269,5181.441594,7179.997637,0.000000
146.584590,5625.565159,6883.915261,229.828649
146.584911,5921.647536,7105.977043,0.000000
146.585232,5995.668130,7105.977043,-306.438199
146.585553,6291.750507,7328.038826,-995.924147
146.585874,6809.894666,7698.141797,-1532.190996
146.586194,7031.956449,7476.080014,-1608.800546
146.586515,6513.812290,7402.059420,-1149.143247
146.586836,6587.832884,7550.100608,-612.876398
146.587157,6143.709319,7402.059420,-536.266849
146.587478,5551.544565,7328.038826,-766.095498
146.587799,5255.462188,7328.038826,-842.705048
146.588120,5477.523971,7550.100608,-1225.752797
146.588440,4885.359217,7624.121203,-459.657299
146.588761,4589.276840,7772.162391,153.219100
146.589082,4293.194464,8068.244768,459.657299
146.589403,3849.070898,7846.182985,536.266849
146.589724,3478.967927,8216.285956,459.657299
146.590045,3404.947333,8512.368333,306.438199
146.590366,3478.967927,8882.471304,306.438199
146.590686,3627.009116,8586.388927,459.657299
146.591007,3775.050304,8882.471304,306.438199
146.591328,3330.926739,9400.615463,536.266849
146.591649,3627.009116,9178.553681,459.657299
146.591970,3478.967927,8364.327145,689.485948
146.592291,4145.153275,8290.306550,536.266849
146.592611,4737.318029,7920.203579,689.485948
146.592932,5625.565159,8068.244768,-536.266849
146.593253,5403.503377,7772.162391,-612.876398
146.593574,5551.544565,7624.121203,-383.047749
146.593895,6143.709319,7328.038826,-383.047749
146.594216,6365.771101,7254.018232,-842.705048
146.594537,6883.915261,7031.956449,-612.876398
146.594857,7179.997637,7402.059420,-1302.362347
146.595178,6735.874072,7328.038826,-1455.581446
146.595499,7031.956449,7846.182985,-1302.362347
146.595820,7254.018232,7994.224174,-995.924147
146.596141,6883.915261,7624.121203,-1149.143247
146.596462,6587.832884,7846.182985,-1225.752797
146.596782,5995.668130,8438.347739,-995.924147
146.597103,5181.441594,8734.430116,-766.095498
146.597424,5107.421000,8512.368333,-536.266849
146.597745,4885.359217,8290.306550,-229.828649
146.598066,4663.297435,8586.388927,-153.219100
146.598387,3552.988522,9104.533087,-229.828649
146.598708,3034.844362,9696.697840,0.000000
146.599028,2886.803174,9252.574275,536.266849
146.599349,2960.823768,9178.553681,919.314598
146.599670,2960.823768,8808.450710,536.266849
146.599991,3034.844362,8956.491898,383.047749
146.600312,2812.782580,9326.594869,536.266849
146.600633,3330.926739,9104.533087,919.314598
146.600953,3478.967927,8290.306550,919.314598
146.601274,4071.132681,8734.430116,689.485948
146.601595,4663.297435,8660.409521,0.000000
146.601916,5033.400406,8882.471304,-229.828649
146.602237,5551.544565,8290.306550,-536.266849
146.602558,5921.647536,7994.224174,0.000000
146.602879,6069.688724,7105.977043,-229.828649
146.603199,6291.750507,6439.791695,-689.485948
146.603520,6291.750507,6883.915261,-919.314598
146.603841,6661.853478,7550.100608,-1225.752797
146.604162,6809.894666,7698.141797,-1225.752797
146.604483,6957.935855,7105.977043,-1072.533697
146.604804,6883.915261,6513.812290,-229.828649
146.605125,6513.812290,6809.894666,536.266849
146.605445,5773.606348,7254.018232,-306.438199
146.605766,5181.441594,7624.121203,-995.924147
146.606087,5403.503377,7624.121203,-766.095498
146.606408,5107.421000,7624.121203,-842.705048
146.606729,4959.379811,7846.182985,0.000000
146.607050,4663.297435,8586.388927,919.314598
146.607370,4219.173869,8438.347739,1225.752797
146.607691,3256.906145,7994.224174,536.266849
146.608012,2886.803174,8216.285956,0.000000
146.608333,3182.885551,8660.409521,0.000000
146.608654,3478.967927,8734.430116,612.876398
146.608975,3256.906145,8734.430116,1225.752797
146.609296,3404.947333,8882.471304,1302.362347
146.609616,3182.885551,8956.491898,995.924147
146.609937,3034.844362,8808.450710,306.438199
146.610258,3701.029710,8364.327145,306.438199
146.610579,4367.215058,8364.327145,383.047749
146.610900,5107.421000,7772.162391,612.876398
146.611221,5551.544565,7698.141797,306.438199
146.611541,5551.544565,7402.059420,76.609550
146.611862,5995.668130,7179.997637,0.000000
146.612183,5995.668130,6809.894666,-306.438199
146.612504,6735.874072,6883.915261,-1225.752797
146.612825,6661.853478,7254.018232,-536.266849
146.613146,7179.997637,7402.059420,-1608.800546
146.613467,7179.997637,7920.203579,-1762.019645
146.613787,6957.935855,7994.224174,-1608.800546
146.614108,7179.997637,7920.203579,-1455.581446
146.614429,6661.853478,7624.121203,-1225.752797
146.614750,6143.709319,7994.224174,-1378.971896
146.615071,5551.544565,8216.285956,-995.924147
146.615392,5329.482782,7698.141797,-383.047749
146.615712,5033.400406,7994.224174,0.000000
146.616033,4959.379811,8438.347739,229.828649
146.616354,3997.112087,8660.409521,-76.609550
146.616675,3478.967927,8882.471304,-383.047749
146.616996,3256.906145,9178.553681,0.000000
146.617317,3478.967927,9326.594869,689.485948
146.617638,3997.112087,8956.491898,689.485948
146.617958,3701.029710,9030.512492,459.657299
146.618279,3552.988522,9696.697840,-76.609550
146.618600,3330.926739,9844.739029,0.000000
146.618921,3478.967927,9622.677246,306.438199
146.619242,4293.194464,8882.471304,766.095498
146.619563,4441.235652,8808.450710,536.266849
146.619883,4959.379811,8438.347739,0.000000
146.620204,5181.441594,8068.244768,-229.828649
146.620525,5403.503377,7476.080014,0.000000
146.620846,5699.585753,7105.977043,-383.047749
146.621167,5699.585753,6513.812290,0.000000
146.621488,6587.832884,7031.956449,-306.438199
146.621809,6217.729913,7550.100608,-995.924147
146.622129,6661.853478,8068.244768,-1608.800546
146.622450,6957.935855,7624.121203,-1532.190996
146.622771,6957.935855,7402.059420,-1608.800546
146.623092,6587.832884,7550.100608,-995.924147
146.623413,6069.688724,7624.121203,-919.314598
146.623734,5773.606348,7994.224174,-689.485948
146.624055,5329.482782,7920.203579,-919.314598
146.624375,5403.503377,7846.182985,-1225.752797
146.624696,4737.318029,7994.224174,-536.266849
146.625017,4515.256246,7994.224174,-229.828649
146.625338,3701.029710,8216.285956,229.828649
146.625659,3552.988522,8068.244768,842.705048
146.625980,2960.823768,8142.265362,612.876398
146.626300,3182.885551,8438.347739,842.705048
146.626621,2812.782580,8956.491898,459.657299
146.626942,3182.885551,9104.533087,612.876398
146.627263,3478.967927,8660.409521,1072.533697
146.627584,3330.926739,9178.553681,842.705048
146.627905,3182.885551,8808.450710,919.314598
146.628226,3478.967927,8734.430116,536.266849
146.628546,3701.029710,8586.388927,766.095498
146.628867,4737.318029,8142.265362,919.314598
146.629188,5255.462188,7698.141797,612.876398
146.629509,5625.565159,6957.935855,536.266849
146.629830,6143.709319,7105.977043,842.705048
146.630151,5773.606348,6735.874072,459.657299
146.630471,6291.750507,6439.791695,0.000000
146.630792,7328.038826,6513.812290,-842.705048
146.631113,7476.080014,6661.853478,-919.314598
146.631434,7550.100608,6883.915261,-842.705048
146.631755,7698.141797,7031.956449,-766.095498
146.632076,7550.100608,7105.977043,-995.924147
146.632397,7328.038826,7105.977043,-1378.971896
146.632717,7105.977043,7402.059420,-1455.581446
146.633038,6735.874072,7624.121203,-1302.362347
146.633359,6217.729913,7920.203579,-919.314598
146.633680,6069.688724,8216.285956,-766.095498
146.634001,5107.421000,8142.265362,-229.828649
146.634322,4589.276840,8660.409521,459.657299
146.634642,3775.050304,8586.388927,0.000000
146.634963,2960.823768,8882.471304,0.000000
146.635284,2738.761985,9178.553681,459.657299
146.635605,2664.741391,9104.533087,1302.362347
146.635926,2812.782580,8956.491898,1455.581446
146.636247,2960.823768,9326.594869,612.876398
146.636568,2516.700203,9548.656652,383.047749
146.636888,2738.761985,9622.677246,383.047749
146.637209,3108.864956,9474.636058,306.438199
146.637530,3404.947333,9326.594869,919.314598
146.637851,4145.153275,9178.553681,612.876398
146.638172,4811.338623,8882.471304,229.828649
146.638493,4885.359217,8586.388927,-383.047749
146.638814,5033.400406,8290.306550,-842.705048
146.639134,5625.565159,7846.182985,-1302.362347
146.639455,6069.688724,7031.956449,-536.266849
146.639776,6439.791695,7031.956449,-842.705048
146.640097,6809.894666,7254.018232,-842.705048
146.640418,7031.956449,7550.100608,-919.314598
146.640739,7105.977043,7550.100608,-1838.629195
146.641059,7179.997637,7254.018232,-1762.019645
146.641380,7105.977043,7254.018232,-1225.752797
146.641701,6809.894666,7846.182985,-1072.533697
146.642022,6217.729913,8068.244768,-1072.533697
146.642343,5477.523971,8216.285956,-1378.971896
146.642664,5181.441594,7994.224174,-995.924147
146.642985,5107.421000,7920.203579,-612.876398
146.643305,4441.235652,8216.285956,-383.047749
146.643626,4145.153275,8882.471304,383.047749
146.643947,3478.967927,8734.430116,229.828649
146.644268,3182.885551,8734.430116,536.266849
146.644589,3182.885551,8438.347739,689.485948
146.644910,3034.844362,8734.430116,995.924147
146.645230,3478.967927,8882.471304,689.485948
146.645551,3404.947333,9030.512492,536.266849
146.645872,3552.988522,8956.491898,536.266849
146.646193,3552.988522,9030.512492,689.485948
146.646514,4145.153275,8660.409521,459.657299
146.646835,4441.235652,8734.430116,459.657299
146.647156,4959.379811,7994.224174,229.828649
146.647476,5551.544565,7550.100608,76.609550
146.647797,5625.565159,7254.018232,0.000000
146.648118,5995.668130,6809.894666,383.047749
146.648439,6439.791695,6439.791695,76.609550
146.648760,6883.915261,6439.791695,-459.657299
146.649081,6957.935855,6661.853478,-842.705048
146.649401,7254.018232,7031.956449,-1225.752797
146.649722,7698.141797,6957.935855,-1149.143247
146.650043,7476.080014,7402.059420,-1225.752797
146.650364,7402.059420,7179.997637,-842.705048
146.650685,7179.997637,7476.080014,-1072.533697
146.651006,6587.832884,7624.121203,-1302.362347
146.651327,5699.585753,7624.121203,-76.609550
146.651647,5403.503377,7624.121203,-612.876398
146.651968,5033.400406,7698.141797,0.000000
146.652289,4515.256246,7920.203579,306.438199
146.652610,4145.153275,7994.224174,383.047749
146.652931,3552.988522,8290.306550,766.095498
146.653252,3478.967927,8512.368333,612.876398
146.653572,2886.803174,8512.368333,612.876398
146.653893,3034.844362,8808.450710,919.314598
146.654214,2960.823768,9104.533087,766.095498
146.654535,2960.823768,9548.656652,1072.533697
146.654856,2960.823768,9622.677246,689.485948
146.655177,2886.803174,9622.677246,536.266849
146.655498,3330.926739,8956.491898,459.657299
146.655818,3775.050304,8956.491898,612.876398
146.656139,4441.235652,8290.306550,0.000000
146.656460,4293.194464,8438.347739,459.657299
146.656781,4811.338623,7994.224174,306.438199
146.657102,5255.462188,7624.121203,0.000000
146.657423,5551.544565,6809.894666,0.000000
146.657744,5995.668130,6957.935855,-229.828649
146.658064,6143.709319,7105.977043,-459.657299
146.658385,6661.853478,7624.121203,-995.924147
146.658706,6661.853478,7624.121203,-1225.752797
146.659027,6957.935855,7920.203579,-1608.800546
146.659348,6587.832884,7920.203579,-919.314598
146.659669,6587.832884,7920.203579,-995.924147
146.659989,6143.709319,7476.080014,-919.314598
146.660310,5625.565159,7846.182985,-842.705048
146.660631,5551.544565,7846.182985,-1149.143247
146.660952,5625.565159,7328.038826,-1149.143247
146.661273,4737.318029,8364.327145,-1225.752797
146.661594,4441.235652,8512.368333,-229.828649
146.661915,4145.153275,8438.347739,0.000000
146.662235,3552.988522,8142.265362,229.828649
146.662556,3256.906145,8734.430116,842.705048
146.662877,2960.823768,8734.430116,842.705048
146.663198,3034.844362,9030.512492,153.219100
146.663519,3478.967927,9178.553681,536.266849
146.663840,3849.070898,9104.533087,689.485948
146.664161,3849.070898,8956.491898,383.047749
146.664482,3923.091493,8808.450710,459.657299
146.664802,4071.132681,8512.368333,536.266849
146.665123,4737.318029,8216.285956,536.266849
146.665444,5403.503377,7846.182985,0.000000
146.665765,5921.647536,7698.141797,-536.266849
146.666086,5921.647536,7624.121203,-612.876398
146.666407,5921.647536,7179.997637,-76.609550
146.666728,6365.771101,6883.915261,-689.485948
146.667049,7179.997637,6809.894666,-689.485948
146.667369,7179.997637,7031.956449,-1072.533697
146.667690,7105.977043,6957.935855,-1608.800546
146.668011,7105.977043,7328.038826,-1608.800546
146.668332,7105.977043,7550.100608,-1225.752797
146.668653,7105.977043,7328.038826,-612.876398
146.668974,7031.956449,7624.121203,-919.314598
146.669295,6587.832884,7550.100608,-995.924147
146.669616,5403.503377,8364.327145,-1378.971896
146.669936,5107.421000,8290.306550,-1378.971896
146.670257,4959.379811,8290.306550,-536.266849
146.670578,4737.318029,8364.327145,76.609550
146.670899,4293.194464,8586.388927,229.828649
146.671220,3478.967927,8808.450710,459.657299
146.671541,2886.803174,9030.512492,306.438199
146.671862,2590.720797,9474.636058,842.705048
146.672182,2960.823768,8882.471304,1225.752797
146.672503,3182.885551,8882.471304,1378.971896
146.672824,3182.885551,9178.553681,612.876398
146.673145,3182.885551,9400.615463,153.219100
146.673466,3034.844362,9252.574275,842.705048
146.673787,3552.988522,8734.430116,536.266849
146.674108,4071.132681,8586.388927,766.095498
146.674429,4737.318029,8364.327145,306.438199
146.674749,4885.359217,8586.388927,-306.438199
146.675070,4737.318029,8438.347739,-306.438199
146.675391,5551.544565,8142.265362,-153.219100
146.675712,5329.482782,7105.977043,0.000000
146.676033,5625.565159,7031.956449,0.000000
146.676354,5773.606348,7031.956449,-842.705048
146.676675,6439.791695,7402.059420,-842.705048
146.676996,6439.791695,7254.018232,-1302.362347
146.677316,7031.956449,7031.956449,-995.924147
146.677637,6735.874072,7105.977043,-995.924147
146.677958,6439.791695,7402.059420,-536.266849
146.678279,5921.647536,7698.141797,-766.095498
146.678600,5477.523971,7920.203579,-842.705048
146.678921,5255.462188,7920.203579,-995.924147
146.679242,5033.400406,7846.182985,-689.485948
146.679563,4885.359217,7920.203579,153.219100
146.679883,4663.297435,8290.306550,842.705048
146.680204,3478.967927,8438.347739,536.266849
146.680525,3478.967927,8068.244768,153.219100
146.680846,3256.906145,8216.285956,229.828649
146.681167,2960.823768,8586.388927,612.876398
146.681488,3108.864956,8512.368333,229.828649
146.681809,3404.947333,8660.409521,766.095498
146.682129,3552.988522,9178.553681,459.657299
146.682450,3478.967927,9104.533087,536.266849
146.682771,3478.967927,8956.491898,459.657299
146.683092,3997.112087,8882.471304,612.876398
146.683413,4219.173869,8882.471304,153.219100
146.683734,4959.379811,8364.327145,229.828649
146.684055,5329.482782,7920.203579,0.000000
146.684376,5551.544565,7772.162391,76.609550
146.684696,5847.626942,6883.915261,306.438199
146.685017,6735.874072,6513.812290,0.000000
146.685338,6513.812290,7031.956449,-689.485948
146.685659,7105.977043,7105.977043,-1378.971896
146.685980,7550.100608,7476.080014,-1532.190996
146.686301,7624.121203,7328.038826,-1072.533697
146.686622,7476.080014,7254.018232,-1378.971896
146.686943,7402.059420,7402.059420,-1302.362347
146.687263,7031.956449,7772.162391,-1608.800546
146.687584,6143.709319,8068.244768,-1608.800546
146.687905,5995.668130,7772.162391,-1455.581446
146.688226,5847.626942,7772.162391,-919.314598
146.688547,5329.482782,7772.162391,0.000000
146.688868,4737.318029,7994.224174,0.000000
146.689189,4293.194464,7994.224174,-383.047749
146.689510,3701.029710,8068.244768,-229.828649
146.689830,3478.967927,8512.368333,153.219100
146.690151,3552.988522,8882.471304,536.266849
146.690472,3627.009116,9030.512492,689.485948
146.690793,3478.967927,9252.574275,536.266849
146.691114,3182.885551,9474.636058,383.047749
146.691435,3404.947333,9474.636058,689.485948
146.691756,3478.967927,9178.553681,383.047749
146.692076,3552.988522,8956.491898,306.438199
146.692397,4219.173869,8956.491898,76.609550
146.692718,4737.318029,8512.368333,76.609550
146.693039,4737.318029,7994.224174,153.219100
146.693360,4885.359217,7772.162391,76.609550
146.693681,5329.482782,7328.038826,0.000000
146.694002,5181.441594,7105.977043,-306.438199
146.694323,5921.647536,7328.038826,-306.438199
146.694643,6217.729913,7846.182985,-995.924147
146.694964,6661.853478,8290.306550,-1072.533697
146.695285,6661.853478,7698.141797,-1072.533697
146.695606,6365.771101,7846.182985,-995.924147
146.695927,6365.771101,7994.224174,-1072.533697
146.696248,5773.606348,8364.327145,-919.314598
146.696569,5255.462188,8142.265362,-689.485948
146.696890,5033.400406,7994.224174,-689.485948
146.697210,4811.338623,7920.203579,-459.657299
146.697531,4737.318029,7772.162391,-153.219100
146.697852,4293.194464,7994.224174,306.438199
146.698173,3775.050304,8512.368333,383.047749
146.698494,3404.947333,8290.306550,536.266849
146.698815,3330.926739,8438.347739,842.705048
146.699136,3182.885551,8734.430116,612.876398
146.699457,3404.947333,8808.450710,612.876398
146.699777,3552.988522,8808.450710,766.095498
146.700098,3849.070898,8586.388927,842.705048
146.700419,3701.029710,8660.409521,766.095498
146.700740,3849.070898,8438.347739,689.485948
146.701061,4145.153275,8068.244768,1225.752797
146.701382,4663.297435,7698.141797,1072.533697
146.701703,4811.338623,7254.018232,689.485948
146.702023,5773.606348,7105.977043,229.828649
146.702344,5921.647536,6883.915261,0.000000
146.702665,6069.688724,6957.935855,-306.438199
146.702986,6365.771101,6365.771101,-153.219100
146.703307,6957.935855,6513.812290,-536.266849
146.703628,7179.997637,6513.812290,-689.485948
146.703949,7179.997637,6661.853478,-1072.533697
146.704270,7328.038826,6809.894666,-1072.533697
146.704590,7254.018232,7105.977043,-1302.362347
146.704911,6735.874072,7476.080014,-1532.190996
146.705232,7031.956449,7105.977043,-1378.971896
146.705553,6661.853478,7179.997637,-1225.752797
146.705874,6143.709319,8142.265362,-919.314598
146.706195,5329.482782,8216.285956,-842.705048
146.706516,5255.462188,8216.285956,-612.876398
146.706837,4737.318029,8216.285956,0.000000
146.707157,3997.112087,8586.388927,306.438199
146.707478,3701.029710,9104.533087,-153.219100
146.707799,2886.803174,8956.491898,153.219100
146.708120,2738.761985,8882.471304,536.266849
146.708441,2664.741391,9178.553681,995.924147
146.708762,2886.803174,9252.574275,1302.362347
146.709083,2960.823768,9844.739029,766.095498
146.709404,3034.844362,9844.739029,306.438199
146.709724,3108.864956,9770.718434,612.876398
146.710045,3404.947333,9474.636058,383.047749
146.710366,3997.112087,9622.677246,995.924147
146.710687,4441.235652,9696.697840,383.047749
146.711008,4811.338623,9326.594869,-76.609550
146.711329,5255.462188,8438.347739,-383.047749
146.711650,5181.441594,8290.306550,-842.705048
146.711970,5477.523971,7328.038826,-612.876398
146.712291,6291.750507,7105.977043,-153.219100
146.712612,6217.729913,7105.977043,-536.266849
146.712933,6587.832884,7698.141797,-1225.752797
146.713254,6439.791695,7624.121203,-1762.019645
146.713575,6809.894666,7402.059420,-1838.629195
146.713896,7031.956449,7624.121203,-1072.533697
146.714217,6883.915261,7402.059420,-919.314598
146.714537,6587.832884,7772.162391,-306.438199
146.714858,5773.606348,7994.224174,-766.095498
146.715179,5181.441594,8216.285956,-306.438199
146.715500,5181.441594,7624.121203,-919.314598
146.715821,5107.421000,7772.162391,-383.047749
146.716142,4663.297435,8142.265362,0.000000
146.716463,4219.173869,8290.306550,76.609550
146.716784,3701.029710,8216.285956,229.828649
146.717104,3404.947333,8142.265362,229.828649
146.717425,3108.864956,8290.306550,1149.143247
146.717746,3404.947333,8364.327145,919.314598
146.718067,3552.988522,8438.347739,229.828649
146.718388,3256.906145,9030.512492,842.705048
146.718709,3404.947333,8956.491898,459.657299
146.719030,3775.050304,8956.491898,459.657299
146.719351,4219.173869,8586.388927,612.876398
146.719671,4663.297435,8216.285956,919.314598
146.719992,4737.318029,8142.265362,306.438199
146.720313,5329.482782,7328.038826,306.438199
146.720634,5403.503377,7328.038826,0.000000
146.720955,5921.647536,6661.853478,229.828649
146.721276,6291.750507,6439.791695,0.000000
146.721597,6661.853478,6661.853478,-919.314598
146.721917,7031.956449,6735.874072,-1149.143247
146.722238,7105.977043,6957.935855,-1072.533697
146.722559,7550.100608,6957.935855,-1072.533697
146.722880,7624.121203,7105.977043,-995.924147
146.723201,7402.059420,7105.977043,-612.876398
146.723522,7254.018232,7254.018232,-1302.362347
146.723843,6661.853478,7772.162391,-1455.581446
146.724164,6143.709319,7402.059420,-842.705048
146.724484,5847.626942,7772.162391,-76.609550
146.724805,5773.606348,7772.162391,-153.219100
146.725126,4885.359217,8068.244768,0.000000
146.725447,4293.194464,8142.265362,0.000000
146.725768,3923.091493,8142.265362,0.000000
146.726089,3404.947333,8290.306550,76.609550
146.726410,3256.906145,8956.491898,536.266849
146.726731,3108.864956,9030.512492,536.266849
146.727051,3552.988522,9326.594869,153.219100
146.727372,3256.906145,9696.697840,689.485948
146.727693,3108.864956,9770.718434,766.095498
146.728014,3256.906145,9474.636058,612.876398
146.728335,3256.906145,9104.533087,612.876398
146.728656,3923.091493,9104.533087,536.266849
146.728977,4145.153275,8290.306550,0.000000
146.729298,4811.338623,8438.347739,383.047749
146.729618,4811.338623,7994.224174,0.000000
146.729939,5033.400406,7624.121203,0.000000
146.730260,5403.503377,7179.997637,0.000000
146.730581,5625.565159,7105.977043,-612.876398
146.730902,5551.544565,7846.182985,-766.095498
146.731223,6069.688724,7920.203579,-995.924147
146.731544,6587.832884,7772.162391,-1072.533697
146.731864,6439.791695,7698.141797,-1072.533697
146.732185,6365.771101,7920.203579,-1072.533697
146.732506,6069.688724,7994.224174,-612.876398
146.732827,5773.606348,8142.265362,-1072.533697
146.733148,5107.421000,8068.244768,-995.924147
146.733469,4737.318029,7994.224174,-612.876398
146.733790,5181.441594,7772.162391,-383.047749
146.734111,4515.256246,8290.306550,-383.047749
146.734431,4367.215058,8290.306550,0.000000
146.734752,4071.132681,8364.327145,229.828649
146.735073,3775.050304,8290.306550,536.266849
146.735394,3330.926739,8734.430116,229.828649
146.735715,3404.947333,8808.450710,306.438199
146.736036,3701.029710,8734.430116,459.657299
146.736357,3923.091493,8734.430116,842.705048
146.736678,3552.988522,9104.533087,766.095498
146.736998,3701.029710,8512.368333,459.657299
146.737319,4071.132681,8438.347739,383.047749
146.737640,4441.235652,8216.285956,459.657299
146.737961,4885.359217,7846.182985,76.609550
146.738282,5699.585753,7402.059420,76.609550
146.738603,5847.626942,7031.956449,0.000000
146.738924,5847.626942,7105.977043,76.609550
146.739244,5921.647536,6735.874072,-229.828649
146.739565,6513.812290,6735.874072,-689.485948
146.739886,6883.915261,6291.750507,-612.876398
146.740207,7105.977043,6809.894666,-766.095498
146.740528,7328.038826,6809.894666,-1149.143247
146.740849,7254.018232,7179.997637,-1225.752797
146.741170,7254.018232,6957.935855,-1762.019645
146.741491,6957.935855,7179.997637,-1378.971896
146.741811,6957.935855,7105.977043,-1302.362347
146.742132,6143.709319,7698.141797,-919.314598
146.742453,5699.585753,8068.244768,-995.924147
146.742774,5403.503377,8142.265362,-689.485948
146.743095,5329.482782,8438.347739,-306.438199
146.743416,4367.215058,8364.327145,229.828649
146.743737,3849.070898,8660.409521,76.609550
146.744058,3182.885551,9104.533087,153.219100
146.744378,2886.803174,9030.512492,612.876398
146.744699,2886.803174,9178.553681,1149.143247
146.745020,3108.864956,8882.471304,1225.752797
146.745341,2812.782580,9178.553681,766.095498
146.745662,2960.823768,9770.718434,689.485948
146.745983,3034.844362,9474.636058,612.876398
146.746304,3478.967927,9400.615463,842.705048
146.746625,3701.029710,9104.533087,919.314598
146.746945,4071.132681,9104.533087,689.485948
146.747266,4663.297435,8882.471304,229.828649
146.747587,4737.318029,8808.450710,229.828649
146.747908,4959.379811,8364.327145,-153.219100
146.748229,5181.441594,7550.100608,0.000000
146.748550,5551.544565,7105.977043,-153.219100
146.748871,5921.647536,7105.977043,536.266849
146.749191,6143.709319,7550.100608,-766.095498
146.749512,6513.812290,7624.121203,-1378.971896
146.749833,6513.812290,7624.121203,-1762.019645
146.750154,6587.832884,7328.038826,-1302.362347
146.750475,6661.853478,7624.121203,-689.485948
146.750796,6069.688724,7920.203579,-536.266849
146.751117,5921.647536,7846.182985,-995.924147
146.751438,5477.523971,7772.162391,-1378.971896
146.751758,5033.400406,7920.203579,-995.924147
146.752079,4959.379811,7920.203579,0.000000
146.752400,5033.400406,7994.224174,0.000000
146.752721,4219.173869,8290.306550,383.047749
146.753042,3478.967927,8438.347739,76.609550
146.753363,3330.926739,8142.265362,153.219100
146.753684,3404.947333,8438.347739,383.047749
146.754005,3256.906145,8586.388927,842.705048
146.754325,3404.947333,8512.368333,842.705048
146.754646,3552.988522,8882.471304,536.266849
146.754967,3404.947333,8660.409521,459.657299
146.755288,3552.988522,8956.491898,612.876398
146.755609,4293.194464,9104.533087,306.438199
146.755930,4441.235652,8882.471304,153.219100
146.756251,4885.359217,8216.285956,229.828649
146.756572,5625.565159,7698.141797,0.000000
146.756892,5329.482782,7105.977043,0.000000
146.757213,5847.626942,7031.956449,0.000000
146.757534,6217.729913,6587.832884,153.219100
146.757855,6661.853478,6513.812290,-459.657299
146.758176,7105.977043,6809.894666,-1149.143247
146.758497,7402.059420,7031.956449,-536.266849
146.758818,7624.121203,6957.935855,-1149.143247
146.759138,7698.141797,7105.977043,-1302.362347
146.759459,7476.080014,7402.059420,-1455.581446
146.759780,7179.997637,7402.059420,-1685.410096
146.760101,6439.791695,8142.265362,-1608.800546
146.760422,6143.709319,7846.182985,-1378.971896
146.760743,5847.626942,7698.141797,-995.924147
146.761064,5477.523971,7994.224174,-536.266849
146.761385,5033.400406,8290.306550,-306.438199
146.761705,4145.153275,8586.388927,76.609550
146.762026,3849.070898,8512.368333,0.000000
146.762347,2886.803174,8660.409521,0.000000
146.762668,2812.782580,8808.450710,306.438199
146.762989,2886.803174,9474.636058,766.095498
146.763310,3034.844362,9696.697840,842.705048
146.763631,2960.823768,9844.739029,612.876398
146.763951,2960.823768,9844.739029,536.266849
146.764272,2738.761985,9696.697840,995.924147
146.764593,3108.864956,9918.759623,842.705048
146.764914,3627.009116,9104.533087,842.705048
146.765235,4219.173869,8882.471304,536.266849
146.765556,4515.256246,9104.533087,153.219100
146.765876,4663.297435,7920.203579,0.000000
146.766197,5033.400406,7772.162391,-229.828649
146.766518,5181.441594,7179.997637,-76.609550
146.766839,5921.647536,7031.956449,-383.047749
146.767160,6069.688724,7402.059420,-536.266849
146.767481,6587.832884,7698.141797,-1072.533697
146.767801,7031.956449,7328.038826,-1378.971896
146.768122,6957.935855,7476.080014,-1608.800546
146.768443,6883.915261,7328.038826,-1072.533697
146.768764,6587.832884,8142.265362,-1225.752797
146.769085,6143.709319,7698.141797,-919.314598
146.769406,5699.585753,7624.121203,-1149.143247
146.769726,5699.585753,7550.100608,-919.314598
146.770047,5107.421000,7476.080014,-689.485948
146.770368,5181.441594,7476.080014,0.000000
146.770689,4589.276840,7994.224174,383.047749
146.771010,3923.091493,8216.285956,612.876398
146.771330,3997.112087,8142.265362,459.657299
146.771651,3552.988522,8290.306550,612.876398
146.771972,3478.967927,8512.368333,612.876398
146.772293,3404.947333,8512.368333,689.485948
146.772614,3923.091493,8512.368333,1532.190996
146.772935,3701.029710,8660.409521,919.314598
146.773255,3627.009116,8660.409521,536.266849
146.773576,3701.029710,8512.368333,536.266849
146.773897,4071.132681,8364.327145,1072.533697
146.774218,4441.235652,8142.265362,536.266849
146.774539,5181.441594,7476.080014,612.876398
146.774860,5773.606348,7328.038826,76.609550
146.775180,5625.565159,7105.977043,0.000000
146.775501,5847.626942,6883.915261,0.000000
146.775822,6439.791695,6883.915261,-612.876398
146.776143,6883.915261,6587.832884,-766.095498
146.776464,7105.977043,6809.894666,-1072.533697
146.776785,7105.977043,7105.977043,-1149.143247
146.777105,7179.997637,7476.080014,-1302.362347
146.777426,6661.853478,7624.121203,-1455.581446
146.777747,6587.832884,7550.100608,-1838.629195
146.778068,6735.874072,7328.038826,-1378.971896
146.778389,6365.771101,7846.182985,-1149.143247
146.778710,5847.626942,8512.368333,-1072.533697
146.779030,5107.421000,8734.430116,-842.705048
146.779351,4811.338623,8660.409521,-459.657299
146.779672,4219.173869,8808.450710,0.000000
146.779993,3478.967927,8808.450710,536.266849
146.780314,3108.864956,8808.450710,306.438199
146.780635,2886.803174,8882.471304,383.047749
146.780955,2664.741391,9030.512492,766.095498
146.781276,2812.782580,9178.553681,842.705048
146.781597,3108.864956,9178.553681,1532.190996
146.781918,3108.864956,9474.636058,766.095498
146.782239,3330.926739,9696.697840,229.828649
146.782559,3552.988522,9400.615463,459.657299
146.782880,3997.112087,9104.533087,459.657299
146.783201,4515.256246,9326.594869,842.705048
146.783522,4811.338623,8882.471304,229.828649
146.783843,5255.462188,8808.450710,-536.266849
146.784164,5181.441594,8216.285956,-842.705048
146.784484,5551.544565,7994.224174,-306.438199
146.784805,5773.606348,6661.853478,0.000000
146.785126,6587.832884,6883.915261,-306.438199
146.785447,6439.791695,7179.997637,-612.876398
146.785768,6735.874072,7624.121203,-1072.533697
146.786089,6809.894666,7179.997637,-1455.581446
146.786409,7550.100608,7550.100608,-1991.848295
146.786730,6883.915261,7328.038826,-995.924147
146.787051,6661.853478,7402.059420,-459.657299
146.787372,6291.750507,7698.141797,-842.705048
146.787693,5995.668130,7698.141797,-1532.190996
146.788014,5625.565159,7328.038826,-689.485948
146.788334,5181.441594,7402.059420,-612.876398
146.788655,5181.441594,7772.162391,0.000000
146.788976,4663.297435,8142.265362,459.657299
146.789297,4145.153275,8068.244768,76.609550
146.789618,3701.029710,7994.224174,153.219100
146.789939,3627.009116,8364.327145,306.438199
146.790259,3404.947333,8216.285956,842.705048
146.790580,3404.947333,8364.327145,536.266849
146.790901,3627.009116,8364.327145,689.485948
146.791222,3627.009116,9326.594869,229.828649
146.791543,3478.967927,8882.471304,612.876398
146.791864,3775.050304,8512.368333,766.095498
146.792184,3997.112087,8586.388927,536.266849
146.792505,4515.256246,8290.306550,306.438199
146.792826,4959.379811,8216.285956,0.000000
146.793147,5107.421000,7402.059420,229.828649
146.793468,5477.523971,7105.977043,229.828649
146.793788,5773.606348,6957.935855,536.266849
146.794109,6365.771101,6735.874072,0.000000
146.794430,6365.771101,6957.935855,-1302.362347
146.794751,7105.977043,7105.977043,-995.924147
146.795072,7105.977043,7105.977043,-1149.143247
146.795393,7254.018232,7179.997637,-1225.752797
146.795713,7105.977043,7402.059420,-995.924147
146.796034,7105.977043,7920.203579,-1378.971896
146.796355,6365.771101,7698.141797,-1302.362347
146.796676,6069.688724,7846.182985,-1225.752797
146.796997,5477.523971,7846.182985,-842.705048
146.797318,5625.565159,7846.182985,-459.657299
146.797638,4885.359217,7994.224174,0.000000
146.797959,4293.194464,8290.306550,0.000000
146.798280,3775.050304,8364.327145,153.219100
146.798601,3997.112087,8216.285956,76.609550
146.798922,3404.947333,8734.430116,536.266849
146.799243,3478.967927,9178.553681,842.705048
146.799563,3034.844362,9474.636058,536.266849
146.799884,3108.864956,9548.656652,459.657299
146.800205,3256.906145,9992.780217,383.047749
146.800526,3404.947333,9474.636058,919.314598
146.800847,3256.906145,9326.594869,1378.971896
146.801168,3478.967927,9326.594869,919.314598
146.801488,3997.112087,8660.409521,689.485948
146.801809,4293.194464,8512.368333,76.609550
146.802130,4811.338623,7994.224174,0.000000
146.802451,5181.441594,7920.203579,229.828649
146.802772,5181.441594,7179.997637,76.609550
146.803093,5551.544565,7179.997637,-383.047749
146.803413,5921.647536,7179.997637,-459.657299
146.803734,6735.874072,7624.121203,-919.314598
146.804055,6883.915261,7402.059420,-1225.752797
146.804376,7105.977043,7254.018232,-1455.581446
146.804697,7105.977043,7402.059420,-1302.362347
146.805017,7031.956449,7772.162391,-1225.752797
146.805338,6587.832884,7698.141797,-919.314598
146.805659,6143.709319,8290.306550,-1149.143247
146.805980,5847.626942,7476.080014,-1072.533697
146.806301,5403.503377,7624.121203,-766.095498
146.806622,5477.523971,7328.038826,-459.657299
146.806942,4885.359217,7846.182985,-306.438199
146.807263,4071.132681,8290.306550,0.000000
146.807584,3923.091493,8364.327145,0.000000
146.807905,3701.029710,8364.327145,383.047749
146.808226,3478.967927,8290.306550,536.266849
146.808547,3404.947333,8586.388927,229.828649
146.808867,3701.029710,8512.368333,536.266849
146.809188,3627.009116,8586.388927,536.266849
146.809509,3330.926739,8734.430116,383.047749
146.809830,3775.050304,8660.409521,383.047749
146.810151,3997.112087,8808.450710,383.047749
146.810472,4441.235652,8512.368333,76.609550
146.810792,4811.338623,7698.141797,306.438199
146.811113,5403.503377,7550.100608,-229.828649
146.811434,5477.523971,7328.038826,76.609550
146.811755,5847.626942,7105.977043,76.609550
146.812076,5995.668130,7179.997637,-153.219100
146.812397,6587.832884,6883.915261,-536.266849
146.812717,6809.894666,7031.956449,-766.095498
146.813038,7105.977043,7105.977043,-1072.533697
146.813359,7105.977043,7105.977043,-1072.533697
146.813680,7254.018232,7179.997637,-995.924147
146.814001,6735.874072,7328.038826,-1838.629195
146.814322,6661.853478,7105.977043,-1608.800546
146.814642,6513.812290,7550.100608,-1302.362347
146.814963,5699.585753,8290.306550,-1225.752797
146.815284,5551.544565,8290.306550,-612.876398
146.815605,5255.462188,8290.306550,-842.705048
146.815926,4737.318029,8216.285956,-229.828649
146.816246,3923.091493,8956.491898,0.000000
146.816567,3552.988522,9178.553681,689.485948
146.816888,3404.947333,8882.471304,459.657299
146.817209,2960.823768,8734.430116,689.485948
146.817530,3034.844362,9030.512492,919.314598
146.817851,2738.761985,9104.533087,919.314598
146.818171,2960.823768,9326.594869,842.705048
146.818492,3108.864956,9770.718434,459.657299
146.818813,2886.803174,9474.636058,766.095498
146.819134,3330.926739,9178.553681,536.266849
146.819455,3775.050304,8956.491898,842.705048
146.819776,4663.297435,9030.512492,459.657299
146.820096,4663.297435,9326.594869,383.047749
146.820417,4959.379811,8290.306550,-612.876398
146.820738,5255.462188,7994.224174,-536.266849
146.821059,5477.523971,7105.977043,0.000000
146.821380,5773.606348,6735.874072,0.000000
146.821701,5995.668130,7105.977043,0.000000
146.822021,6661.853478,7328.038826,-689.485948
146.822342,6513.812290,7105.977043,-1532.190996
146.822663,7105.977043,6883.915261,-1378.971896
146.822984,7254.018232,7179.997637,-1072.533697
146.823305,6661.853478,7328.038826,-383.047749
146.823626,6883.915261,7328.038826,-689.485948
146.823946,5995.668130,7550.100608,-1225.752797
146.824267,5625.565159,7624.121203,-1378.971896
146.824588,5033.400406,7624.121203,-919.314598
146.824909,5921.647536,7254.018232,-536.266849
146.825230,4885.359217,7920.203579,76.609550
146.825551,4219.173869,8290.306550,153.219100
146.825871,3552.988522,8142.265362,0.000000
146.826192,3256.906145,8734.430116,76.609550
146.826513,3627.009116,8438.347739,842.705048
146.826834,3552.988522,8660.409521,995.924147
146.827155,3330.926739,8586.388927,383.047749
146.827475,3182.885551,8882.471304,536.266849
146.827796,3256.906145,9030.512492,536.266849
146.828117,3701.029710,8956.491898,612.876398
146.828438,3849.070898,8734.430116,689.485948
146.828759,4145.153275,8512.368333,459.657299
146.829080,4811.338623,8290.306550,153.219100
146.829400,5033.400406,8068.244768,0.000000
146.829721,5625.565159,7476.080014,76.609550
146.830042,6069.688724,7031.956449,76.609550
146.830363,6365.771101,7031.956449,-229.828649
146.830684,6735.874072,6883.915261,-919.314598
146.831005,6809.894666,7105.977043,-1149.143247
146.831325,7031.956449,7179.997637,-995.924147
146.831646,7402.059420,7179.997637,-1302.362347
146.831967,7105.977043,7402.059420,-1455.581446
146.832288,7105.977043,7698.141797,-1685.410096
146.832609,6809.894666,7920.203579,-1455.581446
146.832930,5847.626942,8364.327145,-1532.190996
146.833250,5403.503377,7698.141797,-1072.533697
146.833571,5107.421000,7994.224174,-383.047749
146.833892,4959.379811,8142.265362,0.000000
146.834213,4293.194464,8364.327145,-306.438199
146.834534,3923.091493,8808.450710,-306.438199
146.834855,3256.906145,8586.388927,0.000000
146.835175,2960.823768,8512.368333,383.047749
146.835496,2886.803174,8808.450710,995.924147
146.835817,3182.885551,9326.594869,1302.362347
146.836138,3478.967927,9400.615463,612.876398
146.836459,3034.844362,9548.656652,612.876398
146.836780,3034.844362,9548.656652,842.705048
146.837100,3552.988522,9400.615463,612.876398
146.837421,3627.009116,8882.471304,995.924147
146.837742,4589.276840,8586.388927,842.705048
146.838063,4737.318029,8512.368333,229.828649
146.838384,5107.421000,8068.244768,0.000000
146.838705,5329.482782,7550.100608,0.000000
146.839025,5847.626942,7550.100608,-306.438199
146.839346,5847.626942,6957.935855,0.000000
146.839667,6661.853478,7031.956449,-536.266849
146.839988,6365.771101,7402.059420,-766.095498
146.840309,7031.956449,7328.038826,-919.314598
146.840629,7105.977043,7105.977043,-1225.752797
146.840950,7179.997637,7031.956449,-919.314598
146.841271,7105.977043,7179.997637,-612.876398
146.841592,6735.874072,7402.059420,-766.095498
146.841913,6217.729913,7550.100608,-1149.143247
146.842234,5699.585753,7476.080014,-919.314598
146.842554,5551.544565,7402.059420,-612.876398
146.842875,5107.421000,7550.100608,-536.266849
146.843196,5255.462188,7624.121203,0.000000
146.843517,4737.318029,7846.182985,0.000000
146.843838,4071.132681,8068.244768,383.047749
146.844159,4071.132681,8068.244768,612.876398
146.844479,3330.926739,8290.306550,229.828649
146.844800,3182.885551,8734.430116,229.828649
146.845121,3330.926739,8512.368333,766.095498
146.845442,3404.947333,8808.450710,919.314598
146.845763,3478.967927,9252.574275,689.485948
146.846084,3256.906145,8882.471304,76.609550
146.846404,3108.864956,8882.471304,612.876398
146.846725,3552.988522,8660.409521,536.266849
146.847046,4219.173869,8438.347739,229.828649
146.847367,4811.338623,8216.285956,306.438199
146.847688,5107.421000,7846.182985,0.000000
146.848009,5033.400406,7550.100608,76.609550
146.848329,5329.482782,7328.038826,-153.219100
146.848650,5773.606348,7476.080014,-766.095498
146.848971,6513.812290,7402.059420,-919.314598
146.849292,6957.935855,7698.141797,-1225.752797
146.849613,6809.894666,7179.997637,-1072.533697
146.849934,7031.956449,7550.100608,-1225.752797
146.850254,6957.935855,7698.141797,-1532.190996
146.850575,6735.874072,7550.100608,-1072.533697
146.850896,6735.874072,7550.100608,-1225.752797
146.851217,6365.771101,7994.224174,-1225.752797
146.851538,5773.606348,8290.306550,-842.705048
146.851858,5403.503377,8438.347739,-1378.971896
146.852179,4959.379811,8956.491898,-383.047749
146.852500,4441.235652,8364.327145,76.609550
146.852821,4145.153275,8438.347739,0.000000
146.853142,3404.947333,8808.450710,76.609550
146.853463,3034.844362,9030.512492,383.047749
146.853783,2886.803174,8808.450710,995.924147
146.854104,3330.926739,8660.409521,842.705048
146.854425,3404.947333,8882.471304,689.485948
146.854746,3182.885551,9326.594869,459.657299
146.855067,3182.885551,9252.574275,1072.533697
146.855388,3404.947333,9252.574275,995.924147
146.855708,3775.050304,8512.368333,1225.752797
146.856029,4589.276840,8660.409521,459.657299
146.856350,4959.379811,8660.409521,459.657299
146.856671,5329.482782,8290.306550,-153.219100
146.856992,5255.462188,8142.265362,-612.876398
146.857313,5773.606348,7179.997637,0.000000
146.857633,6143.709319,6217.729913,76.609550
146.857954,6439.791695,6587.832884,0.000000
146.858275,6883.915261,6883.915261,-612.876398
146.858596,7105.977043,6735.874072,-1225.752797
146.858917,7402.059420,7105.977043,-1455.581446
146.859238,7179.997637,6883.915261,-1455.581446
146.859558,7179.997637,7105.977043,-766.095498
146.859879,6735.874072,7105.977043,-536.266849
146.860200,6143.709319,7920.203579,-1378.971896
146.860521,5847.626942,7624.121203,-1608.800546
146.860842,5403.503377,7550.100608,-1225.752797
146.861163,5107.421000,7772.162391,-689.485948
146.861483,4737.318029,8142.265362,0.000000
146.861804,4145.153275,8660.409521,383.047749
146.862125,3552.988522,8364.327145,229.828649
146.862446,3034.844362,8512.368333,229.828649
146.862767,2738.761985,8660.409521,383.047749
146.863087,3330.926739,8586.388927,1378.971896
146.863408,3182.885551,8734.430116,842.705048
146.863729,2960.823768,8808.450710,995.924147
146.864050,2886.803174,9030.512492,536.266849
146.864371,2960.823768,8882.471304,995.924147
146.864692,3849.070898,8734.430116,612.876398
146.865012,3997.112087,8734.430116,689.485948
146.865333,4663.297435,8734.430116,0.000000
146.865654,5181.441594,8142.265362,0.000000
146.865975,5329.482782,7476.080014,0.000000
146.866296,5699.585753,7476.080014,229.828649
146.866617,6069.688724,6957.935855,0.000000
146.866937,6661.853478,7105.977043,-689.485948
146.867258,6957.935855,7105.977043,-1455.581446
146.867579,7254.018232,7328.038826,-1072.533697
146.867900,7476.080014,7328.038826,-995.924147
146.868221,7550.100608,7105.977043,-1225.752797
146.868541,7402.059420,7179.997637,-995.924147
146.868862,7031.956449,7550.100608,-1225.752797
146.869183,6439.791695,7476.080014,-1378.971896
146.869504,5847.626942,8512.368333,-1072.533697
146.869825,5403.503377,8068.244768,-689.485948
146.870146,5107.421000,8068.244768,0.000000
146.870466,4663.297435,8216.285956,76.609550
146.870787,4219.173869,8438.347739,0.000000
146.871108,3552.988522,8438.347739,0.000000
146.871429,3182.885551,8586.388927,0.000000
146.871750,3034.844362,8512.368333,459.657299
146.872070,3256.906145,8808.450710,919.314598
146.872391,3404.947333,9104.533087,536.266849
146.872712,3478.967927,9178.553681,612.876398
146.873033,3330.926739,9474.636058,306.438199
146.873354,3404.947333,9326.594869,612.876398
146.873675,3775.050304,9104.533087,383.047749
146.873995,4219.173869,9030.512492,459.657299
146.874316,4663.297435,8956.491898,229.828649
146.874637,5107.421000,7846.182985,153.219100
146.874958,5403.503377,7254.018232,0.000000
146.875279,5847.626942,7105.977043,-612.876398
146.875600,5625.565159,6661.853478,-153.219100
146.875920,6143.709319,6809.894666,-459.657299
146.876241,6291.750507,7105.977043,-842.705048
146.876562,6957.935855,7179.997637,-995.924147
146.876883,6883.915261,7476.080014,-1225.752797
146.877204,7179.997637,7254.018232,-1378.971896
146.877524,7105.977043,7550.100608,-1072.533697
146.877845,6513.812290,7698.141797,-919.314598
146.878166,5995.668130,7698.141797,-1225.752797
146.878487,5847.626942,7402.059420,-1072.533697
146.878808,5329.482782,7698.141797,-919.314598
146.879129,5107.421000,7624.121203,-536.266849
146.879449,4737.318029,7994.224174,-306.438199
146.879770,4145.153275,8364.327145,153.219100
146.880091,3701.029710,8438.347739,229.828649
146.880412,3478.967927,8734.430116,306.438199
146.880733,3108.864956,8586.388927,229.828649
146.881053,2960.823768,8956.491898,612.876398
146.881374,3330.926739,9104.533087,612.876398
146.881695,3404.947333,9030.512492,689.485948
146.882016,2960.823768,9622.677246,689.485948
146.882337,2960.823768,9474.636058,612.876398
146.882658,3256.906145,9326.594869,383.047749
146.882978,3701.029710,8808.450710,229.828649
146.883299,4293.194464,8512.368333,536.266849
146.883620,4589.276840,8364.327145,383.047749
146.883941,4885.359217,7994.224174,0.000000
146.884262,5181.441594,7920.203579,-153.219100
146.884583,5107.421000,7698.141797,0.000000
146.884903,5551.544565,7254.018232,-459.657299
146.885224,6143.709319,7772.162391,-383.047749
146.885545,6365.771101,7624.121203,-612.876398
146.885866,6513.812290,7328.038826,-1072.533697
146.886187,6735.874072,7328.038826,-919.314598
146.886507,6661.853478,7476.080014,-995.924147
146.886828,6439.791695,7698.141797,-1225.752797
146.887149,6217.729913,7328.038826,-1225.752797
146.887470,6143.709319,7994.224174,-383.047749
146.887791,5773.606348,8068.244768,-766.095498
146.888112,5699.585753,8068.244768,-536.266849
146.888432,5625.565159,7920.203579,-689.485948
146.888753,4959.379811,7772.162391,0.000000
146.889074,4441.235652,8512.368333,0.000000
146.889395,3775.050304,8364.327145,383.047749
146.889716,4515.256246,8290.306550,-306.438199
146.890036,4145.153275,8068.244768,842.705048
146.890357,3923.091493,8364.327145,689.485948
146.890678,3997.112087,8142.265362,842.705048
146.890999,4145.153275,8586.388927,229.828649
146.891320,4367.215058,9400.615463,536.266849
146.891641,4441.235652,8512.368333,536.266849
146.891961,4737.318029,8364.327145,536.266849
146.892282,4959.379811,8364.327145,306.438199
146.892603,5551.544565,8364.327145,153.219100
146.892924,5921.647536,8216.285956,-383.047749
146.893245,5477.523971,7624.121203,-536.266849
146.893566,6069.688724,6957.935855,0.000000
146.893886,6217.729913,6365.771101,0.000000
146.894207,6439.791695,6291.750507,-306.438199
146.894528,6217.729913,6957.935855,-459.657299
146.894849,6587.832884,7402.059420,-1072.533697
146.895170,6735.874072,7328.038826,-1608.800546
146.895490,6809.894666,7105.977043,-1378.971896
146.895811,6365.771101,7920.203579,-842.705048
146.896132,6365.771101,8438.347739,-229.828649
146.896453,5551.544565,8512.368333,-536.266849
146.896774,5033.400406,8142.265362,-1302.362347
146.897095,4737.318029,8142.265362,-995.924147
146.897415,4663.297435,7698.141797,153.219100
146.897736,4441.235652,8734.430116,0.000000
146.898057,3552.988522,8734.430116,306.438199
146.898378,3256.906145,8808.450710,76.609550
146.898699,2960.823768,8438.347739,306.438199
146.899019,2738.761985,8586.388927,536.266849
146.899340,2886.803174,8808.450710,919.314598
146.899661,2886.803174,9252.574275,689.485948
146.899982,3182.885551,9178.553681,459.657299
146.900303,2664.741391,9400.615463,536.266849
146.900624,3182.885551,9178.553681,689.485948
146.900944,3552.988522,9178.553681,766.095498
146.901265,3997.112087,9178.553681,229.828649
146.901586,4293.194464,8808.450710,0.000000
146.901907,4737.318029,8290.306550,0.000000
146.902228,5255.462188,7624.121203,153.219100
146.902549,5551.544565,7105.977043,306.438199
146.902869,5699.585753,6957.935855,306.438199
146.903190,6291.750507,6661.853478,-689.485948
146.903511,6735.874072,6957.935855,-766.095498
146.903832,6957.935855,6883.915261,-1225.752797
146.904153,7254.018232,7031.956449,-459.657299
146.904473,7402.059420,7105.977043,-766.095498
146.904794,7476.080014,7105.977043,-1149.143247
146.905115,7105.977043,7254.018232,-1225.752797
146.905436,6587.832884,7624.121203,-1532.190996
146.905757,6143.709319,7624.121203,-1378.971896
146.906078,5995.668130,7698.141797,-842.705048
146.906398,5773.606348,7698.141797,-383.047749
146.906719,5403.503377,7846.182985,-153.219100
146.907040,4811.338623,8068.244768,0.000000
146.907361,4219.173869,7772.162391,0.000000
146.907682,3849.070898,8216.285956,-76.609550
146.908002,3552.988522,8512.368333,459.657299
146.908323,3923.091493,8512.368333,612.876398
146.908644,3627.009116,9030.512492,689.485948
146.908965,3478.967927,9252.574275,689.485948
146.909286,3478.967927,9474.636058,689.485948
146.909607,3256.906145,9474.636058,0.000000
146.909927,3552.988522,9104.533087,536.266849
146.910248,3701.029710,9178.553681,459.657299
146.910569,4145.153275,8956.491898,153.219100
146.910890,4293.194464,8586.388927,229.828649
146.911211,4663.297435,8512.368333,0.000000
146.911532,4811.338623,8142.265362,0.000000
146.911852,4885.359217,7698.141797,0.000000
146.912173,5255.462188,7254.018232,0.000000
146.912494,5551.544565,7328.038826,0.000000
146.912815,5773.606348,7846.182985,-383.047749
146.913136,6439.791695,7624.121203,-995.924147
146.913456,6513.812290,7550.100608,-842.705048
146.913777,6809.894666,7476.080014,-995.924147
146.914098,6365.771101,7920.203579,-1072.533697
146.914419,5995.668130,8068.244768,-229.828649
146.914740,5329.482782,7994.224174,-766.095498
146.915061,5329.482782,7772.162391,-919.314598
146.915381,5255.462188,7624.121203,-536.266849
146.915702,5107.421000,7624.121203,459.657299
146.916023,4663.297435,8068.244768,-536.266849
146.916344,4145.153275,8290.306550,0.000000
146.916665,3849.070898,8438.347739,-153.219100
146.916985,3552.988522,8364.327145,0.000000
146.917306,3552.988522,8512.368333,229.828649
146.917627,3108.864956,8734.430116,459.657299
146.917948,3552.988522,8882.471304,612.876398
146.918269,3552.988522,8512.368333,689.485948
146.918590,3478.967927,8956.491898,383.047749
146.918910,3627.009116,9104.533087,612.876398
146.919231,3997.112087,8808.450710,459.657299
146.919552,4441.235652,8216.285956,153.219100
146.919873,4885.359217,7846.182985,459.657299
146.920194,5477.523971,7550.100608,229.828649
146.920515,5403.503377,7254.018232,383.047749
146.920835,5699.585753,7179.997637,0.000000
146.921156,6217.729913,7105.977043,76.609550
146.921477,6661.853478,6957.935855,-536.266849
146.921798,7031.956449,6957.935855,-842.705048
146.922119,7179.997637,7105.977043,-995.924147
146.922439,7402.059420,6957.935855,-1072.533697
146.922760,7476.080014,7105.977043,-1072.533697
146.923081,7105.977043,7179.997637,-1532.190996
146.923402,7031.956449,7179.997637,-1225.752797
146.923723,7105.977043,7846.182985,-1149.143247
146.924044,6439.791695,7698.141797,-919.314598
146.924364,5847.626942,8142.265362,-766.095498
146.924685,5477.523971,8142.265362,-459.657299
146.925006,5033.400406,8290.306550,-306.438199
146.925327,4515.256246,8290.306550,229.828649
146.925648,3997.112087,8660.409521,76.609550
146.925968,3478.967927,8586.388927,0.000000
146.926289,3256.906145,8586.388927,536.266849
146.926610,3330.926739,8660.409521,1072.533697
146.926931,3256.906145,8586.388927,689.485948
146.927252,3256.906145,8882.471304,766.095498
146.927573,3034.844362,9474.636058,536.266849
146.927893,3182.885551,9178.553681,459.657299
146.928214,3478.967927,9030.512492,842.705048
146.928535,3923.091493,8882.471304,459.657299
146.928856,4145.153275,8956.491898,76.609550
146.929177,4737.318029,8882.471304,0.000000
146.929498,4959.379811,8290.306550,-766.095498
146.929818,4885.359217,8216.285956,-459.657299
146.930139,4959.379811,7328.038826,-153.219100
146.930460,5403.503377,7328.038826,-76.609550
146.930781,5551.544565,7254.018232,-383.047749
146.931102,5773.606348,7846.182985,-1072.533697
146.931422,5921.647536,7994.224174,-1532.190996
146.931743,6809.894666,7254.018232,-1608.800546
146.932064,6143.709319,7994.224174,-1302.362347
146.932385,5847.626942,7846.182985,-766.095498
146.932706,5699.585753,7994.224174,-689.485948
146.933027,5107.421000,8142.265362,-1302.362347
146.933347,4885.359217,7994.224174,-995.924147
146.933668,4737.318029,7772.162391,-536.266849
146.933989,4589.276840,8216.285956,0.000000
146.934310,4367.215058,8438.347739,459.657299
146.934631,3923.091493,8660.409521,229.828649
146.934951,3701.029710,8290.306550,229.828649
146.935272,3775.050304,8512.368333,153.219100
146.935593,3478.967927,8512.368333,536.266849
146.935914,3552.988522,8660.409521,919.314598
146.936235,4145.153275,8438.347739,919.314598
146.936556,3775.050304,8808.450710,459.657299
146.936876,3849.070898,8882.471304,766.095498
146.937197,4145.153275,8808.450710,766.095498
146.937518,4219.173869,8586.388927,536.266849
146.937839,4663.297435,8512.368333,153.219100
146.938160,5033.400406,7772.162391,0.000000
146.938481,5995.668130,7105.977043,153.219100
146.938801,5847.626942,7031.956449,153.219100
146.939122,5847.626942,6883.915261,536.266849
146.939443,6365.771101,6587.832884,-459.657299
146.939764,7031.956449,6513.812290,-689.485948
146.940085,7105.977043,7105.977043,-1225.752797
146.940405,7476.080014,6735.874072,-1149.143247
146.940726,7772.162391,7031.956449,-766.095498
146.941047,7328.038826,7105.977043,-1378.971896
146.941368,7105.977043,7105.977043,-1072.533697
146.941689,7179.997637,7105.977043,-1455.581446
146.942010,6513.812290,7402.059420,-919.314598
146.942330,5921.647536,7550.100608,-1072.533697
146.942651,5773.606348,7550.100608,-306.438199
146.942972,5403.503377,7624.121203,0.000000
146.943293,4737.318029,7920.203579,0.000000
146.943614,4293.194464,7772.162391,0.000000
146.943934,3552.988522,8290.306550,76.609550
146.944255,3478.967927,8290.306550,0.000000
146.944576,3404.947333,8660.409521,459.657299
146.944897,3552.988522,9030.512492,383.047749
146.945218,3775.050304,9326.594869,536.266849
146.945539,3108.864956,9622.677246,306.438199
146.945859,2960.823768,9622.677246,842.705048
146.946180,3108.864956,9696.697840,536.266849
146.946501,3478.967927,9104.533087,229.828649
146.946822,3849.070898,9326.594869,459.657299
146.947143,4145.153275,9030.512492,229.828649
146.947464,4293.194464,8512.368333,0.000000
146.947784,4589.276840,8142.265362,0.000000
146.948105,4885.359217,7550.100608,459.657299
146.948426,5107.421000,7402.059420,153.219100
146.948747,5255.462188,7328.038826,-306.438199
146.949068,5995.668130,7772.162391,-536.266849
146.949388,6365.771101,7772.162391,-1072.533697
146.949709,6661.853478,7920.203579,-1608.800546
146.950030,6735.874072,7698.141797,-1149.143247
146.950351,6735.874072,7846.182985,-1072.533697
146.950672,6735.874072,7994.224174,-766.095498
146.950993,5921.647536,7920.203579,-1149.143247
146.951313,5921.647536,7772.162391,-842.705048
146.951634,5255.462188,7994.224174,-766.095498
146.951955,5181.441594,7994.224174,-766.095498
146.952276,4811.338623,7846.182985,0.000000
146.952597,4441.235652,8364.327145,229.828649
146.952917,3997.112087,8956.491898,919.314598
146.953238,3478.967927,8438.347739,459.657299
146.953559,3256.906145,8734.430116,459.657299
146.953880,3478.967927,8734.430116,689.485948
146.954201,3552.988522,8512.368333,919.314598
146.954522,3404.947333,8882.471304,536.266849
146.954842,3775.050304,8734.430116,76.609550
146.955163,3478.967927,8734.430116,306.438199
146.955484,3849.070898,8438.347739,459.657299
146.955805,4219.173869,8290.306550,612.876398
146.956126,5255.462188,7550.100608,306.438199
146.956447,5403.503377,7624.121203,0.000000
146.956767,5773.606348,7105.977043,0.000000
146.957088,5847.626942,6809.894666,0.000000
146.957409,6291.750507,6587.832884,0.000000
146.957730,6735.874072,6957.935855,-229.828649
146.958051,7031.956449,6217.729913,-612.876398
146.958371,7476.080014,6513.812290,-1455.581446
146.958692,7328.038826,6587.832884,-995.924147
146.959013,7476.080014,6809.894666,-1072.533697
146.959334,7105.977043,7031.956449,-995.924147
146.959655,7179.997637,6809.894666,-1302.362347
146.959976,6809.894666,7105.977043,-1225.752797
146.960296,6143.709319,7476.080014,-1225.752797
146.960617,5995.668130,7994.224174,-536.266849
146.960938,5773.606348,8142.265362,-306.438199
146.961259,4959.379811,8290.306550,-153.219100
146.961580,4219.173869,8512.368333,0.000000
146.961900,3627.009116,8734.430116,306.438199
146.962221,3182.885551,8882.471304,153.219100
146.962542,2812.782580,9104.533087,306.438199
146.962863,2812.782580,8882.471304,536.266849
146.963184,2886.803174,8734.430116,766.095498
146.963505,3256.906145,8882.471304,919.314598
146.963825,3108.864956,9474.636058,766.095498
146.964146,3034.844362,9696.697840,842.705048
146.964467,3034.844362,9548.656652,459.657299
146.964788,3775.050304,9178.553681,919.314598
146.965109,4515.256246,8956.491898,459.657299
146.965430,4589.276840,9030.512492,153.219100
146.965750,5255.462188,8512.368333,-229.828649
146.966071,5181.441594,8364.327145,-536.266849
146.966392,5403.503377,7698.141797,-306.438199
146.966713,5847.626942,7105.977043,0.000000
146.967034,6365.771101,7105.977043,-153.219100
146.967354,6365.771101,7772.162391,-919.314598
146.967675,6291.750507,7920.203579,-995.924147
146.967996,6587.832884,7624.121203,-1838.629195
146.968317,6513.812290,7328.038826,-1225.752797
146.968638,6291.750507,7624.121203,0.000000
146.968958,6217.729913,7920.203579,-383.047749
146.969279,5699.585753,7772.162391,-1072.533697
146.969600,5181.441594,7994.224174,-1149.143247
146.969921,5181.441594,7550.100608,0.000000
146.970242,5181.441594,7550.100608,0.000000
146.970562,4663.297435,7920.203579,229.828649
146.970883,4219.173869,8068.244768,229.828649
146.971204,3701.029710,8438.347739,0.000000
146.971525,3849.070898,8216.285956,-153.219100
146.971846,3478.967927,8512.368333,536.266849
146.972166,3552.988522,8512.368333,766.095498
146.972487,3923.091493,8512.368333,689.485948
146.972808,3552.988522,8586.388927,536.266849
146.973129,3256.906145,9030.512492,689.485948
146.973450,3849.070898,8660.409521,536.266849
146.973771,4071.132681,8586.388927,459.657299
146.974091,4367.215058,8364.327145,536.266849
146.974412,4737.318029,7846.182985,153.219100
146.974733,5255.462188,7698.141797,306.438199
146.975054,5329.482782,7031.956449,153.219100
146.975375,5625.565159,6883.915261,459.657299
146.975695,5921.647536,6735.874072,76.609550
146.976016,6513.812290,6957.935855,-612.876398
146.976337,6809.894666,7031.956449,-1149.143247
146.976658,7105.977043,7105.977043,-1149.143247
146.976979,7402.059420,6735.874072,-919.314598
146.977299,7402.059420,6883.915261,-1149.143247
146.977620,7105.977043,7254.018232,-1455.581446
146.977941,6883.915261,7698.141797,-1532.190996
146.978262,6735.874072,7550.100608,-1685.410096
146.978583,6143.709319,7624.121203,-1225.752797
146.978903,5773.606348,7772.162391,-459.657299
146.979224,5773.606348,7846.182985,-612.876398
146.979545,5107.421000,7846.182985,0.000000
146.979866,4219.173869,8586.388927,-153.219100
146.980187,3627.009116,7994.224174,229.828649
146.980507,3330.926739,8438.347739,459.657299
146.980828,3034.844362,8512.368333,459.657299
146.981149,3256.906145,8882.471304,766.095498
146.981470,3034.844362,9326.594869,612.876398
146.981791,2886.803174,9622.677246,306.438199
146.982111,2960.823768,9844.739029,612.876398
146.982432,3182.885551,9548.656652,689.485948
146.982753,3034.844362,9400.615463,612.876398
146.983074,3552.988522,9326.594869,612.876398
146.983395,4145.153275,9252.574275,536.266849
146.983716,4737.318029,9326.594869,153.219100
146.984036,4959.379811,8216.285956,-76.609550
146.984357,5107.421000,7624.121203,-383.047749
146.984678,5403.503377,7328.038826,0.000000
146.984999,5921.647536,7476.080014,0.000000
146.985320,6143.709319,7476.080014,-306.438199
146.985640,6809.894666,7402.059420,-919.314598
146.985961,6809.894666,7402.059420,-1378.971896
146.986282,7031.956449,7402.059420,-1149.143247
146.986603,7105.977043,7550.100608,-842.705048
146.986924,7031.956449,7476.080014,-995.924147
146.987244,6439.791695,7920.203579,-995.924147
146.987565,5773.606348,7846.182985,-1149.143247
146.987886,5477.523971,7772.162391,-1225.752797
146.988207,5255.462188,7698.141797,-689.485948
146.988528,4959.379811,8068.244768,-76.609550
146.988848,4737.318029,8068.244768,0.000000
146.989169,4145.153275,8290.306550,153.219100
146.989490,3404.947333,8290.306550,229.828649
146.989811,3478.967927,8660.409521,536.266849
146.990132,3034.844362,8438.347739,766.095498
146.990452,3182.885551,8512.368333,1149.143247
146.990773,3256.906145,8586.388927,919.314598
146.991094,3330.926739,8734.430116,689.485948
146.991415,3108.864956,8734.430116,383.047749
146.991736,3923.091493,8734.430116,459.657299
146.992056,3775.050304,8512.368333,536.266849
146.992377,4515.256246,8216.285956,383.047749
146.992698,4811.338623,7550.100608,536.266849
146.993019,5403.503377,7624.121203,229.828649
146.993340,5699.585753,7179.997637,306.438199
146.993661,5847.626942,7105.977043,0.000000
146.993981,6291.750507,6735.874072,-383.047749
146.994302,7031.956449,6735.874072,-766.095498
146.994623,7254.018232,7031.956449,-689.485948
146.994944,7328.038826,7179.997637,-1072.533697
146.995265,7179.997637,7105.977043,-1072.533697
146.995585,6883.915261,7031.956449,-1302.362347
146.995906,6883.915261,7105.977043,-1302.362347
146.996227,6661.853478,7402.059420,-1532.190996
146.996548,6513.812290,7550.100608,-1302.362347
146.996869,6217.729913,7920.203579,-1072.533697
146.997189,5551.544565,7994.224174,-1225.752797
146.997510,5033.400406,7920.203579,-766.095498
146.997831,4959.379811,7920.203579,0.000000
146.998152,4145.153275,8512.368333,842.705048
146.998473,3775.050304,8586.388927,76.609550
146.998793,3034.844362,8882.471304,153.219100
146.999114,3182.885551,8734.430116,459.657299
146.999435,3256.906145,8808.450710,995.924147
146.999756,3404.947333,9030.512492,1149.143247
147.000077,3627.009116,9474.636058,536.266849
147.000397,3330.926739,9474.636058,306.438199
147.000718,3404.947333,9474.636058,536.266849
147.001039,3849.070898,9178.553681,689.485948
147.001360,4811.338623,9104.533087,229.828649
147.001681,4959.379811,8808.450710,76.609550
147.002001,5477.523971,8660.409521,-153.219100
147.002322,5255.462188,8216.285956,-306.438199
147.002643,5551.544565,7846.182985,-612.876398
147.002964,5773.606348,7328.038826,153.219100
147.003285,5995.668130,7179.997637,-229.828649
147.003606,6069.688724,7550.100608,-612.876398
147.003926,6143.709319,7624.121203,-1225.752797
147.004247,6513.812290,7698.141797,-1608.800546
147.004568,6661.853478,7698.141797,-1302.362347
147.004889,6661.853478,7624.121203,-919.314598
147.005210,6217.729913,8068.244768,-536.266849
147.005530,5699.585753,8364.327145,-1149.143247
147.005851,5181.441594,8068.244768,-1302.362347
147.006172,4811.338623,7772.162391,-612.876398
147.006493,4737.318029,7920.203579,-689.485948
147.006814,4441.235652,8216.285956,0.000000
147.007134,4071.132681,8438.347739,76.609550
147.007455,3478.967927,8438.347739,153.219100
147.007776,3849.070898,8438.347739,76.609550
147.008097,3108.864956,8364.327145,536.266849
147.008418,3182.885551,8512.368333,919.314598
147.008738,3478.967927,8364.327145,689.485948
147.009059,3552.988522,8512.368333,536.266849
147.009380,3478.967927,8734.430116,689.485948
147.009701,3330.926739,9030.512492,766.095498
147.010022,3552.988522,8586.388927,1149.143247
147.010342,4145.153275,8438.347739,612.876398
147.010663,4663.297435,8364.327145,0.000000
147.010984,5255.462188,8216.285956,0.000000
147.011305,5255.462188,7402.059420,76.609550
147.011626,5625.565159,7031.956449,459.657299
147.011946,5773.606348,6439.791695,306.438199
147.012267,6439.791695,6735.874072,-383.047749
147.012588,6735.874072,6957.935855,-995.924147
147.012909,7105.977043,7105.977043,-995.924147
147.013230,7402.059420,7105.977043,-842.705048
147.013551,7254.018232,7031.956449,-995.924147
147.013871,7254.018232,7328.038826,-995.924147
147.014192,6883.915261,7846.182985,-1149.143247
147.014513,6439.791695,7476.080014,-1608.800546
147.014834,5773.606348,7624.121203,-1302.362347
147.015155,5773.606348,7772.162391,-842.705048
147.015475,5699.585753,7772.162391,-306.438199
147.015796,4811.338623,8068.244768,153.219100
147.016117,4589.276840,8068.244768,-306.438199
147.016438,4071.132681,8364.327145,0.000000
147.016759,3478.967927,8512.368333,76.609550
147.017079,3034.844362,8808.450710,766.095498
147.017400,3478.967927,8734.430116,612.876398
147.017721,3775.050304,8882.471304,536.266849
147.018042,3478.967927,9474.636058,459.657299
147.018363,3404.947333,9770.718434,766.095498
147.018683,3182.885551,9844.739029,1072.533697
147.019004,3478.967927,9104.533087,766.095498
147.019325,4219.173869,9326.594869,536.266849
147.019646,4367.215058,8882.471304,229.828649
147.019967,4737.318029,8734.430116,0.000000
147.020287,4885.359217,7994.224174,0.000000
147.020608,5107.421000,7550.100608,0.000000
147.020929,5329.482782,7328.038826,0.000000
147.021250,5699.585753,7179.997637,-383.047749
147.021571,6069.688724,7105.977043,-536.266849
147.021891,6735.874072,7624.121203,-1532.190996
147.022212,6809.894666,7476.080014,-919.314598
147.022533,6883.915261,7476.080014,-1378.971896
147.022854,7105.977043,7328.038826,-1302.362347
147.023175,6883.915261,7772.162391,-689.485948
147.023496,6587.832884,7772.162391,-1149.143247
147.023816,5921.647536,7920.203579,-1072.533697
147.024137,5773.606348,7476.080014,-1072.533697
147.024458,5477.523971,7476.080014,-919.314598
147.024779,5329.482782,7624.121203,-383.047749
147.025100,4737.318029,7994.224174,-536.266849
147.025420,4219.173869,8216.285956,229.828649
147.025741,3701.029710,8438.347739,153.219100
147.026062,3552.988522,8438.347739,306.438199
147.026383,3182.885551,8734.430116,229.828649
147.026704,3256.906145,8882.471304,842.705048
147.027024,3256.906145,9030.512492,995.924147
147.027345,3256.906145,8882.471304,842.705048
147.027666,3108.864956,8660.409521,612.876398
147.027987,3182.885551,9104.533087,1072.533697
147.028308,3701.029710,8808.450710,919.314598
147.028628,4145.153275,8438.347739,536.266849
147.028949,4737.318029,8216.285956,306.438199
147.029270,5107.421000,7624.121203,153.219100
147.029591,5033.400406,7624.121203,766.095498
147.029912,5255.462188,7179.997637,383.047749
147.030232,5699.585753,6957.935855,153.219100
147.030553,6365.771101,7031.956449,-689.485948
147.030874,6661.853478,7179.997637,-919.314598
147.031195,7031.956449,6957.935855,-1072.533697
147.031516,7179.997637,7105.977043,-995.924147
147.031837,7254.018232,7105.977043,-1378.971896
147.032157,7105.977043,7105.977043,-1378.971896
147.032478,6809.894666,6883.915261,-1302.362347
147.032799,6587.832884,7624.121203,-1072.533697
147.033120,6069.688724,7698.141797,-1072.533697
147.033441,5699.585753,8142.265362,-995.924147
147.033761,5181.441594,7994.224174,-689.485948
147.034082,4885.359217,7994.224174,-76.609550
147.034403,4515.256246,8438.347739,0.000000
147.034724,3478.967927,8586.388927,306.438199
147.035045,3256.906145,8586.388927,229.828649
147.035365,3182.885551,8660.409521,306.438199
147.035686,3256.906145,8586.388927,919.314598
147.036007,3330.926739,8660.409521,995.924147
147.036328,3330.926739,9104.533087,612.876398
147.036649,3330.926739,9400.615463,689.485948
147.036969,3478.967927,9326.594869,766.095498
147.037290,3923.091493,9326.594869,536.266849
147.037611,4071.132681,9030.512492,689.485948
147.037932,4885.359217,8586.388927,612.876398
147.038253,5329.482782,9030.512492,0.000000
147.038573,5033.400406,8290.306550,-306.438199
147.038894,5477.523971,7920.203579,-612.876398
147.039215,5699.585753,7105.977043,-229.828649
147.039536,6217.729913,7031.956449,-306.438199
147.039857,6291.750507,7254.018232,-306.438199
147.040177,6809.894666,7624.121203,-995.924147
147.040498,6883.915261,7994.224174,-1762.019645
147.040819,7105.977043,7920.203579,-2068.457845
147.041140,6809.894666,7254.018232,-689.485948
147.041461,6735.874072,7920.203579,-1072.533697
147.041782,6069.688724,8142.265362,-842.705048
147.042102,5477.523971,7772.162391,-995.924147
147.042423,5033.400406,7920.203579,-1302.362347
147.042744,4959.379811,7846.182985,-689.485948
147.043065,4737.318029,7920.203579,0.000000
147.043386,3923.091493,8438.347739,153.219100
147.043706,3404.947333,8734.430116,229.828649
147.044027,3256.906145,8734.430116,306.438199
147.044348,2960.823768,8882.471304,306.438199
147.044669,3034.844362,8882.471304,536.266849
147.044990,3034.844362,9030.512492,842.705048
147.045310,3627.009116,8734.430116,766.095498
147.045631,3034.844362,8956.491898,383.047749
147.045952,3182.885551,8882.471304,919.314598
147.046273,3478.967927,9030.512492,842.705048
147.046594,3701.029710,8734.430116,612.876398
147.046914,4589.276840,8734.430116,153.219100
147.047235,5255.462188,8216.285956,0.000000
147.047556,5477.523971,7550.100608,0.000000
147.047877,5699.585753,7031.956449,153.219100
147.048198,6069.688724,6809.894666,536.266849
147.048518,6513.812290,6661.853478,-306.438199
147.048839,7105.977043,6587.832884,-995.924147
147.049160,7550.100608,6883.915261,-1608.800546
147.049481,7772.162391,6809.894666,-1149.143247
147.049802,7994.224174,6809.894666,-1225.752797
147.050122,7624.121203,7105.977043,-1455.581446
147.050443,7254.018232,6809.894666,-1302.362347
147.050764,7105.977043,6957.935855,-1685.410096
147.051085,6735.874072,7624.121203,-1532.190996
147.051406,5995.668130,7550.100608,-1149.143247
147.051727,5773.606348,7624.121203,-536.266849
147.052047,5551.544565,7846.182985,0.000000
147.052368,4737.318029,7846.182985,0.000000
147.052689,4071.132681,8438.347739,0.000000
147.053010,3404.947333,8586.388927,0.000000
147.053331,3182.885551,8660.409521,229.828649
147.053651,3256.906145,8808.450710,689.485948
147.053972,3182.885551,9104.533087,459.657299
147.054293,3404.947333,9770.718434,689.485948
147.054614,2664.741391,9918.759623,919.314598
147.054935,2886.803174,9622.677246,536.266849
147.055255,2886.803174,9696.697840,612.876398
147.055576,3182.885551,9400.615463,919.314598
147.055897,3701.029710,9326.594869,612.876398
147.056218,4293.194464,8808.450710,76.609550
147.056539,4589.276840,8364.327145,0.000000
147.056859,4737.318029,7846.182985,153.219100
147.057180,4885.359217,7550.100608,76.609550
147.057501,5403.503377,7105.977043,0.000000
147.057822,6217.729913,7254.018232,-689.485948
147.058143,6291.750507,7328.038826,-1072.533697
147.058463,7031.956449,7476.080014,-1378.971896
147.058784,7105.977043,7328.038826,-1378.971896
147.059105,7105.977043,7254.018232,-1455.581446
147.059426,7179.997637,7254.018232,-1149.143247
147.059747,6661.853478,7624.121203,-1225.752797
147.060067,6217.729913,7698.141797,-1608.800546
147.060388,6069.688724,7624.121203,-1455.581446
147.060709,5995.668130,7105.977043,-383.047749
147.061030,5551.544565,7476.080014,-1149.143247
147.061351,4737.318029,8142.265362,-229.828649
147.061672,4145.153275,8290.306550,0.000000
147.061992,3627.009116,8290.306550,153.219100
147.062313,2960.823768,8290.306550,306.438199
147.062634,2960.823768,8734.430116,229.828649
147.062955,3108.864956,8808.450710,689.485948
147.063276,2960.823768,9030.512492,842.705048
147.063596,2590.720797,9400.615463,689.485948
147.063917,2664.741391,9326.594869,612.876398
147.064238,2812.782580,9178.553681,919.314598
147.064559,3404.947333,9104.533087,459.657299
147.064880,3627.009116,8882.471304,536.266849
147.065200,4367.215058,8512.368333,383.047749
147.065521,4959.379811,8438.347739,383.047749
147.065842,5107.421000,7698.141797,76.609550
147.066163,5329.482782,7328.038826,0.000000
147.066484,5699.585753,7105.977043,0.000000
147.066805,6069.688724,6735.874072,0.000000
147.067126,6735.874072,6957.935855,-689.485948
147.067447,7328.038826,7179.997637,-1072.533697
147.067767,7105.977043,7105.977043,-1225.752797
147.068088,7328.038826,7105.977043,-1455.581446
147.068409,7328.038826,7254.018232,-1378.971896
147.068730,7254.018232,6809.894666,-1608.800546
147.069051,7402.059420,7105.977043,-1149.143247
147.069372,6883.915261,7402.059420,-1378.971896
147.069693,5995.668130,7994.224174,-1532.190996
147.070014,5995.668130,7698.141797,-689.485948
147.070335,5773.606348,7846.182985,0.000000
147.070655,4885.359217,7994.224174,0.000000
147.070976,4441.235652,7994.224174,0.000000
147.071297,3997.112087,8068.244768,0.000000
147.071618,3701.029710,8512.368333,229.828649
147.071939,3775.050304,8364.327145,995.924147
147.072260,3775.050304,8216.285956,995.924147
147.072581,4071.132681,8512.368333,842.705048
147.072902,3997.112087,8882.471304,383.047749
147.073222,3997.112087,8882.471304,459.657299
147.073543,4145.153275,8512.368333,536.266849
147.073864,4589.276840,8512.368333,689.485948
147.074185,5181.441594,8586.388927,612.876398
147.074506,5033.400406,8734.430116,0.000000
147.074827,5181.441594,8438.347739,-306.438199
147.075148,5255.462188,7994.224174,-383.047749
147.075469,5551.544565,7476.080014,-459.657299
147.075789,5551.544565,7254.018232,0.000000
147.076110,5921.647536,7550.100608,0.000000
147.076431,5995.668130,7920.203579,-995.924147
147.076752,5921.647536,7772.162391,-1378.971896
147.077073,5995.668130,7698.141797,-1302.362347
147.077394,5995.668130,7920.203579,-1149.143247
147.077715,5625.565159,7994.224174,-612.876398
147.078036,5477.523971,8364.327145,-306.438199
147.078357,4959.379811,8290.306550,-842.705048
147.078677,4515.256246,8364.327145,-995.924147
147.078998,4441.235652,7994.224174,-842.705048
147.079319,3997.112087,8142.265362,0.000000
147.079640,3923.091493,8586.388927,1225.752797
147.079961,3775.050304,8882.471304,383.047749
147.080282,3330.926739,8586.388927,76.609550
147.080603,3108.864956,8586.388927,383.047749
147.080924,3256.906145,8586.388927,919.314598
147.081244,3552.988522,8660.409521,766.095498
147.081565,3552.988522,8512.368333,612.876398
147.081886,3627.009116,8512.368333,536.266849
147.082207,3552.988522,8808.450710,612.876398
147.082528,3923.091493,8586.388927,766.095498
147.082849,4367.215058,8586.388927,612.876398
147.083170,4737.318029,8438.347739,229.828649
147.083491,5403.503377,8068.244768,0.000000
147.083811,5773.606348,7550.100608,-306.438199
147.084132,5699.585753,7550.100608,0.000000
147.084453,5995.668130,6809.894666,0.000000
147.084774,6217.729913,6809.894666,-306.438199
147.085095,6957.935855,6513.812290,-766.095498
147.085416,7031.956449,7031.956449,-1149.143247
147.085737,7105.977043,7105.977043,-1072.533697
147.086058,7550.100608,7105.977043,-1302.362347
147.086379,7105.977043,6957.935855,-995.924147
147.086699,7105.977043,7328.038826,-1225.752797
147.087020,6513.812290,7476.080014,-1225.752797
147.087341,6217.729913,7846.182985,-1149.143247
147.087662,5551.544565,7920.203579,-919.314598
147.087983,5403.503377,7846.182985,-536.266849
147.088304,4959.379811,7772.162391,-306.438199
147.088625,4737.318029,8068.244768,76.609550
147.088946,3775.050304,8290.306550,0.000000
147.089266,3701.029710,8512.368333,153.219100
147.089587,3330.926739,8364.327145,306.438199
147.089908,3034.844362,9030.512492,306.438199
147.090229,3404.947333,9030.512492,612.876398
147.090550,3108.864956,9474.636058,383.047749
147.090871,3034.844362,9696.697840,459.657299
147.091192,2960.823768,9992.780217,306.438199
147.091513,2886.803174,9696.697840,842.705048
147.091833,3552.988522,9770.718434,0.000000
147.092154,3849.070898,8956.491898,766.095498
147.092475,4441.235652,8882.471304,0.000000
147.092796,4515.256246,8660.409521,0.000000
147.093117,4663.297435,8290.306550,0.000000
147.093438,5033.400406,7920.203579,153.219100
147.093759,5033.400406,7328.038826,0.000000
147.094080,5625.565159,7254.018232,-153.219100
147.094400,5699.585753,7698.141797,-689.485948
147.094721,6217.729913,7698.141797,-1149.143247
147.095042,6513.812290,7402.059420,-919.314598
147.095363,6735.874072,7402.059420,-1225.752797
147.095684,6735.874072,7698.141797,-1302.362347
147.096005,6661.853478,7920.203579,-995.924147
147.096326,6217.729913,7402.059420,-612.876398
147.096647,6217.729913,7920.203579,-1072.533697
147.096968,5773.606348,7402.059420,-995.924147
147.097288,5403.503377,7254.018232,-689.485948
147.097609,5329.482782,7476.080014,-306.438199
147.097930,4811.338623,8290.306550,0.000000
147.098251,4441.235652,8216.285956,383.047749
147.098572,3997.112087,8216.285956,0.000000
147.098893,3775.050304,8438.347739,0.000000
147.099214,3701.029710,8438.347739,383.047749
147.099535,3849.070898,8068.244768,459.657299
147.099855,3997.112087,8512.368333,459.657299
147.100176,3849.070898,8586.388927,459.657299
147.100497,3478.967927,8808.450710,306.438199
147.100818,3997.112087,8734.430116,459.657299
147.101139,4145.153275,8808.450710,536.266849
147.101460,4737.318029,8586.388927,229.828649
147.101781,5107.421000,7846.182985,459.657299
147.102102,5625.565159,7550.100608,0.000000
147.102422,5847.626942,7254.018232,229.828649
147.102743,5921.647536,7031.956449,0.000000
147.103064,6365.771101,6661.853478,-153.219100
147.103385,6661.853478,7031.956449,-383.047749
147.103706,7328.038826,6957.935855,-766.095498
147.104027,7328.038826,7105.977043,-1225.752797
147.104348,7328.038826,7328.038826,-1072.533697
147.104669,7105.977043,7254.018232,-995.924147
147.104990,7179.997637,7179.997637,-1225.752797
147.105310,7031.956449,7328.038826,-1302.362347
147.105631,6587.832884,7846.182985,-1378.971896
147.105952,5773.606348,8142.265362,-842.705048
147.106273,5551.544565,8364.327145,-766.095498
147.106594,4959.379811,8290.306550,-536.266849
147.106915,4515.256246,8438.347739,0.000000
147.107236,4145.153275,8364.327145,76.609550
147.107557,3256.906145,8660.409521,0.000000
147.107877,2738.761985,8734.430116,459.657299
147.108198,2812.782580,8882.471304,612.876398
147.108519,2664.741391,8882.471304,766.095498
147.108840,2812.782580,8956.491898,536.266849
147.109161,2738.761985,9770.718434,612.876398
147.109482,3034.844362,9548.656652,306.438199
147.109803,2960.823768,9474.636058,459.657299
147.110124,3478.967927,9178.553681,612.876398
147.110444,3923.091493,9400.615463,76.609550
147.110765,4367.215058,9326.594869,153.219100
147.111086,4737.318029,8956.491898,-153.219100
147.111407,4663.297435,8512.368333,-383.047749
147.111728,5255.462188,7550.100608,-536.266849
147.112049,5255.462188,7105.977043,-229.828649
147.112370,5847.626942,7105.977043,-306.438199
147.112691,5773.606348,7402.059420,-689.485948
147.113011,6217.729913,7476.080014,-1149.143247
147.113332,6439.791695,7402.059420,-1455.581446
147.113653,6217.729913,7920.203579,-1225.752797
147.113974,6365.771101,7772.162391,-919.314598
147.114295,6217.729913,7846.182985,-689.485948
147.114616,5699.585753,7920.203579,-842.705048
147.114937,5551.544565,7772.162391,-1225.752797
147.115258,5033.400406,7846.182985,-842.705048
147.115579,4885.359217,7920.203579,-229.828649
147.115899,4737.318029,8068.244768,0.000000
147.116220,4515.256246,8216.285956,229.828649
147.116541,4145.153275,8068.244768,383.047749
147.116862,3997.112087,7994.224174,383.047749
147.117183,3849.070898,8216.285956,689.485948
147.117504,3775.050304,8364.327145,612.876398
147.117825,4145.153275,8142.265362,536.266849
147.118146,4145.153275,8290.306550,919.314598
147.118466,3997.112087,8808.450710,459.657299
147.118787,4219.173869,8512.368333,842.705048
147.119108,4441.235652,8734.430116,459.657299
147.119429,4589.276840,8364.327145,153.219100
147.119750,5255.462188,7920.203579,0.000000
147.120071,5477.523971,7698.141797,76.609550
147.120392,5625.565159,7105.977043,0.000000
147.120713,5551.544565,7031.956449,76.609550
147.121033,5625.565159,6957.935855,229.828649
147.121354,5921.647536,6661.853478,-612.876398
147.121675,6365.771101,7179.997637,-842.705048
147.121996,7105.977043,7105.977043,-1225.752797
147.122317,7105.977043,7105.977043,-919.314598
147.122638,7254.018232,7328.038826,-995.924147
147.122959,7031.956449,7550.100608,-1072.533697
147.123280,6365.771101,7846.182985,-1532.190996
147.123601,6513.812290,7550.100608,-1532.190996
147.123921,5773.606348,7994.224174,-1225.752797
147.124242,5625.565159,8364.327145,-1072.533697
147.124563,5329.482782,8142.265362,-306.438199
147.124884,5181.441594,8142.265362,0.000000
147.125205,4515.256246,8216.285956,-76.609550
147.125526,3701.029710,8438.347739,-229.828649
147.125847,3404.947333,8586.388927,0.000000
147.126168,3256.906145,8808.450710,0.000000
147.126488,3330.926739,8956.491898,459.657299
147.126809,3404.947333,9400.615463,383.047749
147.127130,3256.906145,9770.718434,383.047749
147.127451,2960.823768,9992.780217,689.485948
147.127772,2886.803174,9770.718434,612.876398
147.128093,2812.782580,9548.656652,919.314598
147.128414,3478.967927,9178.553681,919.314598
147.128735,3997.112087,9104.533087,536.266849
147.129055,4219.173869,9030.512492,612.876398
147.129376,4737.318029,8290.306550,153.219100
147.129697,4885.359217,7772.162391,0.000000
147.130018,5255.462188,7105.977043,76.609550
147.130339,5625.565159,6957.935855,76.609550
147.130660,5995.668130,7105.977043,0.000000
147.130981,6365.771101,7254.018232,-306.438199
147.131302,7254.018232,7402.059420,-1149.143247
147.131622,7254.018232,7328.038826,-1302.362347
147.131943,7328.038826,6957.935855,-1149.143247
147.132264,7179.997637,7550.100608,-995.924147
147.132585,6809.894666,7254.018232,-1225.752797
147.132906,6661.853478,7105.977043,-1302.362347
147.133227,6217.729913,7328.038826,-1302.362347
147.133548,6217.729913,7105.977043,-689.485948
147.133869,5699.585753,7105.977043,-383.047749
147.134190,5329.482782,7698.141797,0.000000
147.134510,4367.215058,7624.121203,229.828649
147.134831,3775.050304,7994.224174,76.609550
147.135152,3627.009116,8068.244768,229.828649
147.135473,3330.926739,8142.265362,689.485948
147.135794,3627.009116,8586.388927,842.705048
147.136115,3478.967927,8512.368333,689.485948
147.136436,3478.967927,8660.409521,612.876398
147.136757,3330.926739,8586.388927,612.876398
147.137077,3330.926739,8808.450710,995.924147
147.137398,3849.070898,8660.409521,1072.533697
147.137719,4219.173869,8438.347739,766.095498
147.138040,4737.318029,8142.265362,153.219100
147.138361,5181.441594,7994.224174,0.000000
147.138682,5255.462188,7772.162391,0.000000
147.139003,5477.523971,7476.080014,383.047749
147.139324,5699.585753,7476.080014,76.609550
147.139644,6365.771101,7105.977043,-536.266849
147.139965,6365.771101,7402.059420,-919.314598
147.140286,7031.956449,7698.141797,-919.314598
147.140607,6883.915261,7550.100608,-1225.752797
147.140928,6957.935855,7402.059420,-1378.971896
147.141249,6661.853478,7772.162391,-1378.971896
147.141570,6661.853478,7402.059420,-1225.752797
147.141891,6217.729913,7772.162391,-1378.971896
147.142212,5625.565159,8364.327145,-1149.143247
147.142532,5255.462188,8364.327145,-842.705048
147.142853,5255.462188,8290.306550,-689.485948
147.143174,4441.235652,8512.368333,-229.828649
147.143495,4219.173869,8512.368333,0.000000
147.143816,3404.947333,8956.491898,0.000000
147.144137,3034.844362,8882.471304,0.000000
147.144458,2886.803174,8882.471304,612.876398
147.144779,3330.926739,9104.533087,459.657299
147.145099,3330.926739,8882.471304,536.266849
147.145420,3256.906145,9326.594869,919.314598
147.145741,3256.906145,9326.594869,536.266849
147.146062,3256.906145,9252.574275,459.657299
147.146383,3775.050304,9030.512492,1072.533697
147.146704,4219.173869,8734.430116,612.876398
147.147025,4737.318029,8808.450710,842.705048
147.147346,5033.400406,8586.388927,0.000000
147.147666,5329.482782,8438.347739,0.000000
147.147987,5477.523971,7698.141797,-76.609550
147.148308,5551.544565,7031.956449,0.000000
147.148629,6143.709319,6587.832884,0.000000
147.148950,6217.729913,6883.915261,-612.876398
147.149271,6809.894666,7328.038826,-1149.143247
147.149592,6883.915261,7624.121203,-1532.190996
147.149913,6957.935855,7105.977043,-1225.752797
147.150234,7179.997637,7105.977043,-1149.143247
147.150554,6809.894666,7254.018232,-612.876398
147.150875,6143.709319,7772.162391,-1149.143247
147.151196,5699.585753,7624.121203,-1532.190996
147.151517,5403.503377,7550.100608,-1302.362347
147.151838,5329.482782,7476.080014,-536.266849
147.152159,5181.441594,7624.121203,0.000000
147.152480,4737.318029,7994.224174,153.219100
147.152801,4219.173869,8216.285956,229.828649
147.153121,3627.009116,8142.265362,0.000000
147.153442,3404.947333,8512.368333,459.657299
147.153763,3849.070898,8586.388927,995.924147
147.154084,3701.029710,8216.285956,919.314598
147.154405,3775.050304,8808.450710,536.266849
147.154726,3552.988522,8882.471304,536.266849
147.155047,3404.947333,8808.450710,612.876398
147.155368,3849.070898,9030.512492,766.095498
147.155688,4071.132681,8882.471304,689.485948
147.156009,4589.276840,8808.450710,153.219100
147.156330,5181.441594,8068.244768,153.219100
147.156651,5477.523971,7772.162391,-76.609550
147.156972,5477.523971,7772.162391,153.219100
147.157293,5847.626942,7254.018232,0.000000
147.157614,6069.688724,7179.997637,-689.485948
147.157935,6587.832884,7031.956449,-689.485948
147.158255,6809.894666,7402.059420,-1072.533697
147.158576,7105.977043,7402.059420,-1302.362347
147.158897,7105.977043,7402.059420,-1225.752797
147.159218,6883.915261,7328.038826,-1149.143247
147.159539,6809.894666,7698.141797,-1378.971896
147.159860,6217.729913,7920.203579,-1532.190996
147.160181,5847.626942,8438.347739,-689.485948
147.160502,5107.421000,8068.244768,-842.705048
147.160823,5329.482782,7994.224174,-536.266849
147.161143,4885.359217,8068.244768,-306.438199
147.161464,4737.318029,8142.265362,0.000000
147.161785,3849.070898,8216.285956,0.000000
147.162106,3256.906145,8586.388927,76.609550
147.162427,3182.885551,8512.368333,459.657299
147.162748,3256.906145,9030.512492,689.485948
147.163069,3256.906145,8956.491898,536.266849
147.163390,3404.947333,9252.574275,612.876398
147.163710,3552.988522,9474.636058,383.047749
147.164031,3404.947333,9400.615463,383.047749
147.164352,3627.009116,9252.574275,459.657299
147.164673,3849.070898,8808.450710,383.047749
147.164994,4441.235652,8586.388927,612.876398
147.165315,4737.318029,8438.347739,306.438199
147.165636,5033.400406,7994.224174,0.000000
147.165957,5033.400406,7772.162391,0.000000
147.166277,5699.585753,7254.018232,76.609550
147.166598,5773.606348,7105.977043,-153.219100
147.166919,5773.606348,7105.977043,-76.609550
147.167240,6143.709319,7550.100608,-766.095498
147.167561,6661.853478,7624.121203,-919.314598
147.167882,6883.915261,7698.141797,-1225.752797
147.168203,6735.874072,7328.038826,-842.705048
147.168523,6809.894666,7328.038826,-766.095498
147.168844,6513.812290,7846.182985,-689.485948
147.169165,5921.647536,7846.182985,-612.876398
147.169486,5773.606348,7624.121203,-1149.143247
147.169807,5403.503377,7254.018232,-612.876398
147.170128,5403.503377,7105.977043,-459.657299
147.170449,4885.359217,7624.121203,0.000000
147.170769,4515.256246,7994.224174,0.000000
147.171090,4219.173869,7994.224174,306.438199
147.171411,3775.050304,8290.306550,383.047749
147.171732,3627.009116,8512.368333,153.219100
147.172053,3552.988522,8586.388927,459.657299
147.172374,3552.988522,9104.533087,536.266849
147.172695,3775.050304,8734.430116,383.047749
147.173015,3552.988522,8808.450710,536.266849
147.173336,3552.988522,8882.471304,612.876398
147.173657,3849.070898,8956.491898,612.876398
147.173978,4219.173869,8660.409521,459.657299
147.174299,4663.297435,8364.327145,306.438199
147.174620,5255.462188,7920.203579,0.000000
147.174941,5107.421000,7698.141797,76.609550
147.175262,5033.400406,7772.162391,-306.438199
147.175582,5773.606348,7031.956449,-76.609550
147.175903,6291.750507,7254.018232,-459.657299
147.176224,6291.750507,7179.997637,-842.705048
147.176545,7105.977043,7328.038826,-842.705048
147.176866,6957.935855,7402.059420,-919.314598
147.177187,6809.894666,7550.100608,-1455.581446
147.177508,6661.853478,7624.121203,-1455.581446
147.177828,6291.750507,7624.121203,-1302.362347
147.178149,6291.750507,7624.121203,-1225.752797
147.178470,5773.606348,8068.244768,-842.705048
147.178791,5477.523971,8512.368333,-766.095498
147.179112,5403.503377,8290.306550,-459.657299
147.179433,5107.421000,8290.306550,-76.609550
147.179754,4367.215058,8216.285956,0.000000
147.180074,3775.050304,8364.327145,153.219100
147.180395,3404.947333,8438.347739,229.828649
147.180716,3034.844362,8660.409521,383.047749
147.181037,3404.947333,8512.368333,919.314598
147.181358,3552.988522,8586.388927,612.876398
147.181679,3775.050304,8882.471304,612.876398
147.182000,3404.947333,9400.615463,306.438199
147.182320,3701.029710,9030.512492,689.485948
147.182641,4367.215058,8882.471304,383.047749
147.182962,4367.215058,8586.388927,689.485948
147.183283,4885.359217,8660.409521,229.828649
147.183604,5255.462188,8586.388927,-229.828649
147.183925,5477.523971,8216.285956,-306.438199
147.184246,5329.482782,7476.080014,-383.047749
147.184567,5995.668130,6883.915261,-306.438199
147.184887,6069.688724,6587.832884,0.000000
147.185208,6143.709319,6883.915261,0.000000
147.185529,6291.750507,7254.018232,-689.485948
147.185850,6439.791695,7476.080014,-1685.410096
147.186171,6735.874072,7254.018232,-1225.752797
147.186492,6883.915261,7179.997637,-919.314598
147.186813,7105.977043,7179.997637,-536.266849
147.187133,6439.791695,7550.100608,-766.095498
147.187454,5699.585753,7772.162391,-1225.752797
147.187775,5181.441594,7994.224174,-1302.362347
147.188096,5403.503377,7550.100608,-842.705048
147.188417,5181.441594,7994.224174,0.000000
147.188738,4367.215058,8290.306550,383.047749
147.189059,4219.173869,8586.388927,0.000000
147.189379,3627.009116,8364.327145,229.828649
147.189700,3256.906145,8586.388927,153.219100
147.190021,3404.947333,8512.368333,306.438199
147.190342,3552.988522,8586.388927,536.266849
147.190663,3478.967927,8734.430116,536.266849
147.190984,3478.967927,8956.491898,459.657299
147.191305,3404.947333,8882.471304,766.095498
147.191626,3775.050304,9178.553681,459.657299
147.191946,3775.050304,9030.512492,995.924147
147.192267,4737.318029,8956.491898,536.266849
147.192588,4885.359217,8216.285956,-153.219100
147.192909,5551.544565,7994.224174,229.828649
147.193230,5329.482782,7402.059420,76.609550
147.193551,5329.482782,7402.059420,383.047749
147.193872,5699.585753,7254.018232,-306.438199
147.194192,6513.812290,7328.038826,-689.485948
147.194513,6809.894666,7476.080014,-919.314598
147.194834,7031.956449,7402.059420,-1455.581446
147.195155,6883.915261,7402.059420,-1149.143247
147.195476,6661.853478,7402.059420,-612.876398
147.195797,6883.915261,7624.121203,-1225.752797
147.196118,6291.750507,7698.141797,-1532.190996
147.196438,5847.626942,7920.203579,-1072.533697
147.196759,5403.503377,7772.162391,-1149.143247
147.197080,5329.482782,7920.203579,-383.047749
147.197401,5181.441594,8142.265362,-612.876398
147.197722,4293.194464,7920.203579,0.000000
147.198043,4367.215058,8142.265362,0.000000
147.198364,3627.009116,8512.368333,0.000000
147.198684,3478.967927,8586.388927,-306.438199
147.199005,3404.947333,8660.409521,153.219100
147.199326,3775.050304,8734.430116,459.657299
147.199647,3552.988522,9178.553681,76.609550
147.199968,3775.050304,9178.553681,306.438199
147.200289,3552.988522,9474.636058,689.485948
147.200610,3552.988522,9252.574275,612.876398
147.200931,3627.009116,8956.491898,766.095498
147.201251,4219.173869,8660.409521,689.485948
147.201572,4515.256246,8660.409521,383.047749
147.201893,4959.379811,8216.285956,0.000000
147.202214,4737.318029,7920.203579,0.000000
147.202535,5181.441594,7328.038826,0.000000
147.202856,5403.503377,7105.977043,0.000000
147.203177,5847.626942,6883.915261,-306.438199
147.203497,6365.771101,7624.121203,-689.485948
147.203818,6735.874072,7476.080014,-995.924147
147.204139,6883.915261,7550.100608,-1225.752797
147.204460,6735.874072,7402.059420,-1302.362347
147.204781,6735.874072,7920.203579,-1072.533697
147.205102,6513.812290,7846.182985,-306.438199
147.205423,5921.647536,7624.121203,-919.314598
147.205743,5847.626942,7550.100608,-919.314598
147.206064,5181.441594,7698.141797,-766.095498
147.206385,4959.379811,7624.121203,-459.657299
147.206706,5181.441594,7994.224174,-306.438199
147.207027,4219.173869,8290.306550,0.000000
147.207348,3849.070898,8586.388927,229.828649
147.207669,3404.947333,8586.388927,383.047749
147.207989,3627.009116,8290.306550,383.047749
147.208310,3404.947333,8734.430116,383.047749
147.208631,3404.947333,9104.533087,766.095498
147.208952,3404.947333,8956.491898,689.485948
147.209273,3182.885551,8882.471304,536.266849
147.209594,3552.988522,8882.471304,536.266849
147.209915,3849.070898,8882.471304,536.266849
147.210236,4071.132681,8734.430116,689.485948
147.210556,4663.297435,8364.327145,153.219100
147.210877,5403.503377,7994.224174,229.828649
147.211198,5551.544565,7328.038826,0.000000
147.211519,5995.668130,7105.977043,229.828649
147.211840,5847.626942,7105.977043,0.000000
147.212161,6661.853478,7105.977043,-459.657299
147.212482,6957.935855,6883.915261,-995.924147
147.212802,7254.018232,7105.977043,-1149.143247
147.213123,7328.038826,7031.956449,-1225.752797
147.213444,7476.080014,7105.977043,-1378.971896
147.213765,7105.977043,7328.038826,-1378.971896
147.214086,7105.977043,7254.018232,-1455.581446
147.214407,6883.915261,7254.018232,-1149.143247
147.214728,6513.812290,8068.244768,-1149.143247
147.215048,5773.606348,8808.450710,-1072.533697
147.215369,5255.462188,8142.265362,-1072.533697
147.215690,4737.318029,8290.306550,-383.047749
147.216011,4515.256246,8216.285956,76.609550
147.216332,3775.050304,8364.327145,306.438199
147.216653,3552.988522,8364.327145,383.047749
147.216974,3034.844362,8586.388927,383.047749
147.217294,2960.823768,8512.368333,689.485948
147.217615,2960.823768,8882.471304,842.705048
147.217936,3256.906145,8808.450710,689.485948
147.218257,3404.947333,9104.533087,536.266849
147.218578,3478.967927,9474.636058,536.266849
147.218899,3330.926739,9252.574275,612.876398
147.219220,3923.091493,9104.533087,919.314598
147.219541,4293.194464,9326.594869,536.266849
147.219861,4811.338623,8956.491898,383.047749
147.220182,5033.400406,8808.450710,-306.438199
147.220503,5033.400406,8290.306550,-306.438199
147.220824,4959.379811,7698.141797,0.000000
147.221145,5255.462188,7105.977043,0.000000
147.221466,5551.544565,7179.997637,76.609550
147.221787,5847.626942,7402.059420,-306.438199
147.222107,6217.729913,7698.141797,-1072.533697
147.222428,6069.688724,7698.141797,-1225.752797
147.222749,6217.729913,7846.182985,-1225.752797
147.223070,6365.771101,7624.121203,-689.485948
147.223391,5847.626942,8068.244768,-383.047749
147.223712,5329.482782,7920.203579,-995.924147
147.224033,5033.400406,8068.244768,-842.705048
147.224353,4441.235652,8068.244768,-766.095498
147.224674,4515.256246,7698.141797,-153.219100
147.224995,4441.235652,7994.224174,76.609550
147.225316,4441.235652,8512.368333,459.657299
147.225637,3775.050304,8512.368333,383.047749
147.225958,3775.050304,8290.306550,229.828649
147.226279,3256.906145,8512.368333,766.095498
147.226600,3701.029710,8438.347739,995.924147
147.226920,3701.029710,8216.285956,766.095498
147.227241,4145.153275,8216.285956,1072.533697
147.227562,4145.153275,8512.368333,766.095498
147.227883,3775.050304,8438.347739,766.095498
147.228204,4219.173869,8290.306550,459.657299
147.228525,4737.318029,8512.368333,153.219100
147.228846,5033.400406,8216.285956,76.609550
147.229166,5995.668130,7476.080014,0.000000
147.229487,5847.626942,6957.935855,153.219100
147.229808,5847.626942,6957.935855,76.609550
147.230129,5995.668130,6809.894666,-76.609550
147.230450,6513.812290,6809.894666,-689.485948
147.230771,6587.832884,6957.935855,-1225.752797
147.231092,7402.059420,7031.956449,-1378.971896
