#time,accel_x,accel_y,accel_z
559.916260,4885.359217,7994.224174,-229.828649
559.916580,4959.379811,8364.327145,0.000000
559.916901,4737.318029,8216.285956,0.000000
559.917221,5107.421000,8142.265362,-153.219100
559.917542,4959.379811,8216.285956,0.000000
559.917863,5107.421000,8068.244768,0.000000
559.918183,4959.379811,8142.265362,0.000000
559.918504,5181.441594,8142.265362,-153.219100
559.918824,4737.318029,8068.244768,0.000000
559.919145,5107.421000,7994.224174,-153.219100
559.919465,5107.421000,7994.224174,-229.828649
559.919786,5403.503377,8068.244768,0.000000
559.920106,4885.359217,8142.265362,-459.657299
559.920427,4811.338623,7920.203579,-383.047749
559.920748,4811.338623,7994.224174,-383.047749
559.921068,5107.421000,7624.121203,612.876398
559.921389,4959.379811,8068.244768,0.000000
559.921709,4959.379811,8216.285956,-306.438199
559.922030,5033.400406,7994.224174,-306.438199
559.922350,5107.421000,8068.244768,0.000000
559.922671,5033.400406,7994.224174,153.219100
559.922991,4737.318029,8142.265362,-306.438199
559.923312,4737.318029,7994.224174,0.000000
559.923633,4959.379811,8068.244768,0.000000
559.923953,4885.359217,8142.265362,76.609550
559.924274,5033.400406,8216.285956,-383.047749
559.924594,4959.379811,8216.285956,-153.219100
559.924915,4885.359217,7994.224174,-459.657299
559.925235,4959.379811,7994.224174,0.000000
559.925556,4737.318029,8216.285956,-536.266849
559.925876,4959.379811,8068.244768,0.000000
559.926197,5033.400406,7846.182985,0.000000
559.926518,5033.400406,8290.306550,-536.266849
559.926838,5107.421000,7994.224174,-306.438199
559.927159,4885.359217,7772.162391,-153.219100
559.927479,4589.276840,7402.059420,-306.438199
559.927800,4293.194464,7550.100608,-306.438199
559.928120,4441.235652,8438.347739,0.000000
559.928441,4515.256246,9548.656652,-459.657299
559.928761,4071.132681,10288.862594,-919.314598
559.929082,4515.256246,9844.739029,-995.924147
559.929402,4145.153275,9622.677246,-919.314598
559.929723,3182.885551,8734.430116,229.828649
559.930044,2886.803174,8734.430116,919.314598
559.930364,2590.720797,9104.533087,1608.800546
559.930685,2516.700203,9326.594869,0.000000
559.931005,2516.700203,8586.388927,-306.438199
559.931326,3034.844362,8512.368333,-306.438199
559.931646,3256.906145,9622.677246,0.000000
559.931967,2960.823768,10066.800811,0.000000
559.932287,2442.679609,9104.533087,229.828649
559.932608,2516.700203,8734.430116,0.000000
559.932929,2442.679609,9400.615463,0.000000
559.933249,1998.556043,10955.047942,-1149.143247
559.933570,1628.453072,11843.295072,-1532.190996
559.933890,1332.370696,11917.315666,-1378.971896
559.934211,1184.329507,11399.171507,-1302.362347
559.934531,518.144159,11103.089130,-1225.752797
559.934852,0.000000,11843.295072,-1072.533697
559.935172,-1332.370696,12361.439231,-689.485948
559.935493,-1702.473667,12509.480420,459.657299
559.935814,-1554.432478,12139.377449,919.314598
559.936134,-1036.288319,11251.130318,1072.533697
559.936455,-1036.288319,11843.295072,1915.238745
559.936775,-1776.494261,12583.501014,1302.362347
559.937096,-2664.741391,11695.253884,229.828649
559.937416,-1924.535449,10066.800811,-766.095498
559.937737,-518.144159,9326.594869,229.828649
559.938057,-444.123565,9622.677246,1149.143247
559.938378,-370.102971,10436.903782,842.705048
559.938699,0.000000,10658.965565,-229.828649
559.939019,1184.329507,11325.150913,-1302.362347
559.939340,1702.473667,10807.006753,-1838.629195
559.939660,2442.679609,9992.780217,-612.876398
559.939981,3034.844362,10214.842000,0.000000
559.940301,2886.803174,10362.883188,-536.266849
559.940622,2294.638420,9400.615463,-2145.067394
559.940942,2072.576638,8660.409521,-2451.505594
559.941263,2516.700203,8956.491898,-1532.190996
559.941584,2294.638420,9770.718434,-383.047749
559.941904,1998.556043,10214.842000,-383.047749
559.942225,1554.432478,10881.027347,-842.705048
559.942545,1036.288319,11251.130318,-612.876398
559.942866,518.144159,11251.130318,306.438199
559.943186,-222.061783,10140.821405,306.438199
559.943507,-222.061783,9992.780217,689.485948
559.943827,-444.123565,10510.924376,1072.533697
559.944148,-740.205942,11103.089130,1225.752797
559.944468,-1110.308913,11177.109724,995.924147
559.944789,-666.185348,11695.253884,995.924147
559.945110,370.102971,11769.274478,1378.971896
559.945430,222.061783,11769.274478,1149.143247
559.945751,0.000000,11325.150913,0.000000
559.946071,444.123565,10362.883188,-612.876398
559.946392,814.226536,9992.780217,-153.219100
559.946712,1184.329507,9696.697840,383.047749
559.947033,1554.432478,9104.533087,612.876398
559.947353,2072.576638,9400.615463,0.000000
559.947674,2368.659014,10288.862594,-689.485948
559.947995,1998.556043,10658.965565,-306.438199
559.948315,2590.720797,9992.780217,-153.219100
559.948636,3478.967927,9696.697840,-459.657299
559.948956,3701.029710,9474.636058,-229.828649
559.949277,3034.844362,9400.615463,-1149.143247
559.949597,3182.885551,9696.697840,-1915.238745
559.949918,2812.782580,10436.903782,-1378.971896
559.950238,2368.659014,11103.089130,-766.095498
559.950559,2220.617826,11473.192101,-919.314598
559.950880,1702.473667,10362.883188,-1685.410096
559.951200,444.123565,9548.656652,-1532.190996
559.951521,-814.226536,9252.574275,-1225.752797
559.951841,-1554.432478,9252.574275,-306.438199
559.952162,-1702.473667,9400.615463,842.705048
559.952482,-148.041188,10732.986159,1608.800546
559.952803,296.082377,11843.295072,1608.800546
559.953123,-148.041188,13101.645173,1072.533697
559.953444,-148.041188,13619.789333,306.438199
559.953765,518.144159,12953.603985,306.438199
559.954085,1110.308913,11177.109724,153.219100
559.954406,1406.391290,9400.615463,0.000000
559.954726,740.205942,9178.553681,-536.266849
559.955047,-444.123565,9474.636058,-1149.143247
559.955367,-1628.453072,11103.089130,-1302.362347
559.955688,-1554.432478,10584.944971,-1838.629195
559.956008,-444.123565,11177.109724,-1149.143247
559.956329,814.226536,12287.418637,306.438199
559.956650,962.267725,13693.809927,229.828649
559.956970,296.082377,14211.954086,-383.047749
559.957291,74.020594,14063.912898,-459.657299
559.957611,740.205942,12731.542202,-306.438199
559.957932,1110.308913,10510.924376,-383.047749
559.958252,1406.391290,8438.347739,0.000000
559.958573,1702.473667,8512.368333,-229.828649
559.958893,740.205942,9400.615463,0.000000
559.959214,74.020594,10140.821405,612.876398
559.959534,518.144159,10584.944971,689.485948
559.959855,1332.370696,9770.718434,383.047749
559.960176,444.123565,9178.553681,766.095498
559.960496,888.247130,8586.388927,229.828649
559.960817,1036.288319,9992.780217,-919.314598
559.961137,444.123565,12287.418637,-1608.800546
559.961458,74.020594,14137.933492,-1762.019645
559.961778,1258.350101,13989.892304,-2604.724693
559.962099,1406.391290,13249.686362,-1302.362347
559.962419,518.144159,12879.583391,0.000000
559.962740,-962.267725,11547.212695,383.047749
559.963061,-296.082377,10510.924376,1149.143247
559.963381,-814.226536,9844.739029,2451.505594
559.963702,-1406.391290,8290.306550,1915.238745
559.964022,-1480.411884,7476.080014,1455.581446
559.964343,-1776.494261,7994.224174,919.314598
559.964663,-1554.432478,9474.636058,-306.438199
559.964984,74.020594,10436.903782,-76.609550
559.965304,2072.576638,11325.150913,0.000000
559.965625,2442.679609,12435.459826,-919.314598
559.965946,2442.679609,12361.439231,-1072.533697
559.966266,1998.556043,11029.068536,-1838.629195
559.966587,1628.453072,8512.368333,-2298.286494
559.966907,2664.741391,7846.182985,-306.438199
559.967228,4293.194464,9770.718434,1455.581446
559.967548,1924.535449,12139.377449,76.609550
559.967869,1036.288319,12509.480420,-3140.991542
559.968189,1702.473667,11917.315666,-3217.601092
559.968510,296.082377,9770.718434,-2451.505594
559.968831,-740.205942,7031.956449,-612.876398
559.969151,-148.041188,7254.018232,76.609550
559.969472,222.061783,11029.068536,229.828649
559.969792,-740.205942,14730.098246,1072.533697
559.970113,-1850.514855,15618.345376,76.609550
559.970433,-962.267725,14434.015869,-766.095498
559.970754,0.000000,13767.830521,229.828649
559.971074,-1776.494261,11621.233289,1532.190996
559.971395,-1480.411884,9992.780217,1225.752797
559.971716,-1406.391290,10140.821405,766.095498
559.972036,-444.123565,11843.295072,306.438199
559.972357,-592.164754,11621.233289,306.438199
559.972677,0.000000,9844.739029,383.047749
559.972998,1406.391290,9178.553681,1378.971896
559.973318,1924.535449,9474.636058,2221.676944
559.973639,3552.988522,10955.047942,1378.971896
559.973959,3849.070898,11473.192101,-1608.800546
559.974280,4293.194464,11103.089130,-2374.896044
559.974601,4589.276840,10584.944971,-2451.505594
559.974921,2146.597232,8142.265362,-3064.381992
559.975242,1776.494261,6957.935855,-1991.848295
559.975562,4071.132681,8956.491898,-306.438199
559.975883,2590.720797,12213.398043,459.657299
559.976203,1036.288319,13841.851115,-1149.143247
559.976524,962.267725,12657.521608,-2604.724693
559.976845,-296.082377,11399.171507,-1762.019645
559.977165,-2368.659014,9474.636058,1149.143247
559.977486,-1554.432478,8438.347739,2221.676944
559.977806,-740.205942,8586.388927,229.828649
559.978127,-1628.453072,10807.006753,-383.047749
559.978448,-1332.370696,13693.809927,153.219100
559.978768,-1554.432478,13693.809927,0.000000
559.979089,-2294.638420,11917.315666,0.000000
559.979409,666.185348,10214.842000,2911.162892
559.979730,666.185348,9918.759623,3217.601092
559.980051,-370.102971,9770.718434,995.924147
559.980371,-518.144159,10066.800811,-306.438199
559.980692,740.205942,10140.821405,0.000000
559.981013,666.185348,8882.471304,76.609550
559.981333,2738.761985,6513.812290,689.485948
559.981654,4219.173869,7476.080014,-536.266849
559.981974,3182.885551,11695.253884,-1302.362347
559.982295,2368.659014,13619.789333,-1685.410096
559.982616,3627.009116,11917.315666,-2451.505594
559.982936,3849.070898,8660.409521,-1685.410096
559.983257,3997.112087,8512.368333,0.000000
559.983577,2590.720797,9474.636058,0.000000
559.983898,-1258.350101,10510.924376,-2145.067394
559.984219,-370.102971,12361.439231,-2298.286494
559.984539,444.123565,11843.295072,-1378.971896
559.984860,-518.144159,9992.780217,-229.828649
559.985180,0.000000,8586.388927,536.266849
559.985501,-1110.308913,11177.109724,1302.362347
559.985822,-2738.761985,13915.871710,842.705048
559.986142,-2812.782580,15248.242405,229.828649
559.986463,-1406.391290,12509.480420,0.000000
559.986784,-518.144159,10732.986159,1685.410096
559.987104,0.000000,10955.047942,2834.553343
559.987425,-1628.453072,12287.418637,919.314598
559.987745,-2442.679609,11917.315666,-995.924147
559.988066,-1406.391290,11695.253884,-459.657299
559.988387,1258.350101,10955.047942,919.314598
559.988707,2072.576638,10584.944971,1378.971896
559.989028,2368.659014,10288.862594,1072.533697
559.989348,962.267725,10584.944971,0.000000
559.989669,1184.329507,9252.574275,-766.095498
559.989990,2886.803174,7328.038826,-306.438199
559.990310,4219.173869,8290.306550,153.219100
559.990631,5255.462188,9844.739029,-995.924147
559.990951,4145.153275,11621.233289,-1991.848295
559.991272,3108.864956,9992.780217,-3600.648841
559.991593,3997.112087,7846.182985,-2298.286494
559.991913,4589.276840,8068.244768,229.828649
559.992234,2664.741391,10214.842000,-766.095498
559.992554,1258.350101,12065.356855,-2528.115143
559.992875,-296.082377,12953.603985,-2757.943793
559.993196,-74.020594,12361.439231,-3064.381992
559.993516,-444.123565,10436.903782,-1149.143247
559.993837,-444.123565,10510.924376,2451.505594
559.994158,-1998.556043,12287.418637,3064.381992
559.994478,-4367.215058,12953.603985,1838.629195
559.994799,-4071.132681,12509.480420,76.609550
559.995119,-2516.700203,12509.480420,383.047749
559.995440,-444.123565,12361.439231,3447.429741
559.995761,-1332.370696,11103.089130,4749.792088
559.996081,-2516.700203,9770.718434,2911.162892
559.996402,-2368.659014,10658.965565,689.485948
559.996722,-1184.329507,11251.130318,689.485948
559.997043,-518.144159,11399.171507,459.657299
559.997364,4367.215058,9770.718434,-612.876398
559.997684,4589.276840,8290.306550,-995.924147
559.998005,4589.276840,9178.553681,-995.924147
559.998325,5181.441594,10362.883188,0.000000
559.998646,3552.988522,8956.491898,-689.485948
559.998967,5255.462188,7402.059420,-995.924147
559.999287,7328.038826,7179.997637,-995.924147
559.999608,6883.915261,8068.244768,-2911.162892
559.999929,7328.038826,9326.594869,-3677.258390
560.000249,6735.874072,9400.615463,-2145.067394
560.000570,5625.565159,8142.265362,-1762.019645
560.000890,4959.379811,5181.441594,-383.047749
560.001211,4589.276840,4515.256246,-153.219100
560.001532,3627.009116,7179.997637,-459.657299
560.001852,2590.720797,9326.594869,1302.362347
560.002173,3404.947333,9992.780217,383.047749
560.002493,3627.009116,8290.306550,-306.438199
560.002814,1998.556043,7105.977043,-153.219100
560.003135,2368.659014,8216.285956,1302.362347
560.003455,1406.391290,10436.903782,2145.067394
560.003776,1480.411884,11621.233289,536.266849
560.004096,2590.720797,11843.295072,0.000000
560.004417,4145.153275,10436.903782,0.000000
560.004738,3330.926739,8956.491898,536.266849
560.005058,3701.029710,8290.306550,2068.457845
560.005379,2368.659014,6957.935855,766.095498
560.005699,2960.823768,5847.626942,-229.828649
560.006020,4737.318029,5625.565159,612.876398
560.006341,6513.812290,6143.709319,612.876398
560.006661,6217.729913,6883.915261,-76.609550
560.006982,5773.606348,7105.977043,-2068.457845
560.007303,9918.759623,8290.306550,-2604.724693
560.007623,9474.636058,8216.285956,-1762.019645
560.007944,9104.533087,6365.771101,-2145.067394
560.008264,10658.965565,5921.647536,-2451.505594
560.008585,8808.450710,8364.327145,-2221.676944
560.008906,8438.347739,9992.780217,-2451.505594
560.009226,7772.162391,7994.224174,-2987.772442
560.009547,6661.853478,5329.482782,-4213.525239
560.009867,6365.771101,6661.853478,-2221.676944
560.010188,3849.070898,8364.327145,-229.828649
560.010509,1332.370696,7698.141797,-1991.848295
560.010829,2220.617826,7772.162391,-612.876398
560.011150,3627.009116,10510.924376,1608.800546
560.011470,1998.556043,12361.439231,1915.238745
560.011791,1924.535449,13397.727550,2145.067394
560.012112,2072.576638,13545.768739,1991.848295
560.012432,3256.906145,12287.418637,1149.143247
560.012753,2368.659014,9030.512492,1149.143247
560.013074,2072.576638,6439.791695,-229.828649
560.013394,2664.741391,8956.491898,383.047749
560.013715,2442.679609,9770.718434,2987.772442
560.014035,2738.761985,7920.203579,1149.143247
560.014356,4367.215058,4737.318029,-1072.533697
560.014677,6069.688724,5625.565159,-1915.238745
560.014997,5995.668130,7846.182985,612.876398
560.015318,6439.791695,7846.182985,919.314598
560.015638,7846.182985,7920.203579,-689.485948
560.015959,9326.594869,7846.182985,-1685.410096
560.016280,8808.450710,8290.306550,-2911.162892
560.016600,9178.553681,8364.327145,-2681.334243
560.016921,8290.306550,8512.368333,-1149.143247
560.017241,7179.997637,8364.327145,-1072.533697
560.017562,7920.203579,6661.853478,-995.924147
560.017883,6291.750507,4737.318029,-995.924147
560.018203,5329.482782,4885.359217,0.000000
560.018524,5033.400406,5625.565159,842.705048
560.018845,3775.050304,4811.338623,0.000000
560.019165,4071.132681,5403.503377,-612.876398
560.019486,4959.379811,7179.997637,1149.143247
560.019806,2960.823768,7105.977043,2451.505594
560.020127,1702.473667,7254.018232,1225.752797
560.020448,5995.668130,8882.471304,-229.828649
560.020768,4737.318029,10436.903782,-766.095498
560.021089,5107.421000,8882.471304,-612.876398
560.021409,6883.915261,8364.327145,766.095498
560.021730,4885.359217,8142.265362,689.485948
560.022051,3775.050304,7328.038826,689.485948
560.022371,6735.874072,9030.512492,1072.533697
560.022692,4737.318029,8660.409521,0.000000
560.023012,4145.153275,7550.100608,0.000000
560.023333,5033.400406,5921.647536,1685.410096
560.023654,4959.379811,6661.853478,0.000000
560.023974,4737.318029,6587.832884,842.705048
560.024295,4589.276840,7624.121203,995.924147
560.024615,3849.070898,7328.038826,-2374.896044
560.024936,5107.421000,7846.182985,-1608.800546
560.025257,7031.956449,9104.533087,1149.143247
560.025577,8068.244768,10510.924376,1302.362347
560.025898,5181.441594,9770.718434,-612.876398
560.026219,3923.091493,8216.285956,-3983.696590
560.026539,5477.523971,9326.594869,-4290.134789
560.026860,5995.668130,9696.697840,-612.876398
560.027180,5847.626942,9918.759623,459.657299
560.027501,5995.668130,7476.080014,-536.266849
560.027822,2072.576638,6587.832884,-536.266849
560.028142,1924.535449,7179.997637,0.000000
560.028463,2886.803174,8142.265362,2145.067394
560.028783,3182.885551,8438.347739,1608.800546
560.029104,4219.173869,7698.141797,0.000000
560.029425,5699.585753,9696.697840,-2068.457845
560.029745,4663.297435,11029.068536,-1608.800546
560.030066,3478.967927,11251.130318,229.828649
560.030386,4589.276840,9474.636058,2068.457845
560.030707,6069.688724,7698.141797,919.314598
560.031028,4071.132681,6883.915261,-995.924147
560.031348,3849.070898,6365.771101,-2068.457845
560.031669,5255.462188,9030.512492,-1225.752797
560.031990,5255.462188,8660.409521,1532.190996
560.032310,6217.729913,6661.853478,306.438199
560.032631,6217.729913,4515.256246,-1225.752797
560.032951,5773.606348,6809.894666,-2145.067394
560.033272,4441.235652,9992.780217,-153.219100
560.033593,4145.153275,9770.718434,229.828649
560.033913,6143.709319,8290.306550,-1302.362347
560.034234,8290.306550,8808.450710,-536.266849
560.034554,7402.059420,10140.821405,-306.438199
560.034875,5033.400406,10881.027347,-229.828649
560.035196,2886.803174,9992.780217,-1455.581446
560.035516,4367.215058,7624.121203,-995.924147
560.035837,4737.318029,4959.379811,229.828649
560.036157,3923.091493,4959.379811,1455.581446
560.036478,4515.256246,7402.059420,2451.505594
560.036799,3849.070898,8882.471304,1991.848295
560.037119,2220.617826,5403.503377,0.000000
560.037440,6809.894666,5403.503377,-1072.533697
560.037760,7254.018232,6291.750507,153.219100
560.038081,5847.626942,8586.388927,-536.266849
560.038402,6883.915261,9474.636058,-689.485948
560.038722,7920.203579,9474.636058,-842.705048
560.039043,8290.306550,9030.512492,766.095498
560.039364,8290.306550,7328.038826,1532.190996
560.039684,6883.915261,6883.915261,-1762.019645
560.040005,4737.318029,7031.956449,-3600.648841
560.040325,6809.894666,7254.018232,-1685.410096
560.040646,7772.162391,7105.977043,536.266849
560.040967,7772.162391,5551.544565,1455.581446
560.041287,5181.441594,4219.173869,1455.581446
560.041608,5255.462188,4071.132681,229.828649
560.041928,3701.029710,5847.626942,229.828649
560.042249,4589.276840,6365.771101,612.876398
560.042570,6291.750507,6513.812290,-383.047749
560.042890,7328.038826,6513.812290,-919.314598
560.043211,8438.347739,9696.697840,-383.047749
560.043531,6883.915261,11621.233289,0.000000
560.043852,4589.276840,10955.047942,-1915.238745
560.044173,3775.050304,9474.636058,-2604.724693
560.044493,3108.864956,6957.935855,-1302.362347
560.044814,4589.276840,7254.018232,995.924147
560.045135,4145.153275,9474.636058,2145.067394
560.045455,2812.782580,10214.842000,-612.876398
560.045776,1702.473667,9178.553681,-1302.362347
560.046096,1776.494261,7920.203579,0.000000
560.046417,1406.391290,5921.647536,2604.724693
560.046738,2664.741391,6809.894666,4290.134789
560.047058,3034.844362,8882.471304,2681.334243
560.047379,2664.741391,10807.006753,-459.657299
560.047699,3552.988522,10288.862594,-2221.676944
560.048020,6143.709319,10436.903782,-1838.629195
560.048341,6957.935855,10214.842000,0.000000
560.048661,4737.318029,10288.862594,0.000000
560.048982,5551.544565,10807.006753,-1225.752797
560.049302,3256.906145,8808.450710,-2145.067394
560.049623,4441.235652,8290.306550,-919.314598
560.049944,6809.894666,8956.491898,1378.971896
560.050264,4071.132681,8216.285956,306.438199
560.050585,2442.679609,7179.997637,-1455.581446
560.050906,3923.091493,7031.956449,-1608.800546
560.051226,4441.235652,8142.265362,-1455.581446
560.051547,4885.359217,7994.224174,0.000000
560.051867,5107.421000,7550.100608,1225.752797
560.052188,4811.338623,9104.533087,76.609550
560.052509,5773.606348,10584.944971,1149.143247
560.052829,5625.565159,10436.903782,1532.190996
560.053150,4589.276840,8660.409521,-612.876398
560.053470,5329.482782,8216.285956,-842.705048
560.053791,5995.668130,6661.853478,0.000000
560.054112,5625.565159,5551.544565,-612.876398
560.054432,5921.647536,4811.338623,-689.485948
560.054753,6735.874072,7105.977043,1225.752797
560.055073,4589.276840,7698.141797,1685.410096
560.055394,3627.009116,5847.626942,536.266849
560.055715,8734.430116,5699.585753,-153.219100
560.056035,7402.059420,6217.729913,-1608.800546
560.056356,6069.688724,7550.100608,-1838.629195
560.056676,7031.956449,7550.100608,-1149.143247
560.056997,7031.956449,8142.265362,-459.657299
560.057318,7328.038826,7846.182985,1225.752797
560.057638,8290.306550,7846.182985,1149.143247
560.057959,6143.709319,7550.100608,-1915.238745
560.058280,3701.029710,7031.956449,-3447.429741
560.058600,6513.812290,7772.162391,-919.314598
560.058921,7550.100608,6883.915261,536.266849
560.059241,5773.606348,5625.565159,1378.971896
560.059562,4959.379811,5329.482782,766.095498
560.059883,3923.091493,5403.503377,-229.828649
560.060203,2738.761985,7254.018232,0.000000
560.060524,5329.482782,8586.388927,766.095498
560.060844,5107.421000,8882.471304,-1225.752797
560.061165,5403.503377,8364.327145,-1838.629195
560.061486,7031.956449,10807.006753,536.266849
560.061806,5033.400406,11695.253884,153.219100
560.062127,4663.297435,11251.130318,-153.219100
560.062447,3108.864956,9696.697840,-1532.190996
560.062768,3034.844362,7772.162391,-2298.286494
560.063089,5477.523971,8956.491898,842.705048
560.063409,3923.091493,8142.265362,2451.505594
560.063730,2960.823768,8956.491898,306.438199
560.064051,3404.947333,8734.430116,76.609550
560.064371,1332.370696,7698.141797,0.000000
560.064692,2146.597232,7402.059420,919.314598
560.065012,4959.379811,8142.265362,1762.019645
560.065333,4737.318029,9992.780217,459.657299
560.065654,4145.153275,9770.718434,-383.047749
560.065974,4145.153275,9770.718434,-995.924147
560.066295,5181.441594,11177.109724,-766.095498
560.066615,5033.400406,11103.089130,689.485948
560.066936,5551.544565,10140.821405,0.000000
560.067257,4219.173869,7476.080014,-2068.457845
560.067577,2516.700203,6143.709319,-1991.848295
560.067898,4663.297435,7994.224174,229.828649
560.068218,5033.400406,9992.780217,842.705048
560.068539,1480.411884,7698.141797,536.266849
560.068860,4293.194464,5995.668130,459.657299
560.069180,3775.050304,4885.359217,919.314598
560.069501,3034.844362,5625.565159,0.000000
560.069821,4441.235652,7550.100608,-306.438199
560.070142,5847.626942,8734.430116,-1149.143247
560.070463,6217.729913,8586.388927,-1608.800546
560.070783,8882.471304,9252.574275,-383.047749
560.071104,7772.162391,9104.533087,0.000000
560.071425,4515.256246,9400.615463,-1532.190996
560.071745,4219.173869,9030.512492,-1072.533697
560.072066,5329.482782,7179.997637,-1685.410096
560.072386,6439.791695,6365.771101,-612.876398
560.072707,6143.709319,6143.709319,995.924147
560.073028,4959.379811,7328.038826,1072.533697
560.073348,2146.597232,8142.265362,995.924147
560.073669,2368.659014,6809.894666,1608.800546
560.073989,4219.173869,5329.482782,306.438199
560.074310,5773.606348,4663.297435,842.705048
560.074631,6439.791695,7846.182985,1762.019645
560.074951,5477.523971,9104.533087,689.485948
560.075271,5403.503377,9548.656652,-995.924147
560.075591,6365.771101,9104.533087,-1149.143247
560.075912,6439.791695,8512.368333,-689.485948
560.076233,6735.874072,9030.512492,229.828649
560.076553,5773.606348,8068.244768,-612.876398
560.076874,5551.544565,7105.977043,-2834.553343
560.077195,7772.162391,6587.832884,-2604.724693
560.077515,7328.038826,8142.265362,-536.266849
560.077836,4663.297435,7772.162391,229.828649
560.078157,4589.276840,6587.832884,76.609550
560.078477,6809.894666,7254.018232,612.876398
560.078798,6069.688724,7698.141797,1225.752797
560.079119,4219.173869,8068.244768,-153.219100
560.079439,4441.235652,7846.182985,-1608.800546
560.079760,4959.379811,10881.027347,-1915.238745
560.080081,3997.112087,11769.274478,842.705048
560.080402,4219.173869,10214.842000,1455.581446
560.080722,3552.988522,9030.512492,229.828649
560.081043,2738.761985,9104.533087,-383.047749
560.081364,2072.576638,9326.594869,383.047749
560.081684,3034.844362,7994.224174,-229.828649
560.082005,3849.070898,7624.121203,0.000000
560.082326,4367.215058,9104.533087,995.924147
560.082646,2812.782580,8660.409521,229.828649
560.082967,1628.453072,7105.977043,-229.828649
560.083288,4885.359217,6439.791695,229.828649
560.083608,4441.235652,7402.059420,689.485948
560.083929,4589.276840,7772.162391,-689.485948
560.084250,5403.503377,9252.574275,-1915.238745
560.084570,7105.977043,11547.212695,-1532.190996
560.084891,7624.121203,12879.583391,-689.485948
560.085212,6957.935855,9622.677246,229.828649
560.085533,5255.462188,6809.894666,-2528.115143
560.085853,4367.215058,5847.626942,-2604.724693
560.086174,4959.379811,6587.832884,536.266849
560.086495,5107.421000,7031.956449,1685.410096
560.086815,4811.338623,6143.709319,536.266849
560.087136,4367.215058,5995.668130,76.609550
560.087457,3404.947333,7105.977043,0.000000
560.087777,3552.988522,8734.430116,919.314598
560.088098,4515.256246,8290.306550,1149.143247
560.088419,5255.462188,7031.956449,-153.219100
560.088739,5773.606348,6957.935855,-1072.533697
560.089060,5625.565159,9844.739029,0.000000
560.089381,5551.544565,11843.295072,1302.362347
560.089702,5773.606348,11843.295072,459.657299
560.090022,5847.626942,9326.594869,-153.219100
560.090343,5551.544565,6883.915261,-1455.581446
560.090664,6809.894666,6809.894666,-153.219100
560.090984,3923.091493,7772.162391,536.266849
560.091305,4071.132681,7402.059420,1072.533697
560.091626,3478.967927,5255.462188,1302.362347
560.091946,4737.318029,4145.153275,2604.724693
560.092267,4959.379811,5699.585753,2528.115143
560.092588,4367.215058,7994.224174,306.438199
560.092908,5033.400406,8290.306550,-2681.334243
560.093229,7105.977043,8438.347739,-2221.676944
560.093550,8438.347739,7846.182985,-459.657299
560.093870,8882.471304,7698.141797,1072.533697
560.094191,7179.997637,7772.162391,0.000000
560.094512,6587.832884,9104.533087,-1072.533697
560.094833,4737.318029,6957.935855,-2528.115143
560.095153,5477.523971,4959.379811,-2451.505594
560.095474,8882.471304,7179.997637,-536.266849
560.095795,7402.059420,9548.656652,459.657299
560.096115,2738.761985,8216.285956,-459.657299
560.096436,4293.194464,5847.626942,-766.095498
560.096757,3182.885551,4811.338623,612.876398
560.097077,2960.823768,5181.441594,1455.581446
560.097398,2886.803174,6957.935855,1302.362347
560.097719,3701.029710,8956.491898,-1072.533697
560.098039,4737.318029,10584.944971,-689.485948
560.098360,5847.626942,13027.624579,766.095498
560.098681,4589.276840,12213.398043,-612.876398
560.099001,1702.473667,10066.800811,-1991.848295
560.099322,3108.864956,9474.636058,-1149.143247
560.099643,3775.050304,8512.368333,612.876398
560.099964,3182.885551,7772.162391,383.047749
560.100284,3923.091493,8364.327145,-153.219100
560.100605,3849.070898,10288.862594,-689.485948
560.100926,1776.494261,9770.718434,0.000000
560.101246,3552.988522,8808.450710,383.047749
560.101567,4811.338623,7105.977043,-459.657299
560.101888,3997.112087,7105.977043,-1072.533697
560.102208,3997.112087,9400.615463,459.657299
560.102529,3997.112087,10510.924376,-536.266849
560.102850,5847.626942,10066.800811,-1225.752797
560.103170,7328.038826,10362.883188,76.609550
560.103491,6365.771101,9918.759623,-536.266849
560.103812,4663.297435,8882.471304,-1532.190996
560.104132,4737.318029,7846.182985,-383.047749
560.104453,6661.853478,6809.894666,0.000000
560.104774,7105.977043,5625.565159,0.000000
560.105095,6809.894666,5329.482782,689.485948
560.105415,4589.276840,5921.647536,-612.876398
560.105736,5329.482782,6513.812290,0.000000
560.106057,6365.771101,6957.935855,153.219100
560.106377,6069.688724,6661.853478,-229.828649
560.106698,6069.688724,6957.935855,-842.705048
560.107019,5995.668130,8438.347739,0.000000
560.107339,5255.462188,9104.533087,-536.266849
560.107660,7105.977043,10066.800811,229.828649
560.107981,5995.668130,10362.883188,229.828649
560.108301,3997.112087,7624.121203,-536.266849
560.108622,2960.823768,6365.771101,76.609550
560.108943,6513.812290,7920.203579,766.095498
560.109264,4293.194464,7402.059420,536.266849
560.109584,5551.544565,7105.977043,0.000000
560.109905,5033.400406,5551.544565,-229.828649
560.110226,3849.070898,3997.112087,-536.266849
560.110546,4737.318029,5181.441594,1762.019645
560.110867,6217.729913,6513.812290,2298.286494
560.111188,6143.709319,7698.141797,76.609550
560.111508,6217.729913,8734.430116,-1532.190996
560.111829,7031.956449,11029.068536,-2451.505594
560.112150,6587.832884,11029.068536,-1225.752797
560.112470,7328.038826,10214.842000,1378.971896
560.112791,7328.038826,9252.574275,2451.505594
560.113112,4515.256246,7105.977043,536.266849
560.113432,2442.679609,4589.276840,-766.095498
560.113753,4441.235652,6143.709319,-306.438199
560.114074,3997.112087,8882.471304,1072.533697
560.114395,3849.070898,7920.203579,1072.533697
560.114715,4959.379811,5921.647536,-459.657299
560.115036,4367.215058,5403.503377,-1225.752797
560.115357,3627.009116,7254.018232,1302.362347
560.115677,3627.009116,9326.594869,1302.362347
560.115998,2072.576638,7772.162391,-1838.629195
560.116319,4885.359217,9252.574275,-3064.381992
560.116639,7254.018232,11399.171507,0.000000
560.116960,6513.812290,11621.233289,0.000000
560.117281,4885.359217,11177.109724,-153.219100
560.117601,3552.988522,9992.780217,-1149.143247
560.117922,3404.947333,7846.182985,-1608.800546
560.118243,5699.585753,5847.626942,306.438199
560.118563,5847.626942,6587.832884,612.876398
560.118884,4737.318029,7624.121203,153.219100
560.119205,4071.132681,7105.977043,0.000000
560.119526,3330.926739,6587.832884,-766.095498
560.119846,4515.256246,6217.729913,-766.095498
560.120167,5847.626942,7550.100608,383.047749
560.120488,5107.421000,7698.141797,-536.266849
560.120808,4663.297435,7698.141797,-1378.971896
560.121129,7179.997637,8808.450710,-612.876398
560.121450,6883.915261,9622.677246,-459.657299
560.121770,6291.750507,8956.491898,-1149.143247
560.122091,7105.977043,10955.047942,-612.876398
560.122412,5921.647536,11029.068536,-1685.410096
560.122732,4959.379811,7698.141797,-1762.019645
560.123053,7031.956449,5921.647536,0.000000
560.123374,5329.482782,5625.565159,-153.219100
560.123695,2442.679609,6143.709319,-536.266849
560.124015,4071.132681,7550.100608,-383.047749
560.124336,4441.235652,8586.388927,-995.924147
560.124657,4885.359217,9474.636058,153.219100
560.124977,5033.400406,9104.533087,229.828649
560.125298,2368.659014,8216.285956,-1302.362347
560.125619,2442.679609,8586.388927,-995.924147
560.125939,4959.379811,9696.697840,2298.286494
560.126260,5995.668130,10066.800811,1685.410096
560.126581,5033.400406,10584.944971,612.876398
560.126901,3182.885551,9326.594869,-1455.581446
560.127222,4663.297435,9474.636058,-1608.800546
560.127543,4885.359217,9474.636058,1762.019645
560.127863,5551.544565,7105.977043,2145.067394
560.128184,5995.668130,3923.091493,-229.828649
560.128505,5033.400406,3923.091493,-1838.629195
560.128826,3849.070898,6365.771101,0.000000
560.129146,4589.276840,7031.956449,689.485948
560.129467,5773.606348,7624.121203,-842.705048
560.129788,6291.750507,7994.224174,-1532.190996
560.130108,6809.894666,8882.471304,-1455.581446
560.130429,7031.956449,9326.594869,-766.095498
560.130750,5773.606348,9474.636058,-689.485948
560.131070,4737.318029,9400.615463,-919.314598
560.131391,5773.606348,8142.265362,-536.266849
560.131712,4885.359217,7920.203579,-919.314598
560.132032,5699.585753,8290.306550,536.266849
560.132353,5107.421000,7920.203579,842.705048
560.132674,3701.029710,6291.750507,-459.657299
560.132994,2516.700203,5181.441594,-1302.362347
560.133315,2368.659014,4737.318029,0.000000
560.133636,4885.359217,7031.956449,2681.334243
560.133957,4589.276840,7698.141797,2834.553343
560.134277,3627.009116,8512.368333,0.000000
560.134598,5477.523971,9326.594869,-1915.238745
560.134919,5995.668130,9326.594869,-1149.143247
560.135239,6291.750507,9992.780217,-229.828649
560.135560,8364.327145,10214.842000,306.438199
560.135881,6365.771101,9104.533087,-536.266849
560.136201,5995.668130,6365.771101,-995.924147
560.136522,6291.750507,5477.523971,-459.657299
560.136843,4367.215058,6217.729913,-689.485948
560.137163,4293.194464,6587.832884,-1455.581446
560.137484,5847.626942,7994.224174,76.609550
560.137805,6291.750507,8142.265362,919.314598
560.138125,5995.668130,9992.780217,1072.533697
560.138446,5181.441594,10288.862594,-612.876398
560.138767,2368.659014,8586.388927,-3370.820191
560.139088,3182.885551,9992.780217,-995.924147
560.139408,6809.894666,10584.944971,1608.800546
560.139729,5403.503377,10584.944971,0.000000
560.140050,3775.050304,8142.265362,-766.095498
560.140370,2812.782580,8364.327145,-153.219100
560.140691,1998.556043,9326.594869,1302.362347
560.141012,2590.720797,7994.224174,2374.896044
560.141332,4145.153275,7105.977043,1302.362347
560.141653,5181.441594,6439.791695,-1378.971896
560.141974,3701.029710,8142.265362,-459.657299
560.142294,5181.441594,11325.150913,1685.410096
560.142615,4589.276840,10955.047942,536.266849
560.142936,6439.791695,10658.965565,459.657299
560.143257,7031.956449,8882.471304,306.438199
560.143577,4441.235652,6661.853478,76.609550
560.143898,4589.276840,7402.059420,-229.828649
560.144219,3701.029710,7105.977043,-76.609550
560.144539,4589.276840,7179.997637,-919.314598
560.144860,5329.482782,6069.688724,459.657299
560.145181,6217.729913,6513.812290,612.876398
560.145501,5551.544565,6217.729913,459.657299
560.145822,5181.441594,7179.997637,229.828649
560.146143,4885.359217,7179.997637,-1302.362347
560.146463,4737.318029,5995.668130,-2145.067394
560.146784,7624.121203,5773.606348,-689.485948
560.147105,7846.182985,7105.977043,1072.533697
560.147425,6513.812290,9770.718434,-306.438199
560.147746,5255.462188,11325.150913,-1838.629195
560.148067,3034.844362,9400.615463,-3753.867940
560.148388,3923.091493,7550.100608,-2681.334243
560.148708,6735.874072,9400.615463,1455.581446
560.149029,4737.318029,10288.862594,1991.848295
560.149350,1702.473667,7846.182985,383.047749
560.149670,3775.050304,7698.141797,383.047749
560.149991,1924.535449,6069.688724,383.047749
560.150312,2220.617826,5255.462188,1149.143247
560.150632,4737.318029,6439.791695,2068.457845
560.150953,4811.338623,6957.935855,766.095498
560.151274,5773.606348,6735.874072,0.000000
560.151594,7105.977043,6809.894666,-383.047749
560.151915,7476.080014,8290.306550,-2298.286494
560.152236,6587.832884,9844.739029,-1608.800546
560.152556,7105.977043,11843.295072,-306.438199
560.152877,6439.791695,11103.089130,-1838.629195
560.153198,7105.977043,9696.697840,-1608.800546
560.153519,6883.915261,8512.368333,-2374.896044
560.153839,5107.421000,8882.471304,-1532.190996
560.154160,2960.823768,8882.471304,-842.705048
560.154481,2368.659014,7476.080014,0.000000
560.154801,3330.926739,5181.441594,229.828649
560.155122,4071.132681,5699.585753,1532.190996
560.155443,2294.638420,7105.977043,1149.143247
560.155763,1480.411884,6735.874072,-766.095498
560.156084,5329.482782,8660.409521,-1915.238745
560.156405,6365.771101,11547.212695,229.828649
560.156725,5255.462188,12213.398043,0.000000
560.157046,6513.812290,11251.130318,-383.047749
560.157367,5699.585753,8882.471304,-536.266849
560.157687,5181.441594,9770.718434,229.828649
560.158008,5551.544565,8956.491898,0.000000
560.158329,4811.338623,7846.182985,-2298.286494
560.158650,6143.709319,9474.636058,-842.705048
560.158970,4737.318029,8068.244768,2145.067394
560.159291,3923.091493,5107.421000,1455.581446
560.159612,4589.276840,3997.112087,0.000000
560.159932,3701.029710,6069.688724,-766.095498
560.160253,1702.473667,7476.080014,-919.314598
560.160574,3923.091493,6735.874072,-153.219100
560.160894,7328.038826,8290.306550,766.095498
560.161215,6513.812290,10732.986159,2221.676944
560.161536,5329.482782,10732.986159,383.047749
560.161856,5773.606348,10658.965565,-1991.848295
560.162177,4959.379811,9474.636058,-2681.334243
560.162498,5329.482782,8364.327145,-842.705048
560.162819,8586.388927,7105.977043,612.876398
560.163139,5033.400406,6217.729913,-459.657299
560.163460,5255.462188,6661.853478,-459.657299
560.163781,6365.771101,6957.935855,0.000000
560.164101,3552.988522,5699.585753,0.000000
560.164422,3775.050304,5773.606348,153.219100
560.164743,5477.523971,5625.565159,2221.676944
560.165063,5255.462188,6365.771101,842.705048
560.165384,4367.215058,7402.059420,536.266849
560.165705,5995.668130,9400.615463,-919.314598
560.166025,3997.112087,9548.656652,-1991.848295
560.166346,2368.659014,9178.553681,-1149.143247
560.166667,4145.153275,10288.862594,995.924147
560.166987,6587.832884,10807.006753,536.266849
560.167308,3775.050304,8290.306550,995.924147
560.167629,4145.153275,7105.977043,153.219100
560.167950,4219.173869,7105.977043,306.438199
560.168270,3478.967927,7476.080014,766.095498
560.168591,3997.112087,5995.668130,1838.629195
560.168912,4737.318029,4441.235652,229.828649
560.169232,5995.668130,5255.462188,306.438199
560.169553,6365.771101,8068.244768,612.876398
560.169874,5033.400406,8438.347739,-1455.581446
560.170194,7476.080014,10214.842000,-2145.067394
560.170515,7254.018232,10510.924376,-612.876398
560.170836,5699.585753,9178.553681,-1608.800546
560.171156,5699.585753,8956.491898,-1149.143247
560.171477,4367.215058,10066.800811,-766.095498
560.171798,3997.112087,11695.253884,-1608.800546
560.172118,4663.297435,9474.636058,-536.266849
560.172439,4737.318029,8438.347739,0.000000
560.172760,4441.235652,7105.977043,1149.143247
560.173081,4811.338623,6513.812290,2528.115143
560.173401,3478.967927,7105.977043,1225.752797
560.173722,1776.494261,6661.853478,-995.924147
560.174043,4367.215058,5477.523971,0.000000
560.174363,8068.244768,6365.771101,1455.581446
560.174684,7624.121203,9400.615463,1072.533697
560.175005,8364.327145,12361.439231,76.609550
560.175325,7328.038826,11251.130318,-2221.676944
560.175646,4145.153275,8290.306550,-3677.258390
560.175967,7031.956449,8290.306550,-919.314598
560.176287,7402.059420,8142.265362,842.705048
560.176608,5921.647536,7624.121203,-153.219100
560.176929,6883.915261,8956.491898,-766.095498
560.177250,3849.070898,7476.080014,-229.828649
560.177570,3478.967927,6439.791695,-536.266849
560.177891,4737.318029,5773.606348,1915.238745
560.178211,4219.173869,5625.565159,2528.115143
560.178532,4071.132681,5107.421000,1455.581446
560.178852,5107.421000,6439.791695,0.000000
560.179173,4885.359217,8586.388927,-1991.848295
560.179493,3997.112087,10955.047942,-1378.971896
560.179814,4959.379811,12139.377449,1149.143247
560.180134,5403.503377,11621.233289,0.000000
560.180455,4737.318029,10584.944971,-766.095498
560.180775,3849.070898,9104.533087,-153.219100
560.181096,3478.967927,8364.327145,-919.314598
560.181416,1406.391290,8364.327145,0.000000
560.181737,1184.329507,8142.265362,766.095498
560.182057,3552.988522,6661.853478,995.924147
560.182378,3997.112087,4737.318029,1685.410096
560.182698,2590.720797,7105.977043,2145.067394
560.183019,2442.679609,7772.162391,1072.533697
560.183339,3627.009116,6587.832884,0.000000
560.183660,6735.874072,6291.750507,-383.047749
560.183980,8734.430116,6883.915261,689.485948
560.184301,7772.162391,8364.327145,-383.047749
560.184621,6735.874072,8512.368333,-1532.190996
560.184942,5773.606348,9030.512492,-3064.381992
560.185262,8142.265362,9252.574275,-2528.115143
560.185583,10140.821405,8882.471304,-1072.533697
560.185903,8734.430116,7476.080014,-1072.533697
560.186224,6069.688724,5773.606348,-1915.238745
560.186544,5773.606348,6513.812290,229.828649
560.186865,4811.338623,6439.791695,1608.800546
560.187185,3182.885551,5921.647536,612.876398
560.187506,4811.338623,5921.647536,-689.485948
560.187826,5181.441594,6365.771101,-612.876398
560.188147,4071.132681,7920.203579,153.219100
560.188467,4441.235652,10510.924376,1149.143247
560.188788,3330.926739,9918.759623,536.266849
560.189108,2960.823768,9104.533087,-612.876398
560.189429,5181.441594,9178.553681,0.000000
560.189749,4293.194464,9178.553681,383.047749
560.190070,4145.153275,9474.636058,-153.219100
560.190390,5477.523971,10807.006753,0.000000
560.190711,4293.194464,10510.924376,-995.924147
560.191031,5107.421000,7846.182985,-536.266849
560.191352,7846.182985,5699.585753,1225.752797
560.191672,5551.544565,5107.421000,1149.143247
560.191993,3627.009116,6365.771101,459.657299
560.192313,5107.421000,6661.853478,-306.438199
560.192634,7105.977043,7698.141797,-229.828649
560.192954,7698.141797,8660.409521,1072.533697
560.193275,7624.121203,10881.027347,919.314598
560.193595,6291.750507,10510.924376,-2528.115143
560.193916,2516.700203,8068.244768,-4213.525239
560.194236,4071.132681,7994.224174,-1685.410096
560.194557,6587.832884,8882.471304,229.828649
560.194877,4367.215058,7920.203579,919.314598
560.195198,1924.535449,7402.059420,-76.609550
560.195518,3256.906145,8808.450710,76.609550
560.195839,3034.844362,9474.636058,842.705048
560.196159,2516.700203,8438.347739,229.828649
560.196480,3108.864956,6069.688724,-766.095498
560.196800,4589.276840,5255.462188,-612.876398
560.197121,6143.709319,7698.141797,1378.971896
560.197441,5181.441594,9104.533087,1685.410096
560.197762,5255.462188,10140.821405,-1302.362347
560.198082,5995.668130,10140.821405,-2374.896044
560.198403,6069.688724,8142.265362,-76.609550
560.198723,7105.977043,8586.388927,995.924147
560.199044,6439.791695,7179.997637,1072.533697
560.199364,6069.688724,8290.306550,-842.705048
560.199685,4663.297435,7698.141797,-2068.457845
560.200005,3997.112087,6439.791695,-689.485948
560.200326,7550.100608,6587.832884,1302.362347
560.200646,5181.441594,5699.585753,1915.238745
560.200967,3997.112087,5329.482782,153.219100
560.201287,5551.544565,6439.791695,842.705048
560.201608,6217.729913,6661.853478,842.705048
560.201928,5625.565159,7920.203579,842.705048
560.202249,7254.018232,9400.615463,0.000000
560.202569,6143.709319,9400.615463,-2145.067394
560.202890,4959.379811,9918.759623,-2681.334243
560.203210,5181.441594,9474.636058,-536.266849
560.203531,6587.832884,9178.553681,-689.485948
560.203851,6365.771101,8956.491898,-229.828649
560.204172,3108.864956,8438.347739,0.000000
560.204492,2886.803174,9474.636058,0.000000
560.204813,2442.679609,8660.409521,1455.581446
560.205133,4367.215058,7105.977043,1608.800546
560.205454,4293.194464,5699.585753,995.924147
560.205774,3701.029710,5033.400406,689.485948
560.206095,4293.194464,6069.688724,842.705048
560.206415,5033.400406,9696.697840,536.266849
560.206736,4589.276840,9992.780217,536.266849
560.207056,6143.709319,9178.553681,-383.047749
560.207377,7920.203579,8068.244768,-1302.362347
560.207697,5477.523971,9622.677246,-612.876398
560.208018,5773.606348,9770.718434,-383.047749
560.208338,5847.626942,8660.409521,-1608.800546
560.208659,5847.626942,7550.100608,-1225.752797
560.208979,5255.462188,7994.224174,0.000000
560.209300,4589.276840,7550.100608,459.657299
560.209620,4663.297435,7476.080014,-919.314598
560.209941,3478.967927,7772.162391,-842.705048
560.210261,2738.761985,7698.141797,0.000000
560.210582,4219.173869,7920.203579,0.000000
560.210902,4145.153275,7772.162391,536.266849
560.211223,2516.700203,9030.512492,-766.095498
560.211543,3701.029710,10362.883188,459.657299
560.211864,4293.194464,10288.862594,-459.657299
560.212184,4145.153275,9548.656652,-1072.533697
560.212505,6143.709319,8734.430116,-842.705048
560.212825,5107.421000,7920.203579,-1302.362347
560.213146,5773.606348,8512.368333,229.828649
560.213466,4737.318029,7698.141797,1225.752797
560.213787,4145.153275,5699.585753,306.438199
560.214107,5181.441594,5255.462188,0.000000
560.214428,7476.080014,5477.523971,229.828649
560.214748,6365.771101,6957.935855,842.705048
560.215069,5921.647536,5699.585753,0.000000
560.215389,8216.285956,6735.874072,-1149.143247
560.215710,6735.874072,8660.409521,-306.438199
560.216030,5255.462188,8142.265362,0.000000
560.216351,6587.832884,9030.512492,153.219100
560.216671,5403.503377,9252.574275,-1225.752797
560.216992,4515.256246,9622.677246,-2911.162892
560.217312,5921.647536,9474.636058,-2374.896044
560.217633,5921.647536,9770.718434,-1608.800546
560.217953,3256.906145,9474.636058,0.000000
560.218274,2294.638420,7920.203579,1225.752797
560.218594,4515.256246,7772.162391,612.876398
560.218915,3997.112087,6661.853478,1915.238745
560.219235,1184.329507,7105.977043,2298.286494
560.219556,1998.556043,6587.832884,0.000000
560.219876,5329.482782,7624.121203,-766.095498
560.220197,6069.688724,9400.615463,536.266849
560.220517,5255.462188,9770.718434,1378.971896
560.220838,5773.606348,11103.089130,-919.314598
560.221158,4959.379811,11695.253884,-1149.143247
560.221479,2812.782580,10288.862594,-153.219100
560.221799,6809.894666,8216.285956,995.924147
560.222120,7698.141797,8068.244768,1149.143247
560.222440,3256.906145,7772.162391,-919.314598
560.222761,2442.679609,8068.244768,-1762.019645
560.223081,5181.441594,7698.141797,-536.266849
560.223402,5181.441594,6143.709319,995.924147
560.223722,4441.235652,5329.482782,1915.238745
560.224043,4367.215058,4811.338623,-842.705048
560.224363,3478.967927,5329.482782,-2987.772442
560.224684,3923.091493,7179.997637,0.000000
560.225004,6809.894666,9474.636058,1532.190996
560.225325,9696.697840,11547.212695,-459.657299
560.225645,5995.668130,10584.944971,-2911.162892
560.225966,4959.379811,9474.636058,-3600.648841
560.226286,6809.894666,8956.491898,-459.657299
560.226607,6735.874072,8068.244768,1455.581446
560.226927,5107.421000,6735.874072,0.000000
560.227248,4219.173869,6365.771101,-1838.629195
560.227568,3775.050304,6957.935855,-1225.752797
560.227889,3330.926739,7328.038826,1378.971896
560.228209,4071.132681,5921.647536,2221.676944
560.228530,4811.338623,4959.379811,76.609550
560.228850,4367.215058,4811.338623,-1149.143247
560.229171,3552.988522,7179.997637,0.000000
560.229491,4737.318029,10288.862594,383.047749
560.229812,4589.276840,11547.212695,0.000000
560.230132,4959.379811,11251.130318,-612.876398
560.230453,5181.441594,10214.842000,-766.095498
560.230773,5181.441594,10881.027347,-1378.971896
560.231094,5255.462188,11843.295072,-229.828649
560.231414,3775.050304,8882.471304,-1149.143247
560.231735,3775.050304,8068.244768,-1149.143247
560.232055,4145.153275,6513.812290,536.266849
560.232376,2812.782580,5403.503377,1302.362347
560.232696,4441.235652,6587.832884,1455.581446
560.233017,4885.359217,7994.224174,459.657299
560.233337,3330.926739,6809.894666,-612.876398
560.233658,5403.503377,6291.750507,-306.438199
560.233978,6661.853478,7920.203579,-76.609550
560.234299,7105.977043,11843.295072,-766.095498
560.234619,5921.647536,12065.356855,-995.924147
560.234940,5181.441594,10881.027347,-1302.362347
560.235260,6439.791695,9474.636058,-1302.362347
560.235581,6365.771101,9400.615463,-306.438199
560.235901,4219.173869,7624.121203,-919.314598
560.236222,4737.318029,7105.977043,-536.266849
560.236542,4293.194464,7105.977043,229.828649
560.236863,4145.153275,5033.400406,459.657299
560.237183,4145.153275,4737.318029,919.314598
560.237504,4589.276840,5699.585753,-689.485948
560.237824,2664.741391,6513.812290,-995.924147
560.238145,5995.668130,7772.162391,689.485948
560.238465,7254.018232,9918.759623,0.000000
560.238786,6809.894666,10881.027347,-1225.752797
560.239106,5477.523971,10436.903782,-2451.505594
560.239427,5255.462188,8956.491898,-2298.286494
560.239747,4293.194464,8660.409521,-306.438199
560.240068,5995.668130,9474.636058,1991.848295
560.240388,4959.379811,7550.100608,0.000000
560.240709,4219.173869,7328.038826,-1762.019645
560.241029,4811.338623,9178.553681,-76.609550
560.241350,2960.823768,6957.935855,1149.143247
560.241670,3627.009116,4071.132681,612.876398
560.241991,5403.503377,3552.988522,1455.581446
560.242311,3775.050304,4737.318029,919.314598
560.242632,5329.482782,6587.832884,1532.190996
560.242952,6439.791695,7624.121203,76.609550
560.243273,6365.771101,9030.512492,-2681.334243
560.243593,7846.182985,10955.047942,-1762.019645
560.243914,7105.977043,10658.965565,-1762.019645
560.244234,6439.791695,10214.842000,-2068.457845
560.244555,7476.080014,9178.553681,0.000000
560.244875,6143.709319,9326.594869,-612.876398
560.245196,4219.173869,8290.306550,-2221.676944
560.245516,3404.947333,8808.450710,-536.266849
560.245837,2812.782580,8734.430116,842.705048
560.246157,3997.112087,6809.894666,2221.676944
560.246478,2812.782580,5255.462188,2757.943793
560.246798,3256.906145,5329.482782,2221.676944
560.247119,2146.597232,4737.318029,1378.971896
560.247439,3404.947333,6365.771101,995.924147
560.247760,3923.091493,8290.306550,-229.828649
560.248080,5551.544565,11399.171507,0.000000
560.248401,6735.874072,12065.356855,0.000000
560.248721,6809.894666,10732.986159,-612.876398
560.249042,7254.018232,9178.553681,-1915.238745
560.249362,5477.523971,9178.553681,-1838.629195
560.249683,4145.153275,9474.636058,-2068.457845
560.250003,4885.359217,9548.656652,-995.924147
560.250324,4219.173869,8660.409521,0.000000
560.250644,3701.029710,6439.791695,919.314598
560.250965,4737.318029,7254.018232,2068.457845
560.251285,3108.864956,7031.956449,842.705048
560.251606,444.123565,5773.606348,76.609550
560.251926,4959.379811,7031.956449,306.438199
560.252247,5625.565159,8808.450710,612.876398
560.252567,4367.215058,8438.347739,1915.238745
560.252888,5255.462188,7920.203579,1072.533697
560.253208,5625.565159,9400.615463,-1225.752797
560.253529,4367.215058,9474.636058,-1072.533697
560.253849,5181.441594,8734.430116,-2068.457845
560.254170,6809.894666,7698.141797,-3294.210641
560.254490,6513.812290,8216.285956,-1608.800546
560.254811,5847.626942,9104.533087,1302.362347
560.255131,5773.606348,7328.038826,229.828649
560.255452,7254.018232,5847.626942,-995.924147
560.255772,5033.400406,5625.565159,-229.828649
560.256093,4737.318029,4959.379811,689.485948
560.256413,7031.956449,5699.585753,536.266849
560.256734,6513.812290,7105.977043,919.314598
560.257054,5921.647536,8956.491898,-459.657299
560.257375,7550.100608,10140.821405,-612.876398
560.257695,5699.585753,8660.409521,-1608.800546
560.258016,5107.421000,8808.450710,-383.047749
560.258336,5181.441594,8290.306550,1225.752797
560.258657,5255.462188,7624.121203,-612.876398
560.258977,4885.359217,7624.121203,-919.314598
560.259298,4811.338623,8808.450710,-459.657299
560.259618,3849.070898,7920.203579,306.438199
560.259939,4663.297435,6957.935855,766.095498
560.260259,5995.668130,7105.977043,1532.190996
560.260580,5551.544565,5477.523971,-306.438199
560.260900,4441.235652,4737.318029,-1149.143247
560.261221,5181.441594,8438.347739,-536.266849
560.261541,5255.462188,11547.212695,-459.657299
560.261862,5181.441594,11843.295072,0.000000
560.262182,8660.409521,10066.800811,-153.219100
560.262503,6957.935855,9326.594869,-1302.362347
560.262823,3330.926739,8734.430116,-1072.533697
560.263144,2960.823768,8882.471304,-306.438199
560.263464,3256.906145,8364.327145,383.047749
560.263784,3627.009116,7105.977043,919.314598
560.264105,3849.070898,7402.059420,1455.581446
560.264425,4367.215058,6809.894666,-536.266849
560.264746,1480.411884,7624.121203,-1225.752797
560.265066,1850.514855,8142.265362,76.609550
560.265387,3923.091493,7624.121203,0.000000
560.265707,5847.626942,7254.018232,229.828649
560.266028,4885.359217,7698.141797,842.705048
560.266348,6439.791695,11547.212695,229.828649
560.266669,4959.379811,12805.562797,-766.095498
560.266989,3923.091493,11547.212695,-2374.896044
560.267310,5033.400406,8290.306550,-2911.162892
560.267630,6957.935855,7105.977043,-1149.143247
560.267951,7105.977043,7772.162391,842.705048
560.268271,3478.967927,7994.224174,1608.800546
560.268592,2590.720797,7402.059420,-459.657299
560.268912,3997.112087,6291.750507,-229.828649
560.269233,4367.215058,5551.544565,2681.334243
560.269553,5033.400406,5551.544565,3064.381992
560.269874,5329.482782,5255.462188,919.314598
560.270194,5773.606348,6217.729913,-766.095498
560.270515,5477.523971,9252.574275,-1455.581446
560.270835,4441.235652,9770.718434,-2068.457845
560.271156,7624.121203,9992.780217,-1225.752797
560.271476,8142.265362,9326.594869,-383.047749
560.271797,7994.224174,9400.615463,0.000000
560.272117,6587.832884,8882.471304,0.000000
560.272438,5995.668130,8586.388927,-1455.581446
560.272758,4959.379811,8290.306550,-1072.533697
560.273079,4145.153275,7476.080014,536.266849
560.273399,6439.791695,4737.318029,1991.848295
560.273720,6365.771101,2738.761985,1915.238745
560.274040,4737.318029,3552.988522,995.924147
560.274361,2960.823768,6513.812290,536.266849
560.274681,3478.967927,7328.038826,-1302.362347
560.275002,6143.709319,7328.038826,-612.876398
560.275322,9178.553681,7846.182985,995.924147
560.275643,8364.327145,8512.368333,383.047749
560.275963,5625.565159,9474.636058,-1838.629195
560.276284,4589.276840,9770.718434,-2834.553343
560.276604,5181.441594,10140.821405,-995.924147
560.276925,7254.018232,9474.636058,459.657299
560.277246,6365.771101,7920.203579,-153.219100
560.277566,5477.523971,7179.997637,-995.924147
560.277887,2664.741391,7402.059420,0.000000
560.278207,3256.906145,7254.018232,2298.286494
560.278528,4663.297435,5699.585753,2298.286494
560.278848,3997.112087,4811.338623,919.314598
560.279169,2516.700203,5403.503377,383.047749
560.279489,4219.173869,7550.100608,842.705048
560.279810,4367.215058,11473.192101,995.924147
560.280130,3034.844362,12213.398043,-1378.971896
560.280451,4145.153275,10140.821405,-2298.286494
560.280771,5033.400406,8956.491898,-2451.505594
560.281092,4737.318029,9622.677246,-612.876398
560.281412,3478.967927,10955.047942,1225.752797
560.281733,3701.029710,9844.739029,-1378.971896
560.282053,4145.153275,9844.739029,-3447.429741
560.282374,3997.112087,8290.306550,-536.266849
560.282695,5329.482782,7698.141797,2451.505594
560.283015,6143.709319,5995.668130,3370.820191
560.283336,4589.276840,5255.462188,1608.800546
560.283656,4293.194464,5625.565159,-459.657299
560.283977,4293.194464,6365.771101,-1838.629195
560.284297,5699.585753,8734.430116,-919.314598
560.284618,6735.874072,10214.842000,689.485948
560.284938,6735.874072,9770.718434,0.000000
560.285259,6957.935855,9474.636058,-919.314598
560.285579,5255.462188,9548.656652,-1762.019645
560.285900,3849.070898,9474.636058,-1225.752797
560.286220,4071.132681,8290.306550,-1532.190996
560.286541,6069.688724,7476.080014,-536.266849
560.286861,6513.812290,7179.997637,1302.362347
560.287182,5255.462188,6439.791695,2145.067394
560.287502,4663.297435,6143.709319,1455.581446
560.287823,3478.967927,6217.729913,-766.095498
560.288144,2516.700203,4737.318029,-306.438199
560.288464,7624.121203,5033.400406,919.314598
560.288785,8660.409521,7105.977043,919.314598
560.289105,5403.503377,9252.574275,-2068.457845
560.289426,5329.482782,9844.739029,-2298.286494
560.289746,5773.606348,10362.883188,-766.095498
560.290067,6217.729913,9918.759623,842.705048
560.290387,5625.565159,8734.430116,459.657299
560.290708,3923.091493,7772.162391,-3064.381992
560.291028,4145.153275,8808.450710,-2834.553343
560.291349,4145.153275,9030.512492,1762.019645
560.291669,4737.318029,7846.182985,2987.772442
560.291990,5995.668130,6291.750507,1532.190996
560.292310,3404.947333,4145.153275,0.000000
560.292631,1998.556043,3849.070898,459.657299
560.292952,4367.215058,6143.709319,2681.334243
560.293272,5477.523971,7772.162391,1455.581446
560.293593,5625.565159,8512.368333,-1838.629195
560.293913,7179.997637,8808.450710,-3217.601092
560.294234,7476.080014,9178.553681,-2451.505594
560.294554,6143.709319,10288.862594,459.657299
560.294875,5033.400406,8734.430116,612.876398
560.295195,5921.647536,8882.471304,-2528.115143
560.295516,5329.482782,8734.430116,-2681.334243
560.295836,5181.441594,8808.450710,-229.828649
560.296157,5625.565159,8438.347739,1685.410096
560.296477,4811.338623,7031.956449,1455.581446
560.296798,2812.782580,6291.750507,842.705048
560.297118,2664.741391,5255.462188,612.876398
560.297439,3108.864956,5107.421000,0.000000
560.297759,4885.359217,6661.853478,0.000000
560.298080,5403.503377,9474.636058,-306.438199
560.298401,5847.626942,10584.944971,-919.314598
560.298721,4885.359217,11399.171507,-1378.971896
560.299042,5625.565159,11251.130318,-612.876398
560.299362,4293.194464,9918.759623,-1149.143247
560.299683,3997.112087,8882.471304,-1532.190996
560.300003,4737.318029,9178.553681,-689.485948
560.300324,6143.709319,9474.636058,536.266849
560.300644,4441.235652,8586.388927,306.438199
560.300965,3997.112087,7624.121203,0.000000
560.301285,3108.864956,7476.080014,842.705048
560.301606,2220.617826,7476.080014,1915.238745
560.301926,2442.679609,5773.606348,1455.581446
560.302247,6513.812290,5329.482782,0.000000
560.302567,4737.318029,7846.182985,-2068.457845
560.302888,3849.070898,9474.636058,-1991.848295
560.303209,5625.565159,10510.924376,0.000000
560.303529,6513.812290,10214.842000,-76.609550
560.303850,5403.503377,9252.574275,-1072.533697
560.304170,5921.647536,9178.553681,-1838.629195
560.304491,5477.523971,8734.430116,-3524.039291
560.304811,5107.421000,8882.471304,-689.485948
560.305132,5699.585753,8068.244768,1149.143247
560.305452,6735.874072,6513.812290,229.828649
560.305773,4589.276840,4515.256246,766.095498
560.306093,4737.318029,5477.523971,1149.143247
560.306414,5107.421000,6365.771101,1608.800546
560.306734,4663.297435,7550.100608,0.000000
560.307055,6587.832884,8882.471304,-689.485948
560.307375,6143.709319,8660.409521,-766.095498
560.307696,5033.400406,8882.471304,-306.438199
560.308016,4959.379811,8956.491898,1455.581446
560.308337,4219.173869,9326.594869,0.000000
560.308658,4219.173869,8364.327145,-1532.190996
560.308978,4219.173869,8512.368333,-1608.800546
560.309299,4071.132681,8290.306550,-612.876398
560.309619,6365.771101,8512.368333,1455.581446
560.309940,4885.359217,7772.162391,2604.724693
560.310260,5033.400406,6735.874072,1302.362347
560.310581,3552.988522,5403.503377,536.266849
560.310901,2738.761985,4145.153275,-383.047749
560.311222,4959.379811,5255.462188,-919.314598
560.311542,7994.224174,7698.141797,766.095498
560.311863,8216.285956,10807.006753,-229.828649
560.312183,6365.771101,11917.315666,-1915.238745
560.312504,5033.400406,9178.553681,-3140.991542
560.312824,5921.647536,8512.368333,-1302.362347
560.313145,4959.379811,8438.347739,2374.896044
560.313465,5181.441594,7994.224174,1838.629195
560.313786,5107.421000,7105.977043,-1302.362347
560.314107,4811.338623,6809.894666,-2298.286494
560.314427,4441.235652,8142.265362,-459.657299
560.314748,4145.153275,7624.121203,1302.362347
560.315068,3552.988522,5181.441594,1455.581446
560.315389,6291.750507,5403.503377,1378.971896
560.315709,5255.462188,5921.647536,536.266849
560.316030,4293.194464,6661.853478,-766.095498
560.316350,4811.338623,9030.512492,-1532.190996
560.316671,6439.791695,11547.212695,-536.266849
560.316991,5921.647536,11177.109724,-383.047749
560.317312,5921.647536,9770.718434,-1225.752797
560.317632,5329.482782,9918.759623,-2757.943793
560.317953,3108.864956,10362.883188,-1225.752797
560.318273,1702.473667,10066.800811,306.438199
560.318594,4293.194464,10288.862594,383.047749
560.318915,3330.926739,9030.512492,919.314598
560.319235,1036.288319,5773.606348,1072.533697
560.319556,2738.761985,6365.771101,842.705048
560.319876,1998.556043,7476.080014,766.095498
560.320197,1184.329507,7105.977043,153.219100
560.320517,4811.338623,7476.080014,306.438199
560.320838,5773.606348,9252.574275,-1072.533697
560.321158,5477.523971,11029.068536,612.876398
560.321479,5403.503377,11325.150913,1149.143247
560.321799,5403.503377,9622.677246,-1991.848295
560.322120,4811.338623,8512.368333,-3064.381992
560.322440,5773.606348,7179.997637,-1608.800546
560.322761,6735.874072,7624.121203,-1378.971896
560.323081,6809.894666,8734.430116,383.047749
560.323402,5921.647536,8290.306550,1225.752797
560.323722,5255.462188,7476.080014,995.924147
560.324043,4071.132681,5255.462188,842.705048
560.324364,3330.926739,4737.318029,766.095498
560.324684,3849.070898,4811.338623,1455.581446
560.325005,5995.668130,6587.832884,-383.047749
560.325325,5625.565159,8438.347739,-306.438199
560.325646,4885.359217,9844.739029,-1762.019645
560.325966,5477.523971,11251.130318,-2451.505594
560.326287,4737.318029,10214.842000,-1225.752797
560.326607,5181.441594,8364.327145,-536.266849
560.326928,6217.729913,7254.018232,383.047749
560.327248,5255.462188,7179.997637,229.828649
560.327569,4811.338623,7846.182985,-153.219100
560.327889,4737.318029,6735.874072,-766.095498
560.328210,5699.585753,5847.626942,-459.657299
560.328530,6809.894666,6809.894666,1455.581446
560.328851,6069.688724,6365.771101,1225.752797
560.329172,5773.606348,4811.338623,-842.705048
560.329492,8142.265362,4959.379811,459.657299
560.329813,6957.935855,6587.832884,919.314598
560.330133,5995.668130,8956.491898,153.219100
560.330454,5773.606348,9918.759623,-536.266849
560.330774,5477.523971,9770.718434,-2221.676944
560.331095,5625.565159,9770.718434,-919.314598
560.331415,5699.585753,9474.636058,-536.266849
560.331736,4737.318029,8956.491898,-1838.629195
560.332056,2368.659014,8808.450710,-1302.362347
560.332377,2072.576638,9400.615463,0.000000
560.332697,3627.009116,8956.491898,2451.505594
560.333018,2516.700203,6957.935855,3907.087040
560.333338,1998.556043,6661.853478,2298.286494
560.333659,2368.659014,6809.894666,0.000000
560.333979,2072.576638,8068.244768,-689.485948
560.334300,4663.297435,9992.780217,-459.657299
560.334621,4811.338623,11547.212695,-459.657299
560.334941,5329.482782,10732.986159,-1149.143247
560.335262,6513.812290,10658.965565,-689.485948
560.335582,4219.173869,10807.006753,-383.047749
560.335903,4071.132681,10362.883188,-1149.143247
560.336223,5033.400406,8808.450710,-1455.581446
560.336544,5255.462188,7772.162391,-1991.848295
560.336864,5921.647536,8660.409521,-383.047749
560.337185,3997.112087,7476.080014,2298.286494
560.337505,4293.194464,6661.853478,383.047749
560.337826,4737.318029,5181.441594,689.485948
560.338146,4071.132681,5551.544565,536.266849
560.338467,4811.338623,4959.379811,536.266849
560.338787,6735.874072,6661.853478,229.828649
560.339108,7105.977043,8956.491898,-842.705048
560.339429,6439.791695,9770.718434,-1455.581446
560.339749,6735.874072,9548.656652,-1302.362347
560.340070,7179.997637,9992.780217,-1762.019645
560.340390,5773.606348,8290.306550,-1532.190996
560.340711,6661.853478,7772.162391,-612.876398
560.341031,6513.812290,7328.038826,-1302.362347
560.341352,3849.070898,6513.812290,-1225.752797
560.341672,3997.112087,7772.162391,229.828649
560.341993,3775.050304,7994.224174,0.000000
560.342313,2960.823768,5551.544565,383.047749
560.342634,5995.668130,5551.544565,2681.334243
560.342954,5921.647536,4737.318029,1838.629195
560.343275,4367.215058,6291.750507,-1225.752797
560.343595,5403.503377,7624.121203,-1685.410096
560.343916,5181.441594,9770.718434,-1149.143247
560.344236,7772.162391,9770.718434,536.266849
560.344557,7994.224174,8438.347739,1149.143247
560.344878,6957.935855,9104.533087,-2604.724693
560.345198,4811.338623,8512.368333,-3907.087040
560.345519,4367.215058,7550.100608,-1991.848295
560.345839,5033.400406,7624.121203,-1762.019645
560.346160,7476.080014,8734.430116,229.828649
560.346480,4293.194464,7105.977043,1608.800546
560.346801,4737.318029,6661.853478,229.828649
560.347121,3330.926739,8216.285956,919.314598
560.347442,1776.494261,7846.182985,536.266849
560.347762,3997.112087,8660.409521,-229.828649
560.348083,4885.359217,9474.636058,-919.314598
560.348403,4367.215058,11251.130318,-383.047749
560.348724,5403.503377,11325.150913,1685.410096
560.349044,3775.050304,9622.677246,459.657299
560.349365,3552.988522,9696.697840,-153.219100
560.349685,3701.029710,9252.574275,689.485948
560.350006,4293.194464,9918.759623,-153.219100
560.350327,4219.173869,8956.491898,-689.485948
560.350647,5181.441594,7402.059420,0.000000
560.350968,4589.276840,5699.585753,612.876398
560.351288,4663.297435,5625.565159,76.609550
560.351609,3775.050304,6069.688724,689.485948
560.351929,4737.318029,6883.915261,0.000000
560.352250,7550.100608,6809.894666,-612.876398
560.352570,8068.244768,7772.162391,229.828649
560.352891,7550.100608,9696.697840,-766.095498
560.353211,7254.018232,10658.965565,-1302.362347
560.353532,5477.523971,9918.759623,-2604.724693
560.353852,5181.441594,8142.265362,-1838.629195
560.354173,6217.729913,7031.956449,383.047749
560.354493,5181.441594,6587.832884,2145.067394
560.354814,3552.988522,7254.018232,153.219100
560.355135,1258.350101,6809.894666,-2068.457845
560.355455,2960.823768,7328.038826,-995.924147
560.355776,4145.153275,7254.018232,2298.286494
560.356096,2664.741391,5181.441594,3140.991542
560.356417,7105.977043,5699.585753,919.314598
560.356737,7179.997637,6735.874072,-1302.362347
560.357058,3997.112087,7846.182985,-2374.896044
560.357378,7105.977043,7994.224174,-536.266849
560.357699,9770.718434,7624.121203,1685.410096
560.358019,10288.862594,7698.141797,2145.067394
560.358340,10214.842000,7772.162391,229.828649
560.358660,8808.450710,8660.409521,-2757.943793
560.358981,6217.729913,8068.244768,-4290.134789
560.359301,7105.977043,5995.668130,-919.314598
560.359622,9178.553681,3701.029710,383.047749
560.359942,10066.800811,3404.947333,2145.067394
560.360263,6513.812290,2812.782580,2681.334243
560.360584,6587.832884,5551.544565,0.000000
560.360904,6735.874072,7846.182985,-766.095498
560.361225,5921.647536,6735.874072,0.000000
560.361545,9252.574275,5255.462188,0.000000
560.361866,10658.965565,5699.585753,153.219100
560.362186,9252.574275,8142.265362,229.828649
560.362507,6143.709319,9178.553681,-536.266849
560.362827,6735.874072,6587.832884,-2681.334243
560.363148,7772.162391,5255.462188,-3140.991542
560.363468,9622.677246,6883.915261,306.438199
560.363789,9104.533087,8364.327145,1838.629195
560.364109,9252.574275,9178.553681,1072.533697
560.364430,8142.265362,8142.265362,459.657299
560.364750,7920.203579,5773.606348,995.924147
560.365071,6143.709319,2442.679609,536.266849
560.365392,7698.141797,1702.473667,536.266849
560.365712,8808.450710,1850.514855,306.438199
560.366033,9326.594869,3627.009116,919.314598
560.366353,11177.109724,5107.421000,306.438199
560.366674,11769.274478,7105.977043,-383.047749
560.366994,12361.439231,8734.430116,-766.095498
560.367315,12509.480420,8438.347739,-612.876398
560.367635,9992.780217,3478.967927,-919.314598
560.367956,11695.253884,592.164754,-229.828649
560.368276,11325.150913,962.267725,0.000000
560.368597,9548.656652,2960.823768,-2221.676944
560.368917,8956.491898,5551.544565,-4366.744339
560.369238,11621.233289,8216.285956,-3370.820191
560.369558,10955.047942,7772.162391,-1455.581446
560.369879,10140.821405,5847.626942,1225.752797
560.370199,8216.285956,4293.194464,2451.505594
560.370520,8142.265362,5699.585753,2451.505594
560.370841,6661.853478,6365.771101,2068.457845
560.371161,9030.512492,6291.750507,995.924147
560.371482,8660.409521,5181.441594,-1225.752797
560.371802,7550.100608,5625.565159,-1378.971896
560.372123,7624.121203,5995.668130,689.485948
560.372443,9400.615463,5847.626942,2068.457845
560.372764,9622.677246,4293.194464,1302.362347
560.373084,10955.047942,3701.029710,153.219100
560.373405,10066.800811,3627.009116,-229.828649
560.373725,9696.697840,3849.070898,536.266849
560.374046,11695.253884,4589.276840,1991.848295
560.374366,13619.789333,4885.359217,229.828649
560.374687,13989.892304,6291.750507,-2604.724693
560.375007,12065.356855,5773.606348,-3524.039291
560.375328,10955.047942,4737.318029,-3294.210641
560.375649,11029.068536,3997.112087,-1225.752797
560.375969,9992.780217,4293.194464,459.657299
560.376290,10362.883188,5255.462188,1072.533697
560.376610,9400.615463,6957.935855,229.828649
560.376931,7254.018232,8216.285956,-306.438199
560.377251,5847.626942,7846.182985,306.438199
560.377572,6365.771101,6291.750507,1072.533697
560.377892,5921.647536,6661.853478,306.438199
560.378213,4441.235652,6217.729913,383.047749
560.378533,4589.276840,5329.482782,-306.438199
560.378854,5329.482782,5181.441594,-612.876398
560.379174,5699.585753,6957.935855,1302.362347
560.379495,6587.832884,9474.636058,1302.362347
560.379816,7698.141797,11621.233289,153.219100
560.380136,7772.162391,9178.553681,0.000000
560.380457,7105.977043,5995.668130,612.876398
560.380778,9326.594869,3627.009116,2987.772442
560.381098,9918.759623,3404.947333,2987.772442
560.381419,7624.121203,3404.947333,0.000000
560.381740,9030.512492,3478.967927,-2145.067394
560.382060,11769.274478,3775.050304,-2681.334243
560.382381,13175.665768,3404.947333,76.609550
560.382702,13323.706956,3552.988522,1762.019645
560.383022,14211.954086,3849.070898,-229.828649
560.383343,13101.645173,3552.988522,-2298.286494
560.383664,12805.562797,3775.050304,-1915.238745
560.383984,13249.686362,3923.091493,-995.924147
560.384305,12361.439231,4219.173869,-306.438199
560.384625,11325.150913,4959.379811,-1072.533697
560.384946,10510.924376,5255.462188,-2911.162892
560.385267,9400.615463,3997.112087,-3294.210641
560.385587,9326.594869,3775.050304,-1991.848295
560.385908,8660.409521,5107.421000,536.266849
560.386229,6069.688724,6217.729913,1685.410096
560.386549,5329.482782,6217.729913,1302.362347
560.386870,6069.688724,6365.771101,1149.143247
560.387191,6587.832884,7328.038826,919.314598
560.387511,5551.544565,8216.285956,383.047749
560.387832,5033.400406,8512.368333,0.000000
560.388153,6143.709319,7105.977043,0.000000
560.388473,6439.791695,6069.688724,1225.752797
560.388794,8586.388927,6513.812290,1991.848295
560.389115,8438.347739,7476.080014,766.095498
560.389435,6809.894666,7254.018232,-612.876398
560.389756,9696.697840,5847.626942,0.000000
560.390077,11843.295072,2368.659014,1302.362347
560.390397,13545.768739,444.123565,2068.457845
560.390718,14063.912898,1406.391290,842.705048
560.391039,12435.459826,4071.132681,-2374.896044
560.391359,12953.603985,5403.503377,-4136.915689
560.391680,14582.057057,4811.338623,-2757.943793
560.392001,16728.654289,4071.132681,-1302.362347
560.392321,16506.592507,4293.194464,-689.485948
560.392642,13471.748144,6291.750507,-1762.019645
560.392963,10140.821405,6883.915261,-2834.553343
560.393283,8438.347739,6217.729913,-2681.334243
560.393604,8882.471304,4811.338623,-689.485948
560.393925,9548.656652,4811.338623,919.314598
560.394245,6735.874072,4959.379811,842.705048
560.394566,4737.318029,5551.544565,-689.485948
560.394887,4367.215058,6661.853478,-919.314598
560.395207,4811.338623,8438.347739,766.095498
560.395528,4515.256246,9030.512492,2451.505594
560.395849,5107.421000,9178.553681,2451.505594
560.396169,5995.668130,10214.842000,1838.629195
560.396490,3478.967927,9030.512492,1532.190996
560.396811,3182.885551,6883.915261,1149.143247
560.397131,5921.647536,5033.400406,1225.752797
560.397452,7254.018232,4515.256246,919.314598
560.397773,8438.347739,5773.606348,1302.362347
560.398093,9548.656652,6809.894666,0.000000
560.398414,10436.903782,5107.421000,-612.876398
560.398735,11399.171507,3182.885551,919.314598
560.399055,12805.562797,1110.308913,766.095498
560.399376,14730.098246,296.082377,-153.219100
560.399697,15766.386565,1702.473667,-1838.629195
560.400017,15174.221811,3923.091493,-3064.381992
560.400338,14952.160028,5773.606348,-3600.648841
560.400659,14656.077652,5255.462188,-2681.334243
560.400979,14211.954086,4071.132681,-1991.848295
560.401300,13249.686362,3404.947333,-612.876398
560.401621,11029.068536,3404.947333,-689.485948
560.401941,8660.409521,2886.803174,-1762.019645
560.402262,6735.874072,2516.700203,-2068.457845
560.402583,7772.162391,4145.153275,-306.438199
560.402903,8142.265362,7105.977043,1608.800546
560.403224,7105.977043,9178.553681,1072.533697
560.403545,5995.668130,9474.636058,306.438199
560.403865,4885.359217,8142.265362,459.657299
560.404186,4293.194464,6291.750507,2298.286494
560.404507,4071.132681,5107.421000,2987.772442
560.404827,4737.318029,4959.379811,2528.115143
560.405148,6143.709319,6439.791695,1072.533697
560.405469,7179.997637,7698.141797,689.485948
560.405789,8142.265362,8068.244768,536.266849
560.406110,9770.718434,6661.853478,842.705048
560.406431,10584.944971,4663.297435,1302.362347
560.406751,10807.006753,3775.050304,1149.143247
560.407072,11473.192101,2442.679609,0.000000
560.407393,12657.521608,2812.782580,-689.485948
560.407713,13101.645173,2738.761985,-1378.971896
560.408034,13693.809927,3627.009116,-1608.800546
560.408355,13693.809927,6291.750507,-3294.210641
560.408675,13027.624579,7994.224174,-3983.696590
560.408996,12435.459826,7772.162391,-2604.724693
560.409317,12287.418637,6069.688724,-383.047749
560.409637,10288.862594,4737.318029,1455.581446
560.409958,7920.203579,4737.318029,842.705048
560.410279,6587.832884,5625.565159,-536.266849
560.410599,6439.791695,6661.853478,-1149.143247
560.410920,6661.853478,6735.874072,-766.095498
560.411241,6957.935855,6069.688724,536.266849
560.411561,6365.771101,5329.482782,536.266849
560.411882,5699.585753,5477.523971,1915.238745
560.412203,5551.544565,6439.791695,2221.676944
560.412523,6069.688724,6735.874072,1838.629195
560.412844,7105.977043,6291.750507,1072.533697
560.413165,8068.244768,6143.709319,612.876398
560.413485,8808.450710,6661.853478,153.219100
560.413806,8734.430116,7550.100608,-76.609550
560.414127,9178.553681,7920.203579,-1149.143247
560.414447,10436.903782,7105.977043,-1608.800546
560.414768,10362.883188,5995.668130,-383.047749
560.415089,10288.862594,4441.235652,536.266849
560.415409,9474.636058,2960.823768,536.266849
560.415730,9696.697840,2146.597232,459.657299
560.416051,10732.986159,1702.473667,76.609550
560.416371,11695.253884,1628.453072,-919.314598
560.416692,11991.336260,2368.659014,-995.924147
560.417013,12139.377449,3404.947333,-2221.676944
560.417333,12139.377449,4589.276840,-2451.505594
560.417654,12435.459826,5477.523971,-2757.943793
560.417975,12583.501014,6513.812290,-2298.286494
560.418295,12509.480420,6587.832884,-2298.286494
560.418616,11473.192101,6735.874072,-1608.800546
560.418937,10362.883188,6587.832884,-459.657299
560.419257,9104.533087,5921.647536,689.485948
560.419578,7772.162391,5033.400406,1991.848295
560.419898,7105.977043,4811.338623,1915.238745
560.420219,6809.894666,4663.297435,2451.505594
560.420540,6661.853478,4663.297435,1991.848295
560.420860,6439.791695,4145.153275,1991.848295
560.421181,6809.894666,4441.235652,1225.752797
560.421502,6957.935855,5773.606348,766.095498
560.421822,8216.285956,7550.100608,306.438199
560.422143,9030.512492,8290.306550,306.438199
560.422464,9918.759623,8586.388927,536.266849
560.422784,10140.821405,8364.327145,153.219100
560.423105,10140.821405,7772.162391,0.000000
560.423426,9992.780217,6661.853478,612.876398
560.423746,9548.656652,5033.400406,229.828649
560.424067,9918.759623,3775.050304,-842.705048
560.424388,10510.924376,2590.720797,-536.266849
560.424708,10658.965565,2738.761985,-459.657299
560.425029,10732.986159,3849.070898,-306.438199
560.425350,10584.944971,5403.503377,-383.047749
560.425670,10140.821405,7105.977043,-153.219100
560.425991,9770.718434,7550.100608,306.438199
560.426312,8290.306550,7846.182985,689.485948
560.426632,7254.018232,8142.265362,1685.410096
560.426953,5847.626942,8290.306550,229.828649
560.427274,4293.194464,7994.224174,-536.266849
560.427594,4367.215058,7402.059420,-612.876398
560.427915,4145.153275,7328.038826,-153.219100
560.428236,3627.009116,7846.182985,689.485948
560.428556,3256.906145,9178.553681,1762.019645
560.428877,3256.906145,10510.924376,2987.772442
560.429198,4071.132681,10584.944971,4060.306139
560.429518,5329.482782,10288.862594,5056.230287
560.429839,5625.565159,8956.491898,4826.401637
560.430160,4441.235652,7772.162391,4673.182538
560.430480,4219.173869,7179.997637,4060.306139
560.430801,4737.318029,7254.018232,3830.477490
560.431122,5921.647536,8364.327145,3524.039291
560.431442,6957.935855,9326.594869,3294.210641
560.431763,7179.997637,9326.594869,3370.820191
560.432084,7105.977043,8512.368333,3830.477490
560.432404,7402.059420,7624.121203,4826.401637
560.432725,7402.059420,7105.977043,4136.915689
560.433046,7994.224174,7624.121203,4060.306139
560.433366,7624.121203,7550.100608,4136.915689
560.433687,7772.162391,8142.265362,3677.258390
560.434008,8068.244768,8364.327145,4903.011187
560.434328,7994.224174,8882.471304,6281.983084
560.434649,7105.977043,8290.306550,6971.469032
560.434970,6587.832884,7476.080014,7124.688131
560.435290,5995.668130,6439.791695,6358.592633
560.435611,5255.462188,5477.523971,6894.859482
560.435932,4811.338623,4737.318029,7277.907231
560.436252,5033.400406,5847.626942,7354.516781
560.436573,5477.523971,7105.977043,6818.249932
560.436894,5255.462188,8660.409521,6741.640382
560.437214,4737.318029,8956.491898,6741.640382
560.437535,4811.338623,8660.409521,7048.078582
560.437856,3997.112087,7550.100608,7737.564530
560.438176,3552.988522,6957.935855,7814.174080
560.438497,3256.906145,6661.853478,7354.516781
560.438818,2960.823768,6291.750507,7201.297681
560.439138,2812.782580,6513.812290,7124.688131
560.439459,2516.700203,6513.812290,6128.763984
560.439780,2442.679609,6069.688724,6205.373534
560.440100,2960.823768,6365.771101,6128.763984
560.440421,3552.988522,6883.915261,6741.640382
560.440742,3478.967927,7031.956449,7201.297681
560.441062,3478.967927,6809.894666,6818.249932
560.441383,4441.235652,7179.997637,6435.202183
560.441704,4145.153275,7328.038826,5362.668486
560.442024,4293.194464,6883.915261,4903.011187
560.442345,3775.050304,5477.523971,3600.648841
560.442666,3627.009116,4737.318029,3294.210641
560.442986,3256.906145,4811.338623,2987.772442
560.443307,3256.906145,5033.400406,2681.334243
560.443628,3775.050304,6513.812290,1915.238745
560.443948,5033.400406,8438.347739,1378.971896
560.444269,5625.565159,10214.842000,2451.505594
560.444590,5995.668130,11251.130318,3447.429741
560.444910,5995.668130,11103.089130,3600.648841
560.445231,6365.771101,10288.862594,4213.525239
560.445552,5773.606348,9474.636058,4749.792088
560.445872,5773.606348,9326.594869,6128.763984
560.446193,4811.338623,9474.636058,6588.421283
560.446514,4589.276840,9400.615463,6128.763984
560.446834,3997.112087,8512.368333,6205.373534
560.447155,3108.864956,5847.626942,4903.011187
560.447476,3034.844362,2812.782580,3524.039291
560.447796,4219.173869,1924.535449,2451.505594
560.448117,5477.523971,3849.070898,1072.533697
560.448438,6809.894666,7624.121203,-153.219100
560.448758,8882.471304,13101.645173,-1838.629195
560.449079,11251.130318,17098.757260,-2374.896044
560.449400,10881.027347,19245.354492,-1072.533697
560.449720,10362.883188,17838.963202,1378.971896
560.450041,8956.491898,14137.933492,3753.867940
560.450362,6957.935855,8956.491898,5745.716235
560.450682,6143.709319,6143.709319,7584.345430
560.451003,2812.782580,4959.379811,6971.469032
560.451324,296.082377,5551.544565,4979.620737
560.451644,222.061783,5773.606348,3983.696590
560.451965,3182.885551,5847.626942,4213.525239
560.452286,3997.112087,4811.338623,3447.429741
560.452606,5477.523971,6587.832884,4213.525239
560.452927,6217.729913,9770.718434,3753.867940
560.453248,6291.750507,14137.933492,2681.334243
560.453568,6217.729913,15396.283594,2604.724693
560.453889,8364.327145,15840.407159,2451.505594
560.454210,9326.594869,15248.242405,3294.210641
560.454530,6291.750507,12287.418637,4903.011187
560.454851,4071.132681,7254.018232,7124.688131
560.455172,4589.276840,4737.318029,7890.783629
560.455492,814.226536,3849.070898,7277.907231
560.455813,1332.370696,3849.070898,6281.983084
560.456133,3108.864956,4811.338623,4979.620737
560.456454,4737.318029,5551.544565,6205.373534
560.456775,4293.194464,5255.462188,7507.735880
560.457095,7179.997637,6439.791695,8963.317327
560.457416,7105.977043,10214.842000,8503.660028
560.457737,4663.297435,12435.459826,6818.249932
560.458057,4071.132681,11325.150913,5056.230287
560.458378,6365.771101,9326.594869,3907.087040
560.458699,5033.400406,6365.771101,4749.792088
560.459019,3923.091493,3330.926739,6511.811733
560.459340,6513.812290,5921.647536,7660.954980
560.459661,2738.761985,7846.182985,7201.297681
560.459981,2368.659014,8290.306550,5592.497135
560.460302,3923.091493,6957.935855,5362.668486
560.460623,4959.379811,4811.338623,6971.469032
560.460943,2738.761985,2886.803174,9346.365076
560.461264,5403.503377,4145.153275,9882.631924
560.461585,5699.585753,7698.141797,7507.735880
560.461905,2516.700203,9696.697840,5362.668486
560.462226,1184.329507,7772.162391,4366.744339
560.462547,2812.782580,5107.421000,4673.182538
560.462867,2220.617826,4737.318029,7048.078582
560.463188,2294.638420,6365.771101,9806.022374
560.463509,4515.256246,9326.594869,9116.536426
560.463829,1850.514855,11695.253884,5592.497135
560.464150,2146.597232,11769.274478,3294.210641
560.464471,4145.153275,10214.842000,2681.334243
560.464791,4959.379811,6217.729913,3370.820191
560.465112,3775.050304,2516.700203,4519.963438
560.465433,5773.606348,2590.720797,5669.106685
560.465753,6587.832884,5625.565159,6052.154434
560.466074,5181.441594,7328.038826,5209.449386
560.466395,5699.585753,8438.347739,3370.820191
560.466715,7772.162391,9770.718434,3294.210641
560.467036,6587.832884,10881.027347,5056.230287
560.467357,5699.585753,11177.109724,6818.249932
560.467677,7328.038826,10362.883188,5669.106685
560.467998,6661.853478,8512.368333,3753.867940
560.468319,4811.338623,6883.915261,1149.143247
560.468639,2960.823768,5625.565159,-459.657299
560.468960,4145.153275,6291.750507,612.876398
560.469281,4959.379811,9252.574275,4673.182538
560.469601,6513.812290,11695.253884,6281.983084
560.469922,6661.853478,12509.480420,4903.011187
560.470243,5921.647536,12657.521608,3064.381992
560.470563,4367.215058,12435.459826,2068.457845
560.470884,4663.297435,10288.862594,3294.210641
560.471205,5551.544565,9178.553681,4596.572988
560.471525,5921.647536,8956.491898,4673.182538
560.471846,7105.977043,11251.130318,5439.278036
560.472167,7328.038826,11843.295072,6665.030833
560.472487,6513.812290,11473.192101,5745.716235
560.472808,6069.688724,9696.697840,5822.325785
560.473129,6661.853478,7846.182985,7277.907231
560.473449,8216.285956,4959.379811,8886.707777
560.473770,6365.771101,3552.988522,8427.050478
560.474091,4737.318029,4663.297435,5439.278036
560.474411,5773.606348,8068.244768,2221.676944
560.474732,5847.626942,9696.697840,1455.581446
560.475053,5773.606348,8956.491898,2451.505594
560.475373,8290.306550,9252.574275,4443.353888
560.475694,6883.915261,11473.192101,4519.963438
560.476015,2812.782580,10732.986159,3677.258390
560.476335,2072.576638,8660.409521,3983.696590
560.476656,3478.967927,8068.244768,5975.544884
560.476977,3775.050304,8068.244768,7890.783629
560.477297,3923.091493,8512.368333,7124.688131
560.477618,2590.720797,9844.739029,5975.544884
560.477939,518.144159,10066.800811,6052.154434
560.478259,296.082377,7476.080014,8963.317327
560.478580,3330.926739,4737.318029,9346.365076
560.478901,3330.926739,4441.235652,8656.879127
560.479221,2368.659014,7402.059420,7507.735880
560.479542,1332.370696,9548.656652,5745.716235
560.479863,1184.329507,8586.388927,4749.792088
560.480183,4145.153275,5995.668130,6665.030833
560.480504,7550.100608,4589.276840,7354.516781
560.480825,6587.832884,4515.256246,4366.744339
560.481145,3849.070898,5403.503377,3753.867940
560.481466,4515.256246,5847.626942,3447.429741
560.481786,6883.915261,4145.153275,3753.867940
560.482107,8512.368333,3478.967927,4979.620737
560.482428,10140.821405,7105.977043,5439.278036
560.482748,8734.430116,9474.636058,4290.134789
560.483069,5625.565159,8142.265362,4213.525239
560.483390,4811.338623,4145.153275,4903.011187
560.483710,6291.750507,2738.761985,5515.887586
560.484031,4367.215058,3701.029710,5362.668486
560.484352,2442.679609,6143.709319,3140.991542
560.484672,1702.473667,5847.626942,919.314598
560.484993,3404.947333,6069.688724,1149.143247
560.485314,4589.276840,8142.265362,3064.381992
560.485634,3552.988522,9918.759623,2987.772442
560.485955,2072.576638,11843.295072,1378.971896
560.486276,2368.659014,12953.603985,1608.800546
560.486596,4589.276840,12435.459826,3753.867940
560.486917,5847.626942,12139.377449,6052.154434
560.487238,5329.482782,12435.459826,6128.763984
560.487558,2590.720797,11473.192101,5209.449386
560.487879,2442.679609,10288.862594,4366.744339
560.488200,3404.947333,8068.244768,4903.011187
560.488520,4219.173869,5921.647536,5592.497135
560.488841,4515.256246,4959.379811,6588.421283
560.489161,4589.276840,6883.915261,5515.887586
560.489482,4441.235652,7846.182985,3217.601092
560.489803,6809.894666,10584.944971,1225.752797
560.490123,10584.944971,12657.521608,1532.190996
560.490444,10807.006753,14582.057057,2068.457845
560.490765,9622.677246,14952.160028,2987.772442
560.491085,9844.739029,14063.912898,2145.067394
560.491406,8364.327145,9252.574275,3064.381992
560.491727,8660.409521,6809.894666,5056.230287
560.492047,6143.709319,7031.956449,5209.449386
560.492368,5033.400406,9104.533087,3370.820191
560.492689,5107.421000,9474.636058,2757.943793
560.493009,6069.688724,7328.038826,2834.553343
560.493330,5773.606348,4441.235652,3370.820191
560.493651,5477.523971,4737.318029,5439.278036
560.493971,3775.050304,6143.709319,5439.278036
560.494292,3849.070898,6365.771101,3064.381992
560.494613,3923.091493,5625.565159,2451.505594
560.494933,5181.441594,7105.977043,3140.991542
560.495254,6069.688724,9770.718434,3370.820191
560.495574,5403.503377,11769.274478,3140.991542
560.495895,4071.132681,11547.212695,1915.238745
560.496216,4219.173869,10066.800811,1455.581446
560.496536,4293.194464,6809.894666,2604.724693
560.496857,2072.576638,1776.494261,4290.134789
560.497178,1036.288319,74.020594,4519.963438
560.497498,1480.411884,1258.350101,2834.553343
560.497819,2368.659014,5033.400406,1455.581446
560.498140,3404.947333,6217.729913,1302.362347
560.498460,5773.606348,7476.080014,1149.143247
560.498781,6809.894666,6957.935855,2757.943793
560.499102,5033.400406,6809.894666,2221.676944
560.499422,5625.565159,6883.915261,612.876398
560.499743,5995.668130,7920.203579,842.705048
560.500064,4071.132681,7105.977043,1762.019645
560.500384,6809.894666,8734.430116,1455.581446
560.500705,7105.977043,11399.171507,842.705048
560.501026,2368.659014,12139.377449,919.314598
560.501346,3775.050304,9992.780217,1915.238745
560.501667,4737.318029,7105.977043,1991.848295
560.501988,3330.926739,4589.276840,2374.896044
560.502308,1702.473667,2812.782580,2681.334243
560.502629,3552.988522,5107.421000,1838.629195
560.502949,2664.741391,6883.915261,1149.143247
560.503270,2590.720797,7476.080014,0.000000
560.503591,7624.121203,9474.636058,-1149.143247
560.503911,8660.409521,11029.068536,-1762.019645
560.504232,6513.812290,12435.459826,-612.876398
560.504553,7476.080014,13619.789333,0.000000
560.504873,7105.977043,12731.542202,-153.219100
560.505194,7402.059420,11251.130318,1532.190996
560.505515,8142.265362,10436.903782,2145.067394
560.505835,5329.482782,8956.491898,0.000000
560.506156,2590.720797,6957.935855,-1225.752797
560.506477,3330.926739,6809.894666,-842.705048
560.506797,4737.318029,4811.338623,-1072.533697
560.507118,4959.379811,3552.988522,612.876398
560.507439,6217.729913,5921.647536,689.485948
560.507759,5477.523971,8586.388927,-1455.581446
560.508080,4441.235652,9474.636058,-2145.067394
560.508401,6735.874072,10362.883188,-2221.676944
560.508721,9252.574275,11843.295072,-2068.457845
560.509042,9178.553681,12583.501014,-383.047749
560.509362,8290.306550,11917.315666,-1302.362347
560.509683,8068.244768,10362.883188,-3907.087040
560.510004,5107.421000,7846.182985,-1378.971896
560.510324,2072.576638,5477.523971,383.047749
560.510645,4071.132681,5107.421000,612.876398
560.510966,5921.647536,7254.018232,1762.019645
560.511286,4219.173869,8142.265362,1072.533697
560.511607,2072.576638,5699.585753,-919.314598
560.511928,3404.947333,3997.112087,-1838.629195
560.512248,3182.885551,4145.153275,-1225.752797
560.512569,4959.379811,6069.688724,153.219100
560.512890,6365.771101,8956.491898,-1685.410096
560.513210,7550.100608,12213.398043,-3830.477490
560.513531,5773.606348,12435.459826,-2911.162892
560.513852,5551.544565,10436.903782,-1302.362347
560.514172,7624.121203,9326.594869,689.485948
560.514493,5699.585753,10214.842000,1149.143247
560.514814,4441.235652,10955.047942,-919.314598
560.515134,1998.556043,6365.771101,-3064.381992
560.515455,2368.659014,2812.782580,-2987.772442
560.515776,2590.720797,1110.308913,-383.047749
560.516096,2516.700203,1480.411884,-459.657299
560.516417,3478.967927,5773.606348,-2757.943793
560.516737,4367.215058,10881.027347,-2451.505594
560.517058,4959.379811,11917.315666,-766.095498
560.517379,7031.956449,10288.862594,0.000000
560.517699,7031.956449,11029.068536,766.095498
560.518020,5477.523971,12065.356855,919.314598
560.518341,3478.967927,9622.677246,612.876398
560.518661,5181.441594,7105.977043,-3140.991542
560.518982,4219.173869,5551.544565,-3907.087040
560.519303,3552.988522,6217.729913,-2374.896044
560.519623,3627.009116,6957.935855,-2374.896044
560.519944,4145.153275,6809.894666,-919.314598
560.520265,4663.297435,6513.812290,766.095498
560.520585,6809.894666,6365.771101,383.047749
560.520906,6291.750507,6143.709319,-459.657299
560.521227,4737.318029,8660.409521,995.924147
560.521547,7550.100608,13619.789333,1455.581446
560.521868,7328.038826,13471.748144,-2221.676944
560.522189,7624.121203,9992.780217,-3753.867940
560.522509,6735.874072,7698.141797,-306.438199
560.522830,6587.832884,7031.956449,3524.039291
560.523151,1776.494261,7328.038826,3064.381992
560.523471,2886.803174,7698.141797,-1302.362347
560.523792,4737.318029,8734.430116,-3753.867940
560.524112,4737.318029,7698.141797,-612.876398
560.524433,6809.894666,7624.121203,4060.306139
560.524754,7254.018232,7550.100608,3064.381992
560.525074,5921.647536,7105.977043,-1685.410096
560.525395,4071.132681,5403.503377,-3294.210641
560.525716,6069.688724,6291.750507,-2757.943793
560.526036,9548.656652,8586.388927,-842.705048
560.526357,8142.265362,11251.130318,1149.143247
560.526678,6513.812290,10955.047942,-229.828649
560.526998,5995.668130,10658.965565,-766.095498
560.527319,3256.906145,9474.636058,1455.581446
560.527640,1110.308913,5255.462188,1838.629195
560.527960,3552.988522,4219.173869,842.705048
560.528281,4219.173869,5773.606348,-153.219100
560.528602,1554.432478,6661.853478,-2374.896044
560.528922,3108.864956,6587.832884,-1915.238745
560.529243,5477.523971,7846.182985,-842.705048
560.529564,4737.318029,8586.388927,1225.752797
560.529884,3478.967927,7402.059420,306.438199
560.530205,5107.421000,8216.285956,-2068.457845
560.530525,5181.441594,10288.862594,-2451.505594
560.530846,4959.379811,10066.800811,76.609550
560.531167,7031.956449,9770.718434,1991.848295
560.531487,5995.668130,11325.150913,2068.457845
560.531808,5403.503377,13027.624579,1838.629195
560.532129,2812.782580,9178.553681,0.000000
560.532449,2664.741391,4515.256246,-2834.553343
560.532770,1850.514855,2072.576638,-842.705048
560.533091,4071.132681,3330.926739,3370.820191
560.533411,5847.626942,6365.771101,3907.087040
560.533732,4737.318029,7698.141797,459.657299
560.534053,2220.617826,7179.997637,-3217.601092
560.534373,5847.626942,7402.059420,-1991.848295
560.534694,7031.956449,8660.409521,306.438199
560.535015,7624.121203,10955.047942,1455.581446
560.535335,8512.368333,13175.665768,-995.924147
560.535656,6069.688724,11917.315666,-4979.620737
560.535977,5255.462188,9770.718434,-3370.820191
560.536297,6439.791695,8808.450710,2298.286494
560.536618,2960.823768,6587.832884,2528.115143
560.536939,2442.679609,5477.523971,-919.314598
560.537259,2886.803174,5995.668130,-2145.067394
560.537580,2664.741391,5847.626942,-459.657299
560.537900,3849.070898,4885.359217,2145.067394
560.538221,6217.729913,6069.688724,1608.800546
560.538542,3404.947333,6291.750507,-2451.505594
560.538862,3330.926739,7624.121203,-4290.134789
560.539183,6735.874072,9474.636058,-2451.505594
560.539504,6809.894666,10066.800811,-995.924147
560.539824,6587.832884,10066.800811,-1302.362347
560.540145,6217.729913,10214.842000,-3983.696590
560.540466,5773.606348,10658.965565,-4903.011187
560.540786,4811.338623,9844.739029,-1455.581446
560.541107,7624.121203,10288.862594,-306.438199
560.541428,4959.379811,9104.533087,-1685.410096
560.541748,1628.453072,7624.121203,-229.828649
560.542069,3478.967927,5699.585753,1762.019645
560.542390,4885.359217,3330.926739,1762.019645
560.542710,3701.029710,2368.659014,0.000000
560.543031,3256.906145,4811.338623,-2374.896044
560.543352,4737.318029,7846.182985,-4366.744339
560.543672,4885.359217,9548.656652,-2145.067394
560.543993,7994.224174,12213.398043,0.000000
560.544313,11177.109724,15396.283594,-1915.238745
560.544634,6957.935855,14211.954086,-2604.724693
560.544955,3552.988522,10214.842000,-1378.971896
560.545275,6365.771101,9104.533087,1149.143247
560.545596,6735.874072,10288.862594,995.924147
560.545917,2442.679609,7698.141797,-1149.143247
560.546237,2886.803174,6439.791695,-2221.676944
560.546558,5847.626942,7402.059420,995.924147
560.546879,2368.659014,6883.915261,4213.525239
560.547199,3034.844362,4145.153275,1685.410096
560.547520,2812.782580,3034.844362,-2911.162892
560.547841,3997.112087,7328.038826,-1072.533697
560.548161,6069.688724,10584.944971,2604.724693
560.548482,9030.512492,11843.295072,689.485948
560.548803,8290.306550,13323.706956,-2145.067394
560.549123,6735.874072,14359.995275,-766.095498
560.549444,5551.544565,11843.295072,919.314598
560.549765,6143.709319,7772.162391,1455.581446
560.550085,5033.400406,6809.894666,1072.533697
560.550406,3404.947333,5329.482782,383.047749
560.550727,3256.906145,5699.585753,1455.581446
560.551047,1480.411884,5181.441594,2757.943793
560.551368,888.247130,3701.029710,1685.410096
560.551688,4145.153275,3034.844362,-306.438199
560.552009,5181.441594,5033.400406,-919.314598
560.552330,3330.926739,6735.874072,0.000000
560.552650,6069.688724,7254.018232,612.876398
560.552971,9844.739029,10066.800811,306.438199
560.553292,7846.182985,12435.459826,-459.657299
560.553612,5403.503377,12065.356855,0.000000
560.553933,5107.421000,9918.759623,-306.438199
560.554254,6143.709319,7920.203579,229.828649
560.554574,4959.379811,7179.997637,1915.238745
560.554895,2442.679609,5107.421000,995.924147
560.555216,1184.329507,4367.215058,229.828649
560.555536,2442.679609,6069.688724,3370.820191
560.555857,3330.926739,7402.059420,4366.744339
560.556178,1554.432478,4441.235652,1149.143247
560.556498,3404.947333,4293.194464,-383.047749
560.556819,4145.153275,7624.121203,1685.410096
560.557140,4145.153275,8734.430116,2987.772442
560.557460,5773.606348,6809.894666,995.924147
560.557781,8512.368333,8882.471304,-1915.238745
560.558102,6217.729913,11917.315666,-1532.190996
560.558422,4367.215058,12805.562797,0.000000
560.558743,6587.832884,11621.233289,-229.828649
560.559063,6439.791695,10584.944971,-1225.752797
560.559384,6069.688724,8660.409521,459.657299
560.559705,5477.523971,6439.791695,1532.190996
560.560025,2368.659014,5551.544565,1762.019645
560.560346,444.123565,4959.379811,766.095498
560.560667,3552.988522,4589.276840,612.876398
560.560987,5699.585753,4885.359217,383.047749
560.561308,3701.029710,6291.750507,0.000000
560.561629,5329.482782,8068.244768,-995.924147
560.561949,6735.874072,8660.409521,-3140.991542
560.562270,6217.729913,9696.697840,-2451.505594
560.562591,5773.606348,11399.171507,-306.438199
560.562911,8438.347739,12879.583391,-689.485948
560.563232,8068.244768,13323.706956,-2528.115143
560.563553,5699.585753,11103.089130,-3524.039291
560.563873,5403.503377,8290.306550,-3677.258390
560.564194,5403.503377,6587.832884,-536.266849
560.564515,4589.276840,5847.626942,3677.258390
560.564835,3701.029710,4959.379811,919.314598
560.565156,2886.803174,5033.400406,-2604.724693
560.565476,2960.823768,7031.956449,-1762.019645
560.565797,3997.112087,6957.935855,1378.971896
560.566118,6513.812290,7179.997637,1608.800546
560.566438,5699.585753,7328.038826,-1072.533697
560.566759,4071.132681,7920.203579,-3983.696590
560.567080,4441.235652,10214.842000,-2911.162892
560.567400,5847.626942,11991.336260,-995.924147
560.567721,6291.750507,11769.274478,-1072.533697
560.568042,9030.512492,13323.706956,-3907.087040
560.568362,7994.224174,14211.954086,-3524.039291
560.568683,2294.638420,9918.759623,229.828649
560.569004,3923.091493,6291.750507,3370.820191
560.569324,4145.153275,3552.988522,2911.162892
560.569645,814.226536,2738.761985,-459.657299
560.569966,2146.597232,4737.318029,-1685.410096
560.570286,5329.482782,8586.388927,-1072.533697
560.570607,5995.668130,9252.574275,995.924147
560.570928,7402.059420,9104.533087,1762.019645
560.571248,8290.306550,9252.574275,153.219100
560.571569,4441.235652,9252.574275,-842.705048
560.571890,5403.503377,10807.006753,612.876398
560.572210,8068.244768,10584.944971,536.266849
560.572531,8142.265362,9548.656652,536.266849
560.572851,7550.100608,10881.027347,1915.238745
560.573172,6587.832884,10881.027347,1685.410096
560.573493,2146.597232,8216.285956,1455.581446
560.573813,2516.700203,4441.235652,2298.286494
560.574134,4811.338623,2738.761985,2911.162892
560.574455,3552.988522,1036.288319,1915.238745
560.574775,3256.906145,3775.050304,2911.162892
560.575096,4959.379811,8290.306550,1532.190996
560.575417,4589.276840,8734.430116,0.000000
560.575737,4811.338623,7624.121203,-536.266849
560.576058,7031.956449,8882.471304,-306.438199
560.576379,6365.771101,11251.130318,-306.438199
560.576699,4515.256246,11769.274478,0.000000
560.577020,6143.709319,11399.171507,-536.266849
560.577341,4959.379811,9844.739029,919.314598
560.577661,3404.947333,8956.491898,4213.525239
560.577982,2146.597232,8068.244768,4136.915689
560.578303,1184.329507,7179.997637,2374.896044
560.578623,518.144159,5181.441594,2451.505594
560.578944,1406.391290,2072.576638,2681.334243
560.579264,2516.700203,222.061783,1532.190996
560.579585,2516.700203,2368.659014,1532.190996
560.579905,3256.906145,6439.791695,2374.896044
560.580226,4293.194464,7624.121203,-383.047749
560.580546,7624.121203,9622.677246,-2834.553343
560.580867,7402.059420,12065.356855,-2068.457845
560.581188,7476.080014,11843.295072,-689.485948
560.581508,8512.368333,11103.089130,0.000000
560.581829,9770.718434,9548.656652,842.705048
560.582149,6661.853478,6365.771101,-842.705048
560.582470,3775.050304,4145.153275,-2451.505594
560.582790,4737.318029,4959.379811,-1455.581446
560.583111,4515.256246,5551.544565,2068.457845
560.583431,5255.462188,5995.668130,1838.629195
560.583752,7402.059420,5995.668130,-842.705048
560.584073,5033.400406,4737.318029,-2068.457845
560.584393,2516.700203,4219.173869,-459.657299
560.584714,4885.359217,5329.482782,995.924147
560.585034,7328.038826,9252.574275,-1149.143247
560.585355,7328.038826,13027.624579,-3370.820191
560.585675,7846.182985,14804.118840,-4443.353888
560.585996,7920.203579,13175.665768,-2451.505594
560.586316,7772.162391,13027.624579,1838.629195
560.586637,5921.647536,12139.377449,3140.991542
560.586957,1628.453072,8068.244768,-1991.848295
560.587278,296.082377,5551.544565,-3447.429741
560.587599,1776.494261,5773.606348,229.828649
560.587919,3034.844362,7105.977043,2068.457845
560.588240,4145.153275,7031.956449,1608.800546
560.588560,3404.947333,8290.306550,-766.095498
560.588881,1702.473667,8660.409521,-2528.115143
560.589201,4219.173869,8734.430116,-1378.971896
560.589522,6587.832884,9548.656652,0.000000
560.589842,7698.141797,11029.068536,-1685.410096
560.590163,7920.203579,14211.954086,-2757.943793
560.590484,6883.915261,14804.118840,-3600.648841
560.590804,7328.038826,12361.439231,-2221.676944
560.591125,6809.894666,9252.574275,-383.047749
560.591445,5847.626942,8364.327145,229.828649
560.591766,3404.947333,6661.853478,0.000000
560.592086,1776.494261,5625.565159,-1225.752797
560.592407,4663.297435,4293.194464,-2068.457845
560.592727,6439.791695,4441.235652,-153.219100
560.593048,6883.915261,6661.853478,1838.629195
560.593369,4959.379811,8068.244768,1532.190996
560.593689,5255.462188,7846.182985,-612.876398
560.594010,5773.606348,6809.894666,-2145.067394
560.594330,7105.977043,6291.750507,-1991.848295
560.594651,8216.285956,8512.368333,153.219100
560.594971,7772.162391,11547.212695,842.705048
560.595292,6883.915261,12509.480420,-612.876398
560.595612,5773.606348,10658.965565,-1608.800546
560.595933,4515.256246,7994.224174,-1302.362347
560.596254,2220.617826,5181.441594,2451.505594
560.596574,3034.844362,4737.318029,4290.134789
560.596895,3330.926739,5107.421000,2681.334243
560.597215,2812.782580,4441.235652,919.314598
560.597536,2886.803174,3404.947333,153.219100
560.597856,3552.988522,4367.215058,2298.286494
560.598177,4293.194464,7031.956449,2145.067394
560.598497,2590.720797,7550.100608,-153.219100
560.598818,4515.256246,7698.141797,-4519.963438
560.599139,6291.750507,9178.553681,-3294.210641
560.599459,8808.450710,12509.480420,689.485948
560.599780,5995.668130,12213.398043,2298.286494
560.600100,4663.297435,10584.944971,0.000000
560.600421,5329.482782,10066.800811,-766.095498
560.600741,3256.906145,8142.265362,1149.143247
560.601062,2886.803174,4885.359217,2911.162892
560.601382,4515.256246,4367.215058,2374.896044
560.601703,3182.885551,3775.050304,995.924147
560.602023,1924.535449,2664.741391,1072.533697
560.602344,2738.761985,1998.556043,0.000000
560.602665,3330.926739,4145.153275,-1532.190996
560.602985,5329.482782,7994.224174,-383.047749
560.603306,7031.956449,11103.089130,-536.266849
560.603626,7772.162391,12287.418637,-3907.087040
560.603947,7994.224174,13693.809927,-3524.039291
560.604267,7994.224174,14285.974681,-1149.143247
560.604588,8438.347739,10584.944971,383.047749
560.604908,7550.100608,7994.224174,1072.533697
560.605229,3701.029710,7772.162391,-612.876398
560.605550,2590.720797,7328.038826,-1762.019645
560.605870,3701.029710,5477.523971,459.657299
560.606191,5033.400406,5921.647536,1915.238745
560.606511,4589.276840,6143.709319,1532.190996
560.606832,4219.173869,6587.832884,-536.266849
560.607152,1480.411884,5255.462188,-1915.238745
560.607473,2886.803174,5921.647536,-612.876398
560.607793,7476.080014,9622.677246,995.924147
560.608114,8216.285956,12953.603985,-536.266849
560.608435,6883.915261,14285.974681,-3753.867940
560.608755,6809.894666,14804.118840,-3217.601092
560.609076,6957.935855,11843.295072,153.219100
560.609396,6365.771101,8438.347739,2221.676944
560.609717,5181.441594,7994.224174,995.924147
560.610037,2442.679609,7772.162391,-2068.457845
560.610358,1998.556043,6143.709319,-1378.971896
560.610678,4515.256246,5773.606348,-612.876398
560.610999,5181.441594,4441.235652,383.047749
560.611320,4959.379811,3849.070898,1378.971896
560.611640,4441.235652,4811.338623,153.219100
560.611961,4737.318029,7105.977043,-1991.848295
560.612281,5033.400406,7624.121203,-2681.334243
560.612602,9548.656652,10140.821405,-3370.820191
560.612922,9696.697840,12657.521608,-2757.943793
560.613243,6143.709319,12509.480420,-1225.752797
560.613563,6365.771101,11621.233289,-229.828649
560.613884,7772.162391,10140.821405,-1149.143247
560.614205,4219.173869,7550.100608,-1532.190996
560.614525,-518.144159,3997.112087,-2068.457845
560.614846,2886.803174,3997.112087,-1608.800546
560.615166,2664.741391,5329.482782,-383.047749
560.615487,2368.659014,5921.647536,76.609550
560.615807,5403.503377,5403.503377,-1378.971896
560.616128,4219.173869,6809.894666,-1378.971896
560.616448,2368.659014,7772.162391,459.657299
560.616769,4293.194464,7105.977043,-153.219100
560.617090,6957.935855,7550.100608,-3907.087040
560.617410,5921.647536,10066.800811,-3370.820191
560.617731,6513.812290,13101.645173,-536.266849
560.618051,7179.997637,13841.851115,0.000000
560.618372,5699.585753,11251.130318,-612.876398
560.618692,4515.256246,10658.965565,-1991.848295
560.619013,2812.782580,7920.203579,-2068.457845
560.619333,1998.556043,5625.565159,995.924147
560.619654,3330.926739,4589.276840,4060.306139
560.619974,5181.441594,5107.421000,2145.067394
560.620295,3997.112087,6439.791695,0.000000
560.620616,1850.514855,7254.018232,-689.485948
560.620936,4219.173869,8290.306550,-689.485948
560.621257,6143.709319,7402.059420,306.438199
560.621577,7476.080014,8068.244768,153.219100
560.621898,7550.100608,9992.780217,-1991.848295
560.622218,7772.162391,14508.036463,-1915.238745
560.622539,5551.544565,15396.283594,536.266849
560.622859,7254.018232,12953.603985,995.924147
560.623180,8290.306550,10658.965565,919.314598
560.623501,4811.338623,7772.162391,2068.457845
560.623821,2146.597232,5181.441594,3524.039291
560.624142,3182.885551,5181.441594,3140.991542
560.624462,3256.906145,4367.215058,1608.800546
560.624783,2368.659014,1850.514855,1608.800546
560.625103,4885.359217,3256.906145,842.705048
560.625424,5403.503377,6513.812290,536.266849
560.625744,3404.947333,7105.977043,-842.705048
560.626065,6365.771101,8216.285956,-3064.381992
560.626386,9030.512492,10955.047942,-2451.505594
560.626706,7624.121203,12879.583391,229.828649
560.627027,6957.935855,11917.315666,306.438199
560.627347,7994.224174,10881.027347,-1915.238745
560.627668,6291.750507,9918.759623,-766.095498
560.627988,4885.359217,8734.430116,2145.067394
560.628309,3256.906145,5107.421000,2068.457845
560.628629,2516.700203,3478.967927,1378.971896
560.628950,1554.432478,2960.823768,2221.676944
560.629271,2072.576638,2146.597232,1072.533697
560.629591,2368.659014,2516.700203,612.876398
560.629912,1776.494261,4885.359217,842.705048
560.630232,3627.009116,7994.224174,-306.438199
560.630553,4885.359217,8364.327145,-1608.800546
560.630873,6587.832884,10140.821405,-1149.143247
560.631194,6365.771101,13323.706956,76.609550
560.631514,5551.544565,13323.706956,-1225.752797
560.631835,4071.132681,10732.986159,-2987.772442
560.632156,6809.894666,10510.924376,-2145.067394
560.632476,5403.503377,9992.780217,919.314598
560.632797,2442.679609,7031.956449,2221.676944
560.633117,3108.864956,6143.709319,459.657299
560.633438,2516.700203,6291.750507,-1072.533697
560.633758,888.247130,4589.276840,306.438199
560.634079,4293.194464,3108.864956,1838.629195
560.634399,6809.894666,4737.318029,1378.971896
560.634720,4145.153275,7179.997637,-306.438199
560.635041,4959.379811,7624.121203,-1762.019645
560.635361,7698.141797,9474.636058,-3370.820191
560.635682,7920.203579,11547.212695,-2068.457845
560.636002,8216.285956,12287.418637,-1685.410096
560.636323,8660.409521,11325.150913,-3907.087040
560.636643,8290.306550,10584.944971,-3447.429741
560.636964,6143.709319,10510.924376,0.000000
560.637284,4219.173869,8216.285956,-1532.190996
560.637605,4737.318029,7031.956449,-2604.724693
560.637925,2812.782580,5847.626942,-995.924147
560.638246,3552.988522,4663.297435,383.047749
560.638567,6217.729913,5773.606348,612.876398
560.638887,4515.256246,7328.038826,-842.705048
560.639208,2590.720797,7476.080014,-2757.943793
560.639528,6143.709319,8216.285956,-1378.971896
560.639849,7254.018232,9992.780217,229.828649
560.640169,5995.668130,11621.233289,459.657299
560.640490,6883.915261,13397.727550,-1532.190996
560.640810,5107.421000,13101.645173,-2068.457845
560.641131,4737.318029,11843.295072,0.000000
560.641452,5625.565159,10658.965565,1302.362347
560.641772,5403.503377,9844.739029,-919.314598
560.642093,2442.679609,7920.203579,-1072.533697
560.642413,1998.556043,6735.874072,842.705048
560.642734,2590.720797,6217.729913,2604.724693
560.643054,3182.885551,5847.626942,3217.601092
560.643375,4441.235652,6143.709319,1838.629195
560.643695,4515.256246,6365.771101,-1225.752797
560.644016,4589.276840,6809.894666,-1302.362347
560.644337,5329.482782,8882.471304,-536.266849
560.644657,7328.038826,10066.800811,612.876398
560.644978,7698.141797,11843.295072,459.657299
560.645298,6439.791695,12139.377449,-689.485948
560.645619,7105.977043,11917.315666,-766.095498
560.645939,6735.874072,10288.862594,1532.190996
560.646260,4885.359217,6513.812290,2757.943793
560.646580,3108.864956,3034.844362,1838.629195
560.646901,3330.926739,4145.153275,1608.800546
560.647222,1998.556043,5329.482782,3140.991542
560.647542,2516.700203,3849.070898,2451.505594
560.647863,4219.173869,2738.761985,536.266849
560.648183,3775.050304,3034.844362,536.266849
560.648504,3627.009116,5329.482782,0.000000
560.648824,4293.194464,6439.791695,-536.266849
560.649145,5551.544565,7476.080014,-1915.238745
560.649465,6291.750507,10214.842000,-1685.410096
560.649786,7254.018232,11547.212695,-229.828649
560.650107,6439.791695,10881.027347,-383.047749
560.650427,7105.977043,10436.903782,-612.876398
560.650748,5995.668130,10732.986159,0.000000
560.651068,3552.988522,7105.977043,995.924147
560.651389,2738.761985,3034.844362,3064.381992
560.651709,3256.906145,1184.329507,4213.525239
560.652030,1998.556043,1480.411884,2911.162892
560.652350,2516.700203,3627.009116,153.219100
560.652671,2664.741391,5773.606348,-1762.019645
560.652992,4959.379811,7624.121203,-1302.362347
560.653312,6513.812290,8438.347739,1378.971896
560.653633,8438.347739,10140.821405,766.095498
560.653953,6069.688724,10362.883188,-1225.752797
560.654274,5921.647536,12879.583391,-1608.800546
560.654594,6661.853478,14656.077652,-1991.848295
560.654915,6143.709319,11843.295072,-1685.410096
560.655235,6439.791695,9696.697840,0.000000
560.655556,6365.771101,9030.512492,1149.143247
560.655876,4145.153275,8808.450710,1378.971896
560.656197,1184.329507,6661.853478,1608.800546
560.656518,1850.514855,5625.565159,-995.924147
560.656838,3330.926739,4959.379811,-919.314598
560.657159,5107.421000,6957.935855,2298.286494
560.657479,6587.832884,9622.677246,2987.772442
560.657800,5255.462188,9992.780217,0.000000
560.658120,4145.153275,9770.718434,-1532.190996
560.658441,6587.832884,9474.636058,-1991.848295
560.658761,7402.059420,11621.233289,-842.705048
560.659082,6069.688724,12879.583391,0.000000
560.659403,7031.956449,12731.542202,-1225.752797
560.659723,6883.915261,10658.965565,-2451.505594
560.660044,4737.318029,7698.141797,-1149.143247
560.660364,4219.173869,6587.832884,0.000000
560.660685,3552.988522,5033.400406,459.657299
560.661005,3923.091493,3923.091493,-612.876398
560.661326,5329.482782,4737.318029,-919.314598
560.661646,6957.935855,6735.874072,-1455.581446
560.661967,5255.462188,6291.750507,-1302.362347
560.662288,6883.915261,6217.729913,-383.047749
560.662608,6143.709319,6513.812290,-1915.238745
560.662929,6957.935855,8882.471304,-3217.601092
560.663249,7105.977043,11103.089130,-1378.971896
560.663570,6735.874072,11325.150913,-1762.019645
560.663890,6735.874072,10732.986159,-1225.752797
560.664211,5551.544565,11177.109724,383.047749
560.664531,4219.173869,9474.636058,153.219100
560.664852,2590.720797,5921.647536,306.438199
560.665173,1998.556043,4441.235652,1685.410096
560.665493,740.205942,3182.885551,1378.971896
560.665814,1554.432478,4219.173869,1378.971896
560.666134,2886.803174,6069.688724,153.219100
560.666455,2442.679609,7994.224174,-612.876398
560.666775,4885.359217,9474.636058,-1149.143247
560.667096,4663.297435,8142.265362,-2145.067394
560.667416,6143.709319,8734.430116,-229.828649
560.667737,7179.997637,12361.439231,1685.410096
560.668058,7624.121203,14434.015869,536.266849
560.668378,5033.400406,12065.356855,-2451.505594
560.668699,7105.977043,10140.821405,-383.047749
560.669019,7920.203579,9326.594869,3064.381992
560.669340,4293.194464,6513.812290,4519.963438
560.669660,2072.576638,4145.153275,1915.238745
560.669981,2368.659014,3552.988522,-689.485948
560.670301,3034.844362,3923.091493,-766.095498
560.670622,4885.359217,4293.194464,1455.581446
560.670942,5699.585753,5403.503377,1149.143247
560.671263,5403.503377,7550.100608,536.266849
560.671584,4663.297435,8734.430116,-612.876398
560.671904,6365.771101,10140.821405,-1378.971896
560.672225,7328.038826,11103.089130,-1225.752797
560.672545,7994.224174,12583.501014,-383.047749
560.672866,7254.018232,12139.377449,-842.705048
560.673186,7105.977043,10510.924376,-995.924147
560.673507,5551.544565,10066.800811,383.047749
560.673827,2590.720797,5921.647536,1762.019645
560.674148,2072.576638,2886.803174,1838.629195
560.674469,3182.885551,3108.864956,2451.505594
560.674789,1332.370696,2960.823768,-306.438199
560.675110,2072.576638,2516.700203,-2604.724693
560.675430,6217.729913,7105.977043,-766.095498
560.675751,5921.647536,10658.965565,2451.505594
560.676071,5477.523971,8660.409521,1302.362347
560.676392,7031.956449,7254.018232,-1915.238745
560.676712,5995.668130,9400.615463,-2834.553343
560.677033,5255.462188,11695.253884,-1378.971896
560.677354,6291.750507,10436.903782,-1302.362347
560.677674,7550.100608,8808.450710,-2221.676944
560.677995,5699.585753,9104.533087,-1532.190996
560.678315,5033.400406,8586.388927,-689.485948
560.678636,3034.844362,7624.121203,-995.924147
560.678956,2220.617826,5773.606348,306.438199
560.679277,3034.844362,6365.771101,229.828649
560.679597,5181.441594,5551.544565,536.266849
560.679918,4811.338623,6143.709319,689.485948
560.680239,3478.967927,7846.182985,842.705048
560.680559,5181.441594,9104.533087,-536.266849
560.680880,4959.379811,9252.574275,-1532.190996
560.681200,5773.606348,11029.068536,-1302.362347
560.681521,6661.853478,13249.686362,-1149.143247
560.681841,6735.874072,13323.706956,76.609550
560.682162,6439.791695,11843.295072,0.000000
560.682482,4737.318029,10214.842000,-1378.971896
560.682803,4811.338623,8068.244768,-842.705048
560.683124,3997.112087,5551.544565,-689.485948
560.683444,4367.215058,5403.503377,536.266849
560.683765,3997.112087,5551.544565,536.266849
560.684085,5699.585753,5255.462188,459.657299
560.684406,6735.874072,6735.874072,-306.438199
560.684726,5995.668130,7476.080014,-1455.581446
560.685047,6069.688724,8438.347739,-1685.410096
560.685368,7328.038826,8290.306550,-919.314598
560.685688,7105.977043,8364.327145,153.219100
560.686009,6513.812290,9548.656652,76.609550
560.686329,7624.121203,11695.253884,-1072.533697
560.686650,5107.421000,11695.253884,-3294.210641
560.686970,3997.112087,9252.574275,-2604.724693
560.687291,5551.544565,7254.018232,-689.485948
560.687612,4441.235652,5995.668130,919.314598
560.687932,2812.782580,5033.400406,2451.505594
560.688253,1554.432478,4589.276840,1225.752797
560.688573,3256.906145,5329.482782,-1608.800546
560.688894,3627.009116,7476.080014,-1838.629195
560.689214,3775.050304,7846.182985,-842.705048
560.689535,5625.565159,6439.791695,0.000000
560.689856,6365.771101,6217.729913,1225.752797
560.690176,5625.565159,8216.285956,995.924147
560.690497,4589.276840,9622.677246,-1838.629195
560.690817,5329.482782,10881.027347,-2987.772442
560.691138,5477.523971,10732.986159,-1149.143247
560.691458,7920.203579,9992.780217,995.924147
560.691779,7624.121203,9696.697840,612.876398
560.692099,2886.803174,6661.853478,0.000000
560.692420,2072.576638,5033.400406,1225.752797
560.692741,4219.173869,5699.585753,3217.601092
560.693061,3256.906145,5995.668130,919.314598
560.693382,2072.576638,3330.926739,-1532.190996
560.693702,5255.462188,5551.544565,-2528.115143
560.694023,4811.338623,7920.203579,-459.657299
560.694343,3701.029710,7920.203579,1455.581446
560.694664,6587.832884,8734.430116,-919.314598
560.694985,7994.224174,11325.150913,-4290.134789
560.695305,6883.915261,15396.283594,-2451.505594
560.695626,6809.894666,14952.160028,1225.752797
560.695946,8956.491898,11991.336260,1685.410096
560.696267,7772.162391,9104.533087,2298.286494
560.696587,4441.235652,6957.935855,2145.067394
560.696908,2220.617826,5329.482782,995.924147
560.697229,1776.494261,4071.132681,1225.752797
560.697549,2220.617826,4441.235652,2987.772442
560.697870,3849.070898,3775.050304,1991.848295
560.698190,4737.318029,5255.462188,0.000000
560.698511,2516.700203,7031.956449,-383.047749
560.698831,4293.194464,8290.306550,0.000000
560.699152,7105.977043,10066.800811,-306.438199
560.699473,6883.915261,10732.986159,-1685.410096
560.699793,7105.977043,12509.480420,-2987.772442
560.700114,8364.327145,14063.912898,-1532.190996
560.700434,7402.059420,13619.789333,0.000000
560.700755,5995.668130,8808.450710,995.924147
560.701075,5847.626942,5847.626942,0.000000
560.701396,2812.782580,5107.421000,-1072.533697
560.701716,2072.576638,5329.482782,766.095498
560.702037,3330.926739,4663.297435,2068.457845
560.702358,3256.906145,2664.741391,766.095498
560.702678,4293.194464,3256.906145,536.266849
560.702999,4737.318029,6587.832884,919.314598
560.703319,4515.256246,8956.491898,0.000000
560.703640,3552.988522,8586.388927,-1302.362347
560.703960,7105.977043,9326.594869,-1838.629195
560.704281,7846.182985,10955.047942,-2374.896044
560.704602,5699.585753,10436.903782,-842.705048
560.704922,4737.318029,10436.903782,-919.314598
560.705243,7402.059420,11843.295072,-842.705048
560.705563,4737.318029,9918.759623,0.000000
560.705884,1702.473667,6143.709319,-689.485948
560.706204,3552.988522,4441.235652,-612.876398
560.706525,1480.411884,3997.112087,689.485948
560.706846,1628.453072,3478.967927,383.047749
560.707166,4959.379811,4663.297435,-995.924147
560.707487,4811.338623,7994.224174,-1378.971896
560.707807,2960.823768,9030.512492,-689.485948
560.708128,5181.441594,7846.182985,-1149.143247
560.708448,6809.894666,8734.430116,-1532.190996
560.708769,5773.606348,11399.171507,-766.095498
560.709090,6957.935855,14137.933492,-1838.629195
560.709410,5995.668130,13545.768739,-4290.134789
560.709731,5551.544565,11917.315666,-2145.067394
560.710051,6587.832884,11029.068536,1838.629195
560.710372,6291.750507,9104.533087,2451.505594
560.710692,2664.741391,5477.523971,1685.410096
560.711013,1850.514855,4219.173869,306.438199
560.711333,4367.215058,5107.421000,-919.314598
560.711654,5107.421000,6069.688724,1608.800546
560.711975,5107.421000,4885.359217,3677.258390
560.712295,6513.812290,6291.750507,1149.143247
560.712616,6809.894666,8660.409521,-1149.143247
560.712936,4737.318029,10140.821405,-842.705048
560.713257,7772.162391,10807.006753,-1455.581446
560.713577,9548.656652,12657.521608,-612.876398
560.713898,7254.018232,13101.645173,-459.657299
560.714219,6069.688724,11473.192101,-1378.971896
560.714539,6587.832884,10288.862594,-1302.362347
560.714860,4441.235652,8512.368333,1072.533697
560.715180,2886.803174,7550.100608,2987.772442
560.715501,3330.926739,6809.894666,1072.533697
560.715821,1258.350101,4959.379811,-1149.143247
560.716142,1332.370696,2442.679609,1072.533697
560.716463,5255.462188,4293.194464,2911.162892
560.716783,4071.132681,6069.688724,2221.676944
560.717104,1406.391290,5921.647536,-842.705048
560.717424,5033.400406,7698.141797,-2757.943793
560.717745,8216.285956,11325.150913,-1455.581446
560.718065,6513.812290,13027.624579,995.924147
560.718386,7402.059420,11325.150913,153.219100
560.718706,8142.265362,9474.636058,-1608.800546
560.719027,4959.379811,8660.409521,0.000000
560.719348,3256.906145,7402.059420,1915.238745
560.719668,2442.679609,4737.318029,766.095498
560.719989,2812.782580,4589.276840,1378.971896
560.720309,2442.679609,4885.359217,2451.505594
560.720630,2960.823768,4071.132681,536.266849
560.720950,3330.926739,3627.009116,-383.047749
560.721271,3627.009116,5551.544565,383.047749
560.721592,4293.194464,6587.832884,0.000000
560.721912,4071.132681,6069.688724,-1532.190996
560.722233,7328.038826,9104.533087,-1608.800546
560.722553,7550.100608,11769.274478,-919.314598
560.722874,7846.182985,12139.377449,-1915.238745
560.723194,7846.182985,12435.459826,-3370.820191
560.723515,6587.832884,10955.047942,-1838.629195
560.723836,5477.523971,8956.491898,1302.362347
560.724156,6661.853478,6217.729913,3217.601092
560.724477,3701.029710,4885.359217,459.657299
560.724797,1776.494261,4441.235652,-1072.533697
560.725118,4145.153275,6957.935855,0.000000
560.725438,5477.523971,7105.977043,1149.143247
560.725759,4441.235652,5699.585753,1532.190996
560.726080,6587.832884,6957.935855,1455.581446
560.726400,5329.482782,7624.121203,-689.485948
560.726721,2738.761985,7402.059420,-459.657299
560.727041,5921.647536,11103.089130,0.000000
560.727362,8068.244768,14434.015869,-2451.505594
560.727682,7031.956449,14804.118840,-2451.505594
560.728003,7624.121203,14063.912898,-383.047749
560.728323,7105.977043,12361.439231,1838.629195
560.728644,2664.741391,8216.285956,2298.286494
560.728965,2146.597232,5995.668130,2374.896044
560.729285,2072.576638,3923.091493,0.000000
560.729606,2146.597232,3775.050304,-383.047749
560.729926,4367.215058,5403.503377,1072.533697
560.730247,5847.626942,6069.688724,-842.705048
560.730567,3552.988522,7105.977043,-2145.067394
560.730888,5033.400406,10140.821405,-689.485948
560.731209,6069.688724,11325.150913,-459.657299
560.731529,6143.709319,10881.027347,-919.314598
560.731850,8142.265362,13397.727550,842.705048
560.732170,7550.100608,13323.706956,766.095498
560.732491,6365.771101,12139.377449,0.000000
560.732811,4145.153275,10881.027347,842.705048
560.733132,3256.906145,7994.224174,306.438199
