#time,accel_x,accel_y,accel_z
582.310813,4811.338623,8068.244768,0.000000
582.311133,5033.400406,8290.306550,76.609550
582.311454,4811.338623,8216.285956,76.609550
582.311774,5107.421000,7994.224174,-306.438199
582.312095,4959.379811,8068.244768,-153.219100
582.312415,4885.359217,8142.265362,-153.219100
582.312735,5033.400406,7994.224174,76.609550
582.313056,4885.359217,7994.224174,0.000000
582.313376,4811.338623,8068.244768,0.000000
582.313696,5033.400406,8216.285956,-153.219100
582.314017,4885.359217,8290.306550,-306.438199
582.314337,5107.421000,8216.285956,0.000000
582.314657,4885.359217,7920.203579,0.000000
582.314978,4959.379811,7698.141797,0.000000
582.315298,4885.359217,8142.265362,-153.219100
582.315619,4811.338623,8290.306550,-229.828649
582.315939,4737.318029,8216.285956,229.828649
582.316259,4885.359217,8142.265362,-306.438199
582.316580,5033.400406,7994.224174,-306.438199
582.316900,4959.379811,7994.224174,-229.828649
582.317220,4959.379811,7920.203579,0.000000
582.317541,4959.379811,8142.265362,-306.438199
582.317861,4885.359217,8142.265362,0.000000
582.318182,5033.400406,8068.244768,0.000000
582.318502,4959.379811,8068.244768,-153.219100
582.318822,4959.379811,8068.244768,0.000000
582.319143,5255.462188,8290.306550,-306.438199
582.319463,4885.359217,8216.285956,-306.438199
582.319783,4663.297435,7698.141797,-383.047749
582.320104,4145.153275,7476.080014,-229.828649
582.320424,4589.276840,7698.141797,0.000000
582.320744,4441.235652,9178.553681,-306.438199
582.321065,4737.318029,9918.759623,-766.095498
582.321385,4663.297435,9770.718434,-1225.752797
582.321706,4293.194464,9400.615463,-995.924147
582.322026,4071.132681,8956.491898,0.000000
582.322346,3478.967927,8512.368333,1302.362347
582.322667,2590.720797,8882.471304,1072.533697
582.322987,2516.700203,9326.594869,459.657299
582.323307,2664.741391,9178.553681,-153.219100
582.323628,2886.803174,8216.285956,-766.095498
582.323948,3404.947333,8956.491898,0.000000
582.324268,3256.906145,9474.636058,76.609550
582.324589,2886.803174,9326.594869,383.047749
582.324909,2442.679609,8660.409521,76.609550
582.325230,2516.700203,8660.409521,0.000000
582.325550,2516.700203,10288.862594,-1302.362347
582.325870,1850.514855,11325.150913,-1149.143247
582.326191,1480.411884,11843.295072,-1532.190996
582.326511,1406.391290,11843.295072,-1378.971896
582.326831,814.226536,11103.089130,-1072.533697
582.327152,148.041188,11325.150913,-1072.533697
582.327472,-888.247130,11621.233289,-1149.143247
582.327793,-1480.411884,12361.439231,76.609550
582.328113,-1554.432478,12435.459826,995.924147
582.328433,-1332.370696,11843.295072,1072.533697
582.328754,-962.267725,12065.356855,1915.238745
582.329074,-1406.391290,12287.418637,1991.848295
582.329394,-2294.638420,12435.459826,1072.533697
582.329715,-2664.741391,10881.027347,76.609550
582.330035,-1628.453072,9770.718434,-383.047749
582.330355,-666.185348,9474.636058,229.828649
582.330676,-444.123565,9992.780217,1149.143247
582.330996,-370.102971,10881.027347,306.438199
582.331317,296.082377,11547.212695,-766.095498
582.331637,1036.288319,11843.295072,-1608.800546
582.331957,1406.391290,11325.150913,-1072.533697
582.332278,2368.659014,10510.924376,-229.828649
582.332598,3182.885551,10955.047942,0.000000
582.332918,2738.761985,10510.924376,-612.876398
582.333239,2294.638420,9474.636058,-2374.896044
582.333559,2220.617826,8882.471304,-2451.505594
582.333880,1924.535449,9474.636058,-919.314598
582.334200,2368.659014,9548.656652,0.000000
582.334520,1924.535449,9992.780217,-306.438199
582.334841,1628.453072,10807.006753,-459.657299
582.335161,666.185348,11473.192101,153.219100
582.335481,74.020594,10807.006753,229.828649
582.335802,0.000000,10140.821405,459.657299
582.336122,0.000000,10066.800811,536.266849
582.336442,0.000000,10214.842000,766.095498
582.336763,-222.061783,10436.903782,766.095498
582.337083,-370.102971,11251.130318,766.095498
582.337404,0.000000,11547.212695,919.314598
582.337724,888.247130,11843.295072,842.705048
582.338044,666.185348,11251.130318,306.438199
582.338365,444.123565,11103.089130,-459.657299
582.338685,740.205942,10288.862594,-612.876398
582.339005,1406.391290,9844.739029,-229.828649
582.339326,1406.391290,8734.430116,76.609550
582.339646,1628.453072,8438.347739,76.609550
582.339966,2442.679609,8956.491898,0.000000
582.340287,2516.700203,10436.903782,-306.438199
582.340607,2516.700203,11473.192101,-536.266849
582.340928,3108.864956,10658.965565,-919.314598
582.341248,3478.967927,10510.924376,-919.314598
582.341568,3627.009116,9696.697840,-842.705048
582.341889,2960.823768,9252.574275,-842.705048
582.342209,2886.803174,9400.615463,-995.924147
582.342529,1850.514855,10362.883188,-766.095498
582.342850,1110.308913,11325.150913,-459.657299
582.343170,814.226536,11843.295072,-536.266849
582.343491,1184.329507,11473.192101,-1532.190996
582.343811,0.000000,10510.924376,-1915.238745
582.344131,-1480.411884,9252.574275,-1149.143247
582.344452,-1702.473667,8734.430116,229.828649
582.344772,-2368.659014,9474.636058,1455.581446
582.345092,-888.247130,11251.130318,1915.238745
582.345413,-222.061783,12731.542202,1072.533697
582.345733,74.020594,13915.871710,919.314598
582.346053,444.123565,13841.851115,1072.533697
582.346374,666.185348,12583.501014,0.000000
582.346694,1554.432478,10510.924376,0.000000
582.347015,666.185348,9548.656652,-76.609550
582.347335,0.000000,9030.512492,-842.705048
582.347655,-888.247130,9252.574275,-1225.752797
582.347976,-1332.370696,9474.636058,-1378.971896
582.348296,-1406.391290,10584.944971,-1838.629195
582.348616,222.061783,11769.274478,-536.266849
582.348937,1110.308913,13027.624579,76.609550
582.349257,888.247130,13915.871710,0.000000
582.349578,518.144159,14211.954086,229.828649
582.349898,518.144159,13693.809927,-459.657299
582.350218,666.185348,11843.295072,0.000000
582.350539,962.267725,8956.491898,-229.828649
582.350859,1554.432478,6883.915261,-459.657299
582.351179,2072.576638,8216.285956,76.609550
582.351500,296.082377,10288.862594,229.828649
582.351820,370.102971,11251.130318,383.047749
582.352140,1406.391290,10066.800811,536.266849
582.352461,1110.308913,9178.553681,229.828649
582.352781,888.247130,9104.533087,689.485948
582.353102,1110.308913,9918.759623,306.438199
582.353422,666.185348,11769.274478,-1302.362347
582.353742,518.144159,12657.521608,-1378.971896
582.354063,962.267725,12731.542202,-1838.629195
582.354383,1406.391290,12361.439231,-1685.410096
582.354703,518.144159,12509.480420,-842.705048
582.355024,-148.041188,12879.583391,689.485948
582.355344,74.020594,12065.356855,1072.533697
582.355665,148.041188,10140.821405,1455.581446
582.355985,-296.082377,9770.718434,536.266849
582.356305,-1036.288319,9178.553681,689.485948
582.356626,-2220.617826,8586.388927,1762.019645
582.356946,-2146.597232,8216.285956,1225.752797
582.357266,148.041188,8364.327145,459.657299
582.357587,1554.432478,9992.780217,0.000000
582.357907,2072.576638,12657.521608,-459.657299
582.358227,1924.535449,13175.665768,-1302.362347
582.358548,2072.576638,11991.336260,-1838.629195
582.358868,2590.720797,9400.615463,-2145.067394
582.359189,2812.782580,8142.265362,-1378.971896
582.359509,3478.967927,9252.574275,536.266849
582.359829,2368.659014,11769.274478,536.266849
582.360150,1702.473667,12287.418637,-1991.848295
582.360470,1702.473667,11547.212695,-2911.162892
582.360790,1554.432478,9992.780217,-2451.505594
582.361111,740.205942,7772.162391,0.000000
582.361431,-962.267725,7105.977043,306.438199
582.361751,-1258.350101,8438.347739,-536.266849
582.362072,-814.226536,12213.398043,-383.047749
582.362392,-962.267725,14656.077652,689.485948
582.362713,-1258.350101,14952.160028,229.828649
582.363033,0.000000,14878.139434,229.828649
582.363353,-666.185348,13693.809927,76.609550
582.363674,-1702.473667,11547.212695,229.828649
582.363994,-1184.329507,10140.821405,1149.143247
582.364314,-296.082377,9992.780217,536.266849
582.364635,-1184.329507,9770.718434,0.000000
582.364955,370.102971,10140.821405,383.047749
582.365276,518.144159,9548.656652,766.095498
582.365596,1184.329507,9178.553681,1302.362347
582.365916,3034.844362,10140.821405,2068.457845
582.366237,3849.070898,11399.171507,229.828649
582.366557,3849.070898,11769.274478,-1685.410096
582.366877,5181.441594,11843.295072,-1915.238745
582.367198,3627.009116,10955.047942,-3140.991542
582.367518,1406.391290,7994.224174,-3064.381992
582.367838,2220.617826,6291.750507,-995.924147
582.368159,3701.029710,9474.636058,383.047749
582.368479,1924.535449,12731.542202,1685.410096
582.368800,1628.453072,13693.809927,-1378.971896
582.369120,1184.329507,11843.295072,-2528.115143
582.369440,-1110.308913,10140.821405,-1225.752797
582.369761,-1998.556043,9474.636058,1455.581446
582.370081,-1702.473667,9474.636058,1455.581446
582.370402,-814.226536,11843.295072,-229.828649
582.370722,-444.123565,13619.789333,-1225.752797
582.371043,-2368.659014,14063.912898,-995.924147
582.371364,-2664.741391,12657.521608,153.219100
582.371684,-1850.514855,11325.150913,2604.724693
582.372005,-1332.370696,11251.130318,4519.963438
582.372325,444.123565,11251.130318,2451.505594
582.372646,-740.205942,10362.883188,-459.657299
582.372966,-962.267725,9400.615463,-919.314598
582.373287,74.020594,9104.533087,1225.752797
582.373608,0.000000,8734.430116,2145.067394
582.373928,1998.556043,7624.121203,459.657299
582.374249,5329.482782,8882.471304,-459.657299
582.374569,4441.235652,9992.780217,-1378.971896
582.374890,2886.803174,11029.068536,-1378.971896
582.375211,3775.050304,11177.109724,-995.924147
582.375531,4737.318029,9696.697840,-689.485948
582.375852,3849.070898,8586.388927,-1455.581446
582.376172,3997.112087,7476.080014,-995.924147
582.376493,1184.329507,7550.100608,-2298.286494
582.376813,962.267725,10658.965565,-2451.505594
582.377134,1332.370696,13027.624579,-1608.800546
582.377455,148.041188,11695.253884,-2298.286494
582.377775,444.123565,8734.430116,-1608.800546
582.378096,1110.308913,9696.697840,1762.019645
582.378416,-1110.308913,13027.624579,3217.601092
582.378737,-3997.112087,13767.830521,2221.676944
582.379058,-3701.029710,13027.624579,0.000000
582.379378,-1628.453072,11473.192101,-536.266849
582.379699,0.000000,10288.862594,1532.190996
582.380019,0.000000,10214.842000,1762.019645
582.380340,-2072.576638,11843.295072,0.000000
582.380660,-4145.153275,13915.871710,-689.485948
582.380981,-1924.535449,13471.748144,383.047749
582.381302,888.247130,10436.903782,1378.971896
582.381622,2516.700203,9326.594869,1991.848295
582.381943,1776.494261,9326.594869,1762.019645
582.382263,1184.329507,10510.924376,-612.876398
582.382584,666.185348,9918.759623,-2911.162892
582.382905,2812.782580,9918.759623,-3064.381992
582.383225,6587.832884,10288.862594,-1072.533697
582.383546,6291.750507,10584.944971,-612.876398
582.383866,1850.514855,9474.636058,-2604.724693
582.384187,888.247130,9326.594869,-3983.696590
582.384507,3108.864956,10658.965565,-1838.629195
582.384828,3404.947333,11621.233289,76.609550
582.385149,2590.720797,11769.274478,-229.828649
582.385469,2220.617826,11695.253884,-2068.457845
582.385790,-666.185348,11769.274478,-3294.210641
582.386110,-2516.700203,11103.089130,-1762.019645
582.386431,-1110.308913,10955.047942,1608.800546
582.386752,-296.082377,10807.006753,2451.505594
582.387072,-1998.556043,10955.047942,2298.286494
582.387393,-2590.720797,11843.295072,0.000000
582.387713,-2664.741391,13175.665768,-229.828649
582.388034,-2664.741391,14211.954086,2298.286494
582.388354,-1776.494261,13545.768739,3447.429741
582.388675,-1776.494261,10807.006753,2681.334243
582.388996,-814.226536,9548.656652,1225.752797
582.389316,-1184.329507,10140.821405,1915.238745
582.389637,-1702.473667,10510.924376,919.314598
582.389957,222.061783,9400.615463,-536.266849
582.390278,2516.700203,8808.450710,-1378.971896
582.390598,3775.050304,10288.862594,459.657299
582.390919,4441.235652,11177.109724,2911.162892
582.391240,2738.761985,10362.883188,1149.143247
582.391560,4367.215058,9252.574275,-1685.410096
582.391881,4145.153275,7846.182985,-2911.162892
582.392201,4441.235652,6587.832884,-3447.429741
582.392522,5625.565159,7031.956449,-1915.238745
582.392843,4589.276840,9474.636058,-995.924147
582.393163,3552.988522,9770.718434,-1149.143247
582.393484,2072.576638,9326.594869,-2145.067394
582.393804,3108.864956,9326.594869,-1762.019645
582.394125,2368.659014,10732.986159,-1532.190996
582.394445,962.267725,10362.883188,-306.438199
582.394766,0.000000,10436.903782,0.000000
582.395087,-1258.350101,8808.450710,2528.115143
582.395407,-2146.597232,8364.327145,2757.943793
582.395728,-1702.473667,9474.636058,842.705048
582.396048,-2294.638420,13471.748144,842.705048
582.396369,-2072.576638,15766.386565,1149.143247
582.396690,-1480.411884,14508.036463,1072.533697
582.397010,148.041188,11621.233289,612.876398
582.397331,-592.164754,8956.491898,306.438199
582.397651,-2590.720797,7994.224174,995.924147
582.397972,-1850.514855,9326.594869,689.485948
582.398292,592.164754,11843.295072,0.000000
582.398613,-1406.391290,9918.759623,-1455.581446
582.398934,3182.885551,9178.553681,-1532.190996
582.399254,4441.235652,9178.553681,76.609550
582.399575,3108.864956,11103.089130,-995.924147
582.399895,4071.132681,10510.924376,-2681.334243
582.400216,4367.215058,10140.821405,-4673.182538
582.400537,4441.235652,7698.141797,-4290.134789
582.400857,5477.523971,8882.471304,-306.438199
582.401178,4441.235652,9622.677246,0.000000
582.401498,2960.823768,11473.192101,-2604.724693
582.401819,3552.988522,14508.036463,-3524.039291
582.402139,3256.906145,14730.098246,-3064.381992
582.402460,1628.453072,12287.418637,-1532.190996
582.402781,-370.102971,8438.347739,-306.438199
582.403101,-1406.391290,10066.800811,-76.609550
582.403422,-4071.132681,11177.109724,612.876398
582.403742,-3701.029710,11843.295072,689.485948
582.404063,-2812.782580,11843.295072,-995.924147
582.404384,-2664.741391,10584.944971,229.828649
582.404704,-3478.967927,12879.583391,3140.991542
582.405025,-2812.782580,15544.324782,3064.381992
582.405345,-2886.803174,14285.974681,1072.533697
582.405666,0.000000,12879.583391,-536.266849
582.405986,2442.679609,9622.677246,0.000000
582.406307,2368.659014,7550.100608,229.828649
582.406628,3552.988522,8438.347739,689.485948
582.406948,3701.029710,10288.862594,-383.047749
582.407269,2960.823768,8068.244768,-1532.190996
582.407589,6661.853478,6513.812290,-306.438199
582.407910,8290.306550,7550.100608,0.000000
582.408230,6513.812290,8808.450710,-1685.410096
582.408551,6661.853478,10881.027347,-2068.457845
582.408872,5773.606348,11325.150913,-2987.772442
582.409192,5255.462188,8142.265362,-2757.943793
582.409513,6439.791695,5921.647536,229.828649
582.409833,7105.977043,5625.565159,76.609550
582.410154,2960.823768,8734.430116,-1149.143247
582.410475,2442.679609,10288.862594,-1762.019645
582.410795,2516.700203,10881.027347,-2145.067394
582.411116,2516.700203,8660.409521,-919.314598
582.411436,3701.029710,5181.441594,2987.772442
582.411757,3775.050304,6661.853478,3600.648841
582.412077,666.185348,6735.874072,919.314598
582.412398,0.000000,7328.038826,-459.657299
582.412719,1850.514855,6439.791695,459.657299
582.413039,5181.441594,7179.997637,2987.772442
582.413360,4589.276840,9104.533087,4979.620737
582.413680,5625.565159,10881.027347,995.924147
582.414001,5773.606348,11399.171507,-2834.553343
582.414322,5255.462188,10584.944971,-3140.991542
582.414642,7105.977043,7994.224174,-689.485948
582.414963,6735.874072,4293.194464,766.095498
582.415283,5033.400406,3997.112087,2145.067394
582.415604,3627.009116,7772.162391,1685.410096
582.415924,3849.070898,9474.636058,-1225.752797
582.416245,3849.070898,9030.512492,-2221.676944
582.416566,7846.182985,10066.800811,-459.657299
582.416886,7105.977043,9474.636058,1991.848295
582.417207,3849.070898,7698.141797,1532.190996
582.417527,5551.544565,7105.977043,612.876398
582.417848,4737.318029,6365.771101,0.000000
582.418169,3775.050304,5255.462188,-229.828649
582.418489,5477.523971,4811.338623,76.609550
582.418810,6809.894666,6883.915261,-612.876398
582.419130,6365.771101,10658.965565,0.000000
582.419451,5995.668130,11547.212695,76.609550
582.419771,6365.771101,8290.306550,-1072.533697
582.420092,7254.018232,5255.462188,-689.485948
582.420413,4441.235652,4811.338623,-612.876398
582.420733,4885.359217,6735.874072,-1762.019645
582.421054,6143.709319,10214.842000,-1149.143247
582.421374,6291.750507,10881.027347,-76.609550
582.421695,6069.688724,10510.924376,-689.485948
582.422016,6883.915261,7550.100608,-689.485948
582.422336,3849.070898,7328.038826,-612.876398
582.422657,3108.864956,8808.450710,76.609550
582.422977,3034.844362,8512.368333,766.095498
582.423298,4589.276840,7846.182985,0.000000
582.423618,5107.421000,6217.729913,689.485948
582.423939,3627.009116,7550.100608,1532.190996
582.424260,1998.556043,8660.409521,-919.314598
582.424580,2368.659014,10881.027347,-2604.724693
582.424901,3849.070898,13101.645173,-1762.019645
582.425221,5107.421000,11029.068536,-612.876398
582.425542,5773.606348,7624.121203,0.000000
582.425863,5847.626942,6217.729913,-306.438199
582.426183,4293.194464,8290.306550,-536.266849
582.426504,1776.494261,7254.018232,0.000000
582.426824,3701.029710,5477.523971,-1225.752797
582.427145,7105.977043,6809.894666,459.657299
582.427465,6439.791695,10140.821405,1455.581446
582.427786,7328.038826,9696.697840,-1072.533697
582.428107,7402.059420,7846.182985,-3217.601092
582.428427,7179.997637,7105.977043,-2374.896044
582.428748,7105.977043,4811.338623,689.485948
582.429068,7105.977043,4515.256246,1685.410096
582.429389,7105.977043,6957.935855,919.314598
582.429709,5181.441594,9178.553681,-1302.362347
582.430030,5255.462188,8438.347739,-4290.134789
582.430351,6217.729913,7254.018232,-5056.230287
582.430671,5995.668130,7179.997637,-1762.019645
582.430992,4589.276840,9474.636058,2145.067394
582.431312,4959.379811,10658.965565,2911.162892
582.431633,2738.761985,9474.636058,1608.800546
582.431954,2072.576638,8216.285956,0.000000
582.432274,2516.700203,7698.141797,919.314598
582.432595,4367.215058,8512.368333,536.266849
582.432915,4145.153275,9474.636058,153.219100
582.433236,2960.823768,8068.244768,383.047749
582.433556,5255.462188,6217.729913,-842.705048
582.433877,3552.988522,7105.977043,153.219100
582.434198,2072.576638,9104.533087,1762.019645
582.434518,4441.235652,10288.862594,1532.190996
582.434839,4515.256246,10140.821405,612.876398
582.435159,5033.400406,8512.368333,-229.828649
582.435480,4959.379811,8586.388927,1225.752797
582.435801,3775.050304,9770.718434,459.657299
582.436121,2886.803174,11029.068536,-1762.019645
582.436442,2516.700203,9178.553681,-2068.457845
582.436762,3627.009116,5773.606348,-2451.505594
582.437083,5255.462188,4589.276840,0.000000
582.437403,7328.038826,4811.338623,3294.210641
582.437724,6661.853478,8808.450710,2681.334243
582.438045,5033.400406,9178.553681,-229.828649
582.438365,4515.256246,8660.409521,-2374.896044
582.438686,7550.100608,8216.285956,-842.705048
582.439006,6587.832884,5551.544565,536.266849
582.439327,8808.450710,6957.935855,1608.800546
582.439648,7550.100608,8142.265362,229.828649
582.439968,3552.988522,7994.224174,-3447.429741
582.440289,4145.153275,7105.977043,-2834.553343
582.440609,6439.791695,7772.162391,842.705048
582.440930,4589.276840,6439.791695,2834.553343
582.441250,4737.318029,8438.347739,2374.896044
582.441571,5181.441594,9474.636058,-1225.752797
582.441892,4441.235652,9474.636058,-2298.286494
582.442212,2664.741391,7254.018232,1149.143247
582.442533,4737.318029,4737.318029,1302.362347
582.442853,5255.462188,5477.523971,1378.971896
582.443174,2960.823768,7624.121203,1225.752797
582.443495,4663.297435,8734.430116,-2068.457845
582.443815,6439.791695,9844.739029,-2221.676944
582.444136,6957.935855,8956.491898,0.000000
582.444456,6661.853478,6291.750507,689.485948
582.444777,6883.915261,4293.194464,0.000000
582.445097,5773.606348,6809.894666,-536.266849
582.445418,5625.565159,9400.615463,-995.924147
582.445739,5477.523971,7846.182985,-2451.505594
582.446059,6957.935855,7179.997637,-2451.505594
582.446380,8808.450710,8882.471304,-919.314598
582.446700,6883.915261,9696.697840,-153.219100
582.447021,5403.503377,9770.718434,-612.876398
582.447341,6291.750507,10288.862594,-842.705048
582.447662,5033.400406,9326.594869,153.219100
582.447983,3923.091493,6957.935855,1915.238745
582.448303,5625.565159,5403.503377,1302.362347
582.448624,5033.400406,6217.729913,842.705048
582.448944,3256.906145,8660.409521,76.609550
582.449265,3997.112087,9770.718434,-229.828649
582.449586,3627.009116,9696.697840,-612.876398
582.449906,3108.864956,9030.512492,0.000000
582.450227,5477.523971,8142.265362,689.485948
582.450547,3552.988522,7402.059420,-689.485948
582.450868,2368.659014,8882.471304,-766.095498
582.451188,3627.009116,10140.821405,1838.629195
582.451509,4589.276840,9622.677246,1532.190996
582.451830,5551.544565,10362.883188,0.000000
582.452150,4145.153275,9400.615463,-1762.019645
582.452471,2442.679609,8364.327145,-4290.134789
582.452791,4219.173869,6809.894666,-2757.943793
582.453112,5699.585753,7254.018232,1378.971896
582.453433,6069.688724,7105.977043,2068.457845
582.453753,5107.421000,8364.327145,1455.581446
582.454074,4145.153275,10214.842000,0.000000
582.454394,1850.514855,9696.697840,-1072.533697
582.454715,3552.988522,7179.997637,-995.924147
582.455035,7698.141797,5551.544565,1149.143247
582.455356,6439.791695,7328.038826,1532.190996
582.455677,4367.215058,6883.915261,76.609550
582.455997,3552.988522,7254.018232,-995.924147
582.456318,5403.503377,7550.100608,-2068.457845
582.456638,4811.338623,7179.997637,-306.438199
582.456959,7476.080014,9104.533087,1608.800546
582.457280,7328.038826,8808.450710,229.828649
582.457600,5995.668130,10955.047942,-306.438199
582.457921,5625.565159,8512.368333,459.657299
582.458241,4885.359217,5033.400406,0.000000
582.458562,3404.947333,4885.359217,-689.485948
582.458882,2960.823768,6735.874072,-229.828649
582.459203,5255.462188,10140.821405,0.000000
582.459524,6661.853478,9326.594869,919.314598
582.459844,5995.668130,7920.203579,306.438199
582.460165,5107.421000,5847.626942,536.266849
582.460485,4737.318029,7105.977043,995.924147
582.460806,3701.029710,9030.512492,1302.362347
582.461127,5107.421000,9770.718434,0.000000
582.461447,8660.409521,7846.182985,76.609550
582.461768,6513.812290,6143.709319,-1072.533697
582.462088,5847.626942,7105.977043,-1685.410096
582.462409,5329.482782,7920.203579,-229.828649
582.462729,5033.400406,8586.388927,-766.095498
582.463050,6883.915261,7772.162391,-766.095498
582.463371,7105.977043,8438.347739,-306.438199
582.463691,4885.359217,8290.306550,-689.485948
582.464012,4515.256246,8660.409521,229.828649
582.464332,2886.803174,7772.162391,229.828649
582.464653,4737.318029,7550.100608,689.485948
582.464973,6439.791695,7031.956449,1225.752797
582.465294,5551.544565,6439.791695,-306.438199
582.465615,4293.194464,7624.121203,-459.657299
582.465935,3997.112087,8882.471304,0.000000
582.466256,4441.235652,8734.430116,-766.095498
582.466576,6439.791695,7772.162391,0.000000
582.466897,7994.224174,7698.141797,612.876398
582.467218,6661.853478,9474.636058,229.828649
582.467538,3256.906145,8364.327145,-2221.676944
582.467859,3182.885551,7105.977043,-3294.210641
582.468179,3997.112087,8734.430116,-1838.629195
582.468500,6809.894666,8882.471304,536.266849
582.468820,6587.832884,9474.636058,1762.019645
582.469141,5551.544565,9178.553681,229.828649
582.469462,2812.782580,9252.574275,-842.705048
582.469782,1776.494261,7698.141797,0.000000
582.470103,2516.700203,6587.832884,-459.657299
582.470423,5625.565159,7698.141797,1532.190996
582.470743,8290.306550,8216.285956,2068.457845
582.471064,7031.956449,8142.265362,-689.485948
582.471384,3997.112087,7031.956449,-2298.286494
582.471705,3330.926739,7476.080014,-1149.143247
582.472025,5255.462188,8808.450710,1072.533697
582.472346,6439.791695,8438.347739,1762.019645
582.472666,7772.162391,8956.491898,0.000000
582.472987,7772.162391,7994.224174,-1762.019645
582.473307,3182.885551,7105.977043,-3294.210641
582.473628,2442.679609,6809.894666,-1149.143247
582.473948,3478.967927,7772.162391,1072.533697
582.474269,5477.523971,9770.718434,2145.067394
582.474589,5403.503377,10362.883188,1608.800546
582.474910,4885.359217,9104.533087,-1455.581446
582.475230,2368.659014,8512.368333,-3064.381992
582.475551,1406.391290,9104.533087,-383.047749
582.475871,3478.967927,9622.677246,2757.943793
582.476192,5255.462188,8364.327145,3064.381992
582.476512,5551.544565,8290.306550,1072.533697
582.476833,3997.112087,8216.285956,-612.876398
582.477153,1776.494261,8290.306550,-1378.971896
582.477474,2294.638420,7476.080014,-919.314598
582.477794,5181.441594,7179.997637,689.485948
582.478115,6809.894666,6217.729913,2145.067394
582.478435,6365.771101,7550.100608,306.438199
582.478756,3034.844362,7846.182985,-306.438199
582.479076,2368.659014,8068.244768,-1838.629195
582.479397,5329.482782,7624.121203,-995.924147
582.479717,7402.059420,6883.915261,459.657299
582.480038,10436.903782,6439.791695,612.876398
582.480358,8142.265362,7402.059420,459.657299
582.480679,3923.091493,6587.832884,-2068.457845
582.480999,5403.503377,7105.977043,-1378.971896
582.481320,6439.791695,7254.018232,0.000000
582.481640,6513.812290,6957.935855,229.828649
582.481961,8364.327145,6883.915261,0.000000
582.482281,7476.080014,7846.182985,-689.485948
582.482602,3256.906145,8290.306550,-1302.362347
582.482922,2516.700203,6439.791695,-766.095498
582.483243,4885.359217,7179.997637,-1225.752797
582.483563,5329.482782,9474.636058,0.000000
582.483884,5107.421000,10510.924376,1915.238745
582.484204,5329.482782,10510.924376,1225.752797
582.484524,2072.576638,8734.430116,-612.876398
582.484845,2368.659014,8216.285956,0.000000
582.485165,4145.153275,9992.780217,919.314598
582.485486,4441.235652,9696.697840,-383.047749
582.485806,5773.606348,9696.697840,689.485948
582.486127,6365.771101,8512.368333,842.705048
582.486447,2960.823768,7105.977043,0.000000
582.486768,3108.864956,7698.141797,1225.752797
582.487088,4811.338623,8290.306550,842.705048
582.487409,5107.421000,8216.285956,-766.095498
582.487729,5699.585753,8068.244768,-612.876398
582.488050,6513.812290,7920.203579,-689.485948
582.488370,4663.297435,9326.594869,-1302.362347
582.488691,4737.318029,9326.594869,-612.876398
582.489011,5699.585753,9474.636058,-766.095498
582.489332,5847.626942,8734.430116,0.000000
582.489652,6291.750507,9178.553681,1302.362347
582.489973,3997.112087,8512.368333,229.828649
582.490293,2146.597232,7698.141797,-2451.505594
582.490614,4737.318029,7846.182985,-1302.362347
582.490934,5181.441594,7105.977043,-459.657299
582.491255,6809.894666,6069.688724,-1532.190996
582.491575,6661.853478,7920.203579,-306.438199
582.491896,2368.659014,8216.285956,-1455.581446
582.492216,2368.659014,8586.388927,-383.047749
582.492537,5181.441594,7846.182985,1302.362347
582.492857,5477.523971,6365.771101,459.657299
582.493178,6957.935855,7846.182985,383.047749
582.493498,5403.503377,9104.533087,-536.266849
582.493819,2442.679609,9326.594869,-2451.505594
582.494139,1924.535449,7476.080014,-229.828649
582.494460,6143.709319,6365.771101,1149.143247
582.494780,6143.709319,5699.585753,1225.752797
582.495101,3701.029710,6217.729913,1225.752797
582.495421,4071.132681,9622.677246,0.000000
582.495742,2738.761985,9326.594869,-1685.410096
582.496062,2442.679609,7254.018232,-1608.800546
582.496383,8216.285956,8290.306550,-1225.752797
582.496703,7179.997637,8512.368333,-1225.752797
582.497024,4145.153275,8882.471304,-1762.019645
582.497344,3404.947333,8438.347739,-1608.800546
582.497665,3775.050304,7550.100608,-383.047749
582.497985,4959.379811,8216.285956,919.314598
582.498305,6217.729913,8142.265362,1915.238745
582.498626,5255.462188,8734.430116,-1532.190996
582.498946,5625.565159,10362.883188,-2451.505594
582.499267,4663.297435,9326.594869,76.609550
582.499587,4293.194464,6587.832884,689.485948
582.499908,7031.956449,5551.544565,919.314598
582.500228,5921.647536,6661.853478,1685.410096
582.500549,4737.318029,8364.327145,383.047749
582.500869,5403.503377,10436.903782,-995.924147
582.501190,5255.462188,9696.697840,-2221.676944
582.501510,4811.338623,8808.450710,-1532.190996
582.501831,7105.977043,8142.265362,0.000000
582.502151,6735.874072,7328.038826,76.609550
582.502472,5329.482782,8142.265362,-536.266849
582.502792,4145.153275,8364.327145,-689.485948
582.503113,2220.617826,7772.162391,-1608.800546
582.503433,3034.844362,6661.853478,-842.705048
582.503754,6291.750507,7772.162391,1378.971896
582.504074,6883.915261,9844.739029,459.657299
582.504395,5329.482782,9474.636058,-1378.971896
582.504715,4441.235652,9474.636058,-3600.648841
582.505036,2516.700203,9178.553681,-2757.943793
582.505356,4145.153275,7105.977043,612.876398
582.505677,6809.894666,6143.709319,2528.115143
582.505997,4441.235652,6735.874072,1225.752797
582.506318,2812.782580,10436.903782,-536.266849
582.506638,3330.926739,11917.315666,-919.314598
582.506959,1628.453072,8808.450710,-1685.410096
582.507279,5699.585753,7105.977043,0.000000
582.507600,6883.915261,6217.729913,1685.410096
582.507920,4737.318029,5255.462188,-306.438199
582.508241,3034.844362,7179.997637,-1378.971896
582.508561,4293.194464,9770.718434,-689.485948
582.508882,5625.565159,9178.553681,-995.924147
582.509202,7254.018232,9030.512492,-689.485948
582.509523,6513.812290,8882.471304,-1302.362347
582.509843,6291.750507,9696.697840,-1302.362347
582.510164,4145.153275,9400.615463,612.876398
582.510484,3701.029710,7772.162391,153.219100
582.510805,4737.318029,5773.606348,1149.143247
582.511125,5107.421000,5847.626942,1685.410096
582.511446,5773.606348,9326.594869,919.314598
582.511766,4367.215058,9696.697840,612.876398
582.512086,3404.947333,7402.059420,-1072.533697
582.512407,5551.544565,6365.771101,689.485948
582.512727,5477.523971,5551.544565,2987.772442
582.513048,4515.256246,6513.812290,1915.238745
582.513368,6809.894666,8512.368333,-1455.581446
582.513689,7698.141797,9400.615463,-2298.286494
582.514009,5033.400406,9844.739029,-1378.971896
582.514330,6069.688724,7550.100608,-1532.190996
582.514650,7550.100608,7772.162391,536.266849
582.514971,7179.997637,8290.306550,1225.752797
582.515291,5033.400406,8734.430116,306.438199
582.515612,3997.112087,8142.265362,-995.924147
582.515932,2368.659014,6735.874072,-1455.581446
582.516253,3256.906145,6513.812290,229.828649
582.516573,4811.338623,7254.018232,2374.896044
582.516894,5551.544565,7920.203579,2298.286494
582.517214,4737.318029,7698.141797,536.266849
582.517535,2220.617826,7105.977043,-1608.800546
582.517855,1702.473667,6069.688724,-1302.362347
582.518176,4293.194464,7105.977043,1225.752797
582.518496,5699.585753,9622.677246,1225.752797
582.518817,5625.565159,9104.533087,-536.266849
582.519137,7624.121203,7994.224174,-3140.991542
582.519458,5329.482782,8216.285956,-3524.039291
582.519778,2738.761985,8734.430116,-1838.629195
582.520099,4219.173869,6735.874072,-383.047749
582.520419,5847.626942,7105.977043,-1762.019645
582.520740,5995.668130,8364.327145,-1072.533697
582.521060,5403.503377,9474.636058,-229.828649
582.521381,4367.215058,7994.224174,-1838.629195
582.521701,4145.153275,8808.450710,-1455.581446
582.522022,4145.153275,8290.306550,1302.362347
582.522342,5403.503377,7994.224174,919.314598
582.522663,5403.503377,8438.347739,612.876398
582.522983,2886.803174,8290.306550,-612.876398
582.523304,3997.112087,9178.553681,229.828649
582.523624,4589.276840,9770.718434,0.000000
582.523945,3701.029710,9030.512492,-1072.533697
582.524265,6735.874072,8956.491898,-1149.143247
582.524586,7402.059420,9770.718434,-612.876398
582.524906,5329.482782,10658.965565,-919.314598
582.525227,3256.906145,9918.759623,-306.438199
582.525547,4811.338623,9326.594869,-536.266849
582.525867,6291.750507,9252.574275,76.609550
582.526188,5773.606348,9104.533087,1378.971896
582.526508,5551.544565,8216.285956,459.657299
582.526829,4441.235652,8882.471304,-536.266849
582.527149,3923.091493,8808.450710,-153.219100
582.527470,4737.318029,7920.203579,459.657299
582.527790,8068.244768,7846.182985,1225.752797
582.528111,8364.327145,7624.121203,919.314598
582.528431,5847.626942,7031.956449,536.266849
582.528752,4441.235652,7328.038826,0.000000
582.529072,5551.544565,9104.533087,-995.924147
582.529393,4663.297435,7105.977043,-383.047749
582.529713,6809.894666,6291.750507,-766.095498
582.530034,9844.739029,6587.832884,-1225.752797
582.530354,5329.482782,7105.977043,-1608.800546
582.530675,4293.194464,6957.935855,-1762.019645
582.530995,4367.215058,7328.038826,-1149.143247
582.531316,5403.503377,6587.832884,383.047749
582.531636,7031.956449,7105.977043,3064.381992
582.531957,6883.915261,8216.285956,1685.410096
582.532277,4293.194464,8512.368333,-1915.238745
582.532598,3182.885551,8734.430116,-1608.800546
582.532918,2072.576638,6513.812290,306.438199
582.533239,4589.276840,6143.709319,1302.362347
582.533559,5847.626942,5625.565159,2604.724693
582.533880,4367.215058,8068.244768,689.485948
582.534200,3108.864956,9400.615463,-689.485948
582.534521,1258.350101,8290.306550,153.219100
582.534841,4293.194464,8068.244768,612.876398
582.535162,6587.832884,6513.812290,2757.943793
582.535482,5107.421000,5995.668130,2451.505594
582.535803,6735.874072,7772.162391,-383.047749
582.536123,4885.359217,8290.306550,-1915.238745
582.536444,3849.070898,9326.594869,-2145.067394
582.536764,8068.244768,6809.894666,0.000000
582.537085,8956.491898,6735.874072,1072.533697
582.537405,7550.100608,8586.388927,1149.143247
582.537726,7994.224174,9104.533087,919.314598
582.538046,5699.585753,7550.100608,-1532.190996
582.538367,4293.194464,7476.080014,-2604.724693
582.538687,5921.647536,6883.915261,0.000000
582.539008,6587.832884,7624.121203,459.657299
582.539328,5921.647536,8068.244768,1302.362347
582.539648,5995.668130,8808.450710,1302.362347
582.539969,3330.926739,8364.327145,-383.047749
582.540289,962.267725,7846.182985,-306.438199
582.540610,2812.782580,9326.594869,1685.410096
582.540930,5477.523971,11843.295072,2451.505594
582.541251,2738.761985,10584.944971,1072.533697
582.541571,5255.462188,9030.512492,-612.876398
582.541892,4663.297435,8808.450710,-919.314598
582.542212,74.020594,7920.203579,-459.657299
582.542533,2886.803174,8290.306550,1149.143247
582.542853,4663.297435,7179.997637,1225.752797
582.543174,4959.379811,7550.100608,-153.219100
582.543494,6439.791695,9474.636058,1838.629195
582.543815,4811.338623,8734.430116,0.000000
582.544135,4145.153275,6957.935855,-2987.772442
582.544456,5255.462188,7920.203579,0.000000
582.544776,5699.585753,6587.832884,995.924147
582.545097,7254.018232,6661.853478,612.876398
582.545417,5995.668130,7105.977043,-76.609550
582.545738,5847.626942,7920.203579,-2451.505594
582.546058,5551.544565,8512.368333,-2298.286494
582.546379,6587.832884,7328.038826,-1915.238745
582.546699,8364.327145,7402.059420,-1302.362347
582.547020,8882.471304,6439.791695,-229.828649
582.547340,5329.482782,7179.997637,-1455.581446
582.547661,4663.297435,7402.059420,-2451.505594
582.547981,3256.906145,5995.668130,-1915.238745
582.548302,5699.585753,7179.997637,-1225.752797
582.548622,5995.668130,8290.306550,306.438199
582.548943,4589.276840,9030.512492,229.828649
582.549263,4959.379811,9622.677246,229.828649
582.549584,3256.906145,9178.553681,153.219100
582.549904,3330.926739,7846.182985,459.657299
582.550225,4811.338623,7105.977043,1608.800546
582.550545,6661.853478,7772.162391,1991.848295
582.550866,4959.379811,8438.347739,1149.143247
582.551186,3701.029710,8068.244768,612.876398
582.551507,3849.070898,9622.677246,-995.924147
582.551827,4071.132681,9770.718434,229.828649
582.552148,4293.194464,7105.977043,459.657299
582.552468,9104.533087,6365.771101,-766.095498
582.552788,6143.709319,7624.121203,-1378.971896
582.553109,2886.803174,8216.285956,-1532.190996
582.553429,4219.173869,8364.327145,0.000000
582.553750,6365.771101,8512.368333,536.266849
582.554070,7254.018232,9548.656652,1455.581446
582.554391,7254.018232,9622.677246,306.438199
582.554711,6217.729913,9178.553681,-2757.943793
582.555032,4441.235652,8216.285956,-1838.629195
582.555352,3923.091493,6513.812290,1685.410096
582.555673,6809.894666,5699.585753,1378.971896
582.555993,5995.668130,6587.832884,536.266849
582.556314,3256.906145,7624.121203,-919.314598
582.556634,3552.988522,9474.636058,-1225.752797
582.556955,4663.297435,9992.780217,0.000000
582.557275,4293.194464,7994.224174,-229.828649
582.557596,7031.956449,7179.997637,919.314598
582.557916,5699.585753,7179.997637,612.876398
582.558237,4663.297435,7550.100608,229.828649
582.558557,2812.782580,7920.203579,1302.362347
582.558878,4219.173869,8142.265362,229.828649
582.559198,5255.462188,8734.430116,612.876398
582.559519,4589.276840,7920.203579,306.438199
582.559839,5773.606348,9474.636058,229.828649
582.560160,5699.585753,9104.533087,536.266849
582.560480,2590.720797,6439.791695,153.219100
582.560801,3034.844362,4737.318029,-459.657299
582.561121,4293.194464,5847.626942,0.000000
582.561442,5699.585753,8586.388927,536.266849
582.561762,4663.297435,8142.265362,0.000000
582.562083,4959.379811,7031.956449,-1685.410096
582.562403,5477.523971,10658.965565,-995.924147
582.562724,1998.556043,9104.533087,153.219100
582.563044,2664.741391,6143.709319,-536.266849
582.563365,8142.265362,6217.729913,-842.705048
582.563685,5921.647536,7031.956449,-1072.533697
582.564006,4959.379811,8808.450710,-536.266849
582.564326,4885.359217,9844.739029,-1762.019645
582.564647,4367.215058,10362.883188,-2451.505594
582.564967,5625.565159,9992.780217,689.485948
582.565288,7254.018232,9030.512492,1762.019645
582.565608,4737.318029,8586.388927,-689.485948
582.565929,3849.070898,7698.141797,-1378.971896
582.566249,1702.473667,6883.915261,-842.705048
582.566569,4737.318029,7328.038826,536.266849
582.566890,5847.626942,8364.327145,3677.258390
582.567210,3404.947333,9030.512492,919.314598
582.567531,3627.009116,8364.327145,-1838.629195
582.567851,3478.967927,9696.697840,-842.705048
582.568172,4219.173869,9252.574275,766.095498
582.568492,6513.812290,7550.100608,1608.800546
582.568813,7994.224174,6291.750507,459.657299
582.569133,6439.791695,7254.018232,-1455.581446
582.569454,5403.503377,8956.491898,-995.924147
582.569774,4589.276840,9400.615463,-1532.190996
582.570095,5403.503377,9030.512492,-2221.676944
582.570415,6143.709319,7402.059420,-1685.410096
582.570736,7402.059420,7772.162391,0.000000
582.571056,5921.647536,8882.471304,229.828649
582.571377,3997.112087,8290.306550,-306.438199
582.571697,2738.761985,7994.224174,-1378.971896
582.572018,4071.132681,8142.265362,-1378.971896
582.572338,5255.462188,7698.141797,919.314598
582.572659,4885.359217,7179.997637,1762.019645
582.572979,4219.173869,6661.853478,229.828649
582.573300,3849.070898,9770.718434,229.828649
582.573620,1406.391290,9474.636058,0.000000
582.573941,2368.659014,7550.100608,-689.485948
582.574261,7772.162391,7031.956449,-383.047749
582.574582,6143.709319,8808.450710,153.219100
582.574902,3701.029710,9030.512492,-459.657299
582.575223,3849.070898,8882.471304,-459.657299
582.575543,5181.441594,8660.409521,-536.266849
582.575864,4515.256246,8438.347739,459.657299
582.576184,5107.421000,7698.141797,459.657299
582.576505,3997.112087,7846.182985,-2068.457845
582.576825,4219.173869,9252.574275,-1991.848295
582.577146,4145.153275,8142.265362,536.266849
582.577466,5329.482782,5921.647536,-306.438199
582.577787,5551.544565,5329.482782,689.485948
582.578107,4367.215058,7402.059420,1149.143247
582.578428,3034.844362,9992.780217,-612.876398
582.578748,3627.009116,9844.739029,-536.266849
582.579069,8068.244768,8586.388927,-459.657299
582.579389,8438.347739,7550.100608,0.000000
582.579710,7550.100608,5847.626942,-689.485948
582.580030,6587.832884,6513.812290,-995.924147
582.580351,3997.112087,7476.080014,-1915.238745
582.580671,4515.256246,7698.141797,-1149.143247
582.580992,7846.182985,8808.450710,0.000000
582.581312,5329.482782,8586.388927,-1378.971896
582.581633,5773.606348,9400.615463,-842.705048
582.581953,4811.338623,10140.821405,383.047749
582.582274,2812.782580,8956.491898,-536.266849
582.582594,2886.803174,7772.162391,536.266849
582.582915,3552.988522,6883.915261,1149.143247
582.583235,3923.091493,8216.285956,306.438199
582.583556,4589.276840,9030.512492,1532.190996
582.583876,2590.720797,9622.677246,995.924147
582.584197,2886.803174,9844.739029,-689.485948
582.584517,3330.926739,9400.615463,612.876398
582.584838,1628.453072,7994.224174,306.438199
582.585158,5181.441594,6217.729913,0.000000
582.585479,7105.977043,6143.709319,689.485948
582.585799,5033.400406,8512.368333,-995.924147
582.586120,5033.400406,8512.368333,-2757.943793
582.586440,5477.523971,9178.553681,-1532.190996
582.586761,7550.100608,9030.512492,-842.705048
582.587081,7698.141797,7550.100608,383.047749
582.587402,8068.244768,7402.059420,76.609550
582.587722,4737.318029,7105.977043,-3217.601092
582.588043,4145.153275,8290.306550,-2757.943793
582.588363,5995.668130,7550.100608,0.000000
582.588684,8142.265362,7254.018232,1225.752797
582.589004,6217.729913,7550.100608,766.095498
582.589325,3775.050304,8438.347739,-1225.752797
582.589645,888.247130,8808.450710,-1915.238745
582.589966,3034.844362,8438.347739,-153.219100
582.590286,6069.688724,7476.080014,1378.971896
582.590607,5107.421000,5847.626942,995.924147
582.590927,7031.956449,7550.100608,-383.047749
582.591248,2072.576638,9770.718434,-1378.971896
582.591568,-740.205942,9770.718434,-2068.457845
582.591889,4959.379811,9030.512492,153.219100
582.592209,6217.729913,7994.224174,1072.533697
582.592530,5329.482782,8512.368333,0.000000
582.592850,5625.565159,10807.006753,919.314598
582.593171,2516.700203,10362.883188,-766.095498
582.593491,2738.761985,9474.636058,-1302.362347
582.593812,5625.565159,7402.059420,2221.676944
582.594132,7105.977043,5995.668130,1685.410096
582.594453,6513.812290,5625.565159,919.314598
582.594773,3627.009116,7179.997637,306.438199
582.595094,4293.194464,10140.821405,-995.924147
582.595414,4219.173869,7994.224174,0.000000
582.595735,4589.276840,5847.626942,0.000000
582.596055,8882.471304,6143.709319,-383.047749
582.596376,6735.874072,6661.853478,-689.485948
582.596696,5107.421000,8734.430116,-1072.533697
582.597017,5551.544565,9104.533087,-1915.238745
582.597337,6809.894666,9326.594869,-2068.457845
582.597658,7772.162391,8734.430116,306.438199
582.597978,6735.874072,8364.327145,0.000000
582.598299,4663.297435,8068.244768,-1455.581446
582.598619,2960.823768,10214.842000,-842.705048
582.598940,1850.514855,9178.553681,-459.657299
582.599260,4071.132681,7624.121203,689.485948
582.599581,5921.647536,7994.224174,2451.505594
582.599901,2072.576638,7031.956449,1762.019645
582.600222,222.061783,7476.080014,459.657299
582.600542,888.247130,7550.100608,842.705048
582.600863,2812.782580,7846.182985,1302.362347
582.601183,4885.359217,7105.977043,2374.896044
582.601504,7550.100608,7254.018232,229.828649
582.601824,7994.224174,9770.718434,-1608.800546
582.602145,4737.318029,10066.800811,-1762.019645
582.602465,4663.297435,8068.244768,-1762.019645
582.602786,7772.162391,5921.647536,-1302.362347
582.603106,8586.388927,5773.606348,0.000000
582.603427,7402.059420,7920.203579,1072.533697
582.603747,6439.791695,8808.450710,-229.828649
582.604068,6661.853478,8882.471304,-2528.115143
582.604388,5847.626942,8290.306550,-612.876398
582.604709,5773.606348,5033.400406,919.314598
582.605029,7772.162391,4293.194464,1915.238745
582.605350,7179.997637,6513.812290,1838.629195
582.605670,4959.379811,7031.956449,459.657299
582.605991,4071.132681,7254.018232,-919.314598
582.606311,4219.173869,6957.935855,-1225.752797
582.606632,5033.400406,9178.553681,153.219100
582.606952,4515.256246,9696.697840,1072.533697
582.607273,4959.379811,9622.677246,-995.924147
582.607593,6513.812290,8364.327145,-1608.800546
582.607914,2960.823768,8734.430116,-1455.581446
582.608234,1628.453072,8956.491898,-1225.752797
582.608555,2590.720797,7624.121203,-919.314598
582.608875,5329.482782,9326.594869,919.314598
582.609196,5551.544565,10584.944971,2221.676944
582.609516,2072.576638,9104.533087,229.828649
582.609837,2516.700203,7846.182985,-2757.943793
582.610157,2442.679609,7476.080014,-1455.581446
582.610478,3997.112087,7772.162391,2528.115143
582.610798,6365.771101,7105.977043,2911.162892
582.611119,3478.967927,5847.626942,0.000000
582.611439,3256.906145,7994.224174,-1378.971896
582.611760,5181.441594,11547.212695,76.609550
582.612080,4441.235652,10881.027347,-383.047749
582.612401,7402.059420,8364.327145,-1608.800546
582.612721,8512.368333,7179.997637,-1532.190996
582.613042,5477.523971,6513.812290,-1838.629195
582.613362,3775.050304,7550.100608,-842.705048
582.613683,4737.318029,7772.162391,153.219100
582.614003,5181.441594,7846.182985,-1225.752797
582.614324,6957.935855,8142.265362,-689.485948
582.614644,5403.503377,8290.306550,459.657299
582.614965,5255.462188,8438.347739,383.047749
582.615285,5551.544565,9696.697840,1532.190996
582.615606,4219.173869,8290.306550,842.705048
582.615926,5033.400406,6809.894666,-1072.533697
582.616247,6143.709319,6809.894666,306.438199
582.616567,5255.462188,7402.059420,1072.533697
582.616888,5033.400406,7624.121203,842.705048
582.617208,4589.276840,7105.977043,1072.533697
582.617529,3997.112087,7476.080014,-689.485948
582.617849,6143.709319,7698.141797,-229.828649
582.618170,5847.626942,7328.038826,0.000000
582.618490,5477.523971,7105.977043,-689.485948
582.618811,7402.059420,7920.203579,0.000000
582.619131,5699.585753,7476.080014,-383.047749
582.619452,4145.153275,7402.059420,-1302.362347
582.619772,7105.977043,7476.080014,-536.266849
582.620093,7328.038826,9474.636058,1072.533697
582.620413,6513.812290,8438.347739,0.000000
582.620734,5329.482782,7698.141797,-1378.971896
582.621054,4663.297435,7402.059420,-2757.943793
582.621375,4441.235652,8068.244768,-2068.457845
582.621695,3775.050304,7994.224174,842.705048
582.622016,4737.318029,7624.121203,1302.362347
582.622336,4293.194464,7328.038826,1149.143247
582.622657,2738.761985,8956.491898,-153.219100
582.622977,2442.679609,9474.636058,-383.047749
582.623298,3552.988522,9696.697840,-459.657299
582.623618,5995.668130,9326.594869,459.657299
582.623939,7031.956449,7476.080014,919.314598
582.624259,4959.379811,6809.894666,459.657299
582.624580,4219.173869,8364.327145,-153.219100
582.624900,3108.864956,10288.862594,153.219100
582.625221,3923.091493,9474.636058,612.876398
582.625541,7402.059420,7772.162391,306.438199
582.625862,7105.977043,6809.894666,76.609550
582.626182,4515.256246,5847.626942,-612.876398
582.626503,3997.112087,6143.709319,-459.657299
582.626823,4367.215058,8808.450710,0.000000
582.627144,5477.523971,9104.533087,0.000000
582.627464,7476.080014,8438.347739,-383.047749
582.627785,5625.565159,8956.491898,-536.266849
582.628105,3997.112087,8882.471304,-306.438199
582.628426,3627.009116,7920.203579,2068.457845
582.628746,3404.947333,7105.977043,612.876398
582.629067,6883.915261,6957.935855,0.000000
582.629387,6587.832884,7031.956449,-766.095498
582.629708,3552.988522,6957.935855,-2068.457845
582.630028,4737.318029,8068.244768,-153.219100
582.630349,6217.729913,9548.656652,2374.896044
582.630669,4589.276840,7846.182985,536.266849
582.630990,5847.626942,5995.668130,229.828649
582.631310,7105.977043,6069.688724,-995.924147
582.631631,4145.153275,7105.977043,-1225.752797
582.631951,3923.091493,7179.997637,689.485948
582.632272,5773.606348,7772.162391,536.266849
582.632592,7402.059420,8364.327145,-1378.971896
582.632913,6661.853478,9326.594869,0.000000
582.633233,4219.173869,8808.450710,76.609550
582.633554,3997.112087,7031.956449,-1532.190996
582.633874,4663.297435,8142.265362,1378.971896
582.634195,4515.256246,7254.018232,1762.019645
582.634515,6439.791695,5181.441594,306.438199
582.634836,7105.977043,6143.709319,229.828649
582.635156,5181.441594,7994.224174,-536.266849
582.635477,3256.906145,8956.491898,-995.924147
582.635797,5255.462188,7624.121203,-1685.410096
582.636118,5773.606348,6883.915261,-1838.629195
582.636438,7624.121203,7402.059420,919.314598
582.636759,7105.977043,7476.080014,1838.629195
582.637079,4145.153275,8956.491898,-842.705048
582.637400,4145.153275,8438.347739,-842.705048
582.637720,4737.318029,8438.347739,-306.438199
582.638041,4367.215058,7402.059420,-383.047749
582.638361,6587.832884,8216.285956,0.000000
582.638682,6661.853478,10658.965565,229.828649
582.639002,2220.617826,10584.944971,-919.314598
582.639323,3627.009116,10214.842000,-306.438199
582.639643,3775.050304,7994.224174,229.828649
582.639964,2812.782580,6957.935855,1225.752797
582.640284,5403.503377,8734.430116,3140.991542
582.640605,4885.359217,8734.430116,995.924147
582.640925,1184.329507,7772.162391,-1455.581446
582.641246,3256.906145,8512.368333,76.609550
582.641566,4219.173869,9770.718434,919.314598
582.641887,3182.885551,7698.141797,612.876398
582.642207,6513.812290,7476.080014,1149.143247
582.642528,7105.977043,8512.368333,-459.657299
582.642848,2812.782580,8364.327145,-1915.238745
582.643169,3997.112087,7698.141797,-612.876398
582.643489,6513.812290,8956.491898,153.219100
582.643810,8216.285956,9474.636058,0.000000
582.644130,7476.080014,9474.636058,383.047749
582.644451,5773.606348,8142.265362,-2068.457845
582.644771,4293.194464,6439.791695,-2834.553343
582.645092,3330.926739,6587.832884,842.705048
582.645412,4737.318029,7105.977043,1685.410096
582.645733,6735.874072,7031.956449,1072.533697
582.646053,5625.565159,6957.935855,-612.876398
582.646374,4441.235652,7920.203579,-1455.581446
582.646694,3256.906145,8142.265362,0.000000
582.647015,5773.606348,7254.018232,1149.143247
582.647335,7105.977043,7105.977043,536.266849
582.647656,5625.565159,5847.626942,306.438199
582.647976,6365.771101,8216.285956,-536.266849
582.648297,3478.967927,7994.224174,-1608.800546
582.648617,3478.967927,8364.327145,-842.705048
582.648938,8808.450710,8586.388927,1072.533697
582.649258,5773.606348,8216.285956,0.000000
582.649579,6513.812290,8734.430116,-1149.143247
582.649899,4885.359217,7402.059420,383.047749
582.650220,3034.844362,5921.647536,229.828649
582.650540,4737.318029,6365.771101,842.705048
582.650861,6217.729913,7105.977043,1225.752797
582.651181,5181.441594,7105.977043,-1225.752797
582.651502,6143.709319,7994.224174,-995.924147
582.651822,5625.565159,7105.977043,1149.143247
582.652143,5329.482782,9178.553681,536.266849
582.652463,4959.379811,9400.615463,1149.143247
582.652784,3478.967927,7846.182985,-1685.410096
582.653104,7402.059420,7476.080014,-2987.772442
582.653425,6809.894666,8142.265362,-306.438199
582.653745,4515.256246,9696.697840,229.828649
582.654066,3775.050304,9844.739029,-76.609550
582.654386,2886.803174,8660.409521,-842.705048
582.654707,4515.256246,9178.553681,-1378.971896
582.655027,5477.523971,9030.512492,842.705048
582.655348,3923.091493,7698.141797,-229.828649
582.655668,3034.844362,9178.553681,-842.705048
582.655989,2146.597232,9918.759623,1225.752797
582.656309,1924.535449,9844.739029,689.485948
582.656630,3256.906145,8660.409521,842.705048
582.656950,3182.885551,7550.100608,1455.581446
582.657271,3849.070898,9474.636058,0.000000
582.657591,962.267725,10584.944971,-459.657299
582.657912,3330.926739,9474.636058,-1378.971896
582.658232,7328.038826,8216.285956,-1149.143247
582.658553,5921.647536,7476.080014,919.314598
582.658873,4071.132681,8216.285956,153.219100
582.659194,3701.029710,8216.285956,-1532.190996
582.659514,2368.659014,8216.285956,-2681.334243
582.659835,7031.956449,8364.327145,-1072.533697
582.660155,7698.141797,7179.997637,689.485948
582.660476,7328.038826,6883.915261,-995.924147
582.660796,6809.894666,7624.121203,-229.828649
582.661117,3330.926739,7476.080014,229.828649
582.661437,4811.338623,6143.709319,-306.438199
582.661758,8216.285956,6809.894666,153.219100
582.662078,6735.874072,7920.203579,-536.266849
582.662399,5921.647536,8586.388927,-1378.971896
582.662719,6365.771101,7105.977043,-766.095498
582.663040,4663.297435,7179.997637,-459.657299
582.663360,5699.585753,7105.977043,306.438199
582.663681,5181.441594,5773.606348,229.828649
582.664001,4145.153275,5255.462188,-1608.800546
582.664322,4145.153275,8660.409521,-995.924147
582.664642,5033.400406,11621.233289,612.876398
582.664963,1554.432478,10510.924376,0.000000
582.665283,5477.523971,7550.100608,229.828649
582.665604,6217.729913,8068.244768,1072.533697
582.665924,2072.576638,7846.182985,536.266849
582.666245,1924.535449,5995.668130,0.000000
582.666565,5847.626942,7254.018232,-153.219100
582.666886,4515.256246,9030.512492,-1302.362347
582.667206,5477.523971,10436.903782,229.828649
582.667527,5995.668130,9252.574275,0.000000
582.667847,3997.112087,9104.533087,-2528.115143
582.668168,3775.050304,8734.430116,995.924147
582.668488,4589.276840,7624.121203,1149.143247
582.668809,5403.503377,6809.894666,-1225.752797
582.669129,6217.729913,7105.977043,-536.266849
582.669450,6809.894666,9178.553681,-995.924147
582.669770,6069.688724,9400.615463,-306.438199
582.670091,6217.729913,7328.038826,0.000000
582.670411,7105.977043,5551.544565,153.219100
582.670732,7920.203579,4515.256246,459.657299
582.671052,8956.491898,5255.462188,1991.848295
582.671373,7328.038826,5995.668130,0.000000
582.671693,8364.327145,4737.318029,-2681.334243
582.672014,9770.718434,4589.276840,-1991.848295
582.672335,9770.718434,5107.421000,-1072.533697
582.672655,9326.594869,5033.400406,-1608.800546
582.672976,9030.512492,6957.935855,-1608.800546
582.673296,9104.533087,8956.491898,-2145.067394
582.673617,8438.347739,9474.636058,-1991.848295
582.673938,7254.018232,7624.121203,-612.876398
582.674258,7031.956449,5181.441594,-1149.143247
582.674579,8142.265362,4811.338623,536.266849
582.674899,7105.977043,6291.750507,1532.190996
582.675220,4219.173869,5921.647536,306.438199
582.675541,4293.194464,3552.988522,229.828649
582.675861,6883.915261,5921.647536,459.657299
582.676182,5625.565159,5255.462188,1532.190996
582.676502,7624.121203,5477.523971,383.047749
582.676823,12139.377449,7031.956449,-153.219100
582.677144,9104.533087,8142.265362,-1225.752797
582.677464,8882.471304,6217.729913,-1302.362347
582.677785,11399.171507,5699.585753,-153.219100
582.678105,11695.253884,5773.606348,-612.876398
582.678426,12065.356855,7476.080014,-1302.362347
582.678747,10732.986159,7402.059420,-2451.505594
582.679067,10066.800811,6069.688724,-3447.429741
582.679388,10436.903782,6587.832884,-612.876398
582.679708,9400.615463,5033.400406,2834.553343
582.680029,8882.471304,3701.029710,1532.190996
582.680350,7105.977043,3849.070898,612.876398
582.680670,6365.771101,5181.441594,842.705048
582.680991,8882.471304,7105.977043,1762.019645
582.681312,8142.265362,5921.647536,1302.362347
582.681632,9474.636058,6217.729913,-612.876398
582.681953,9770.718434,7105.977043,-153.219100
582.682273,8734.430116,6513.812290,229.828649
582.682594,8660.409521,5551.544565,766.095498
582.682915,9400.615463,5181.441594,842.705048
582.683235,10436.903782,5107.421000,306.438199
582.683556,9474.636058,3997.112087,0.000000
582.683876,10584.944971,2368.659014,-842.705048
582.684197,12953.603985,4219.173869,-842.705048
582.684518,9992.780217,4441.235652,-1225.752797
582.684838,10066.800811,4441.235652,-1072.533697
582.685159,11695.253884,4293.194464,-995.924147
582.685479,11177.109724,3552.988522,229.828649
582.685800,10732.986159,4811.338623,1302.362347
582.686121,9474.636058,5403.503377,383.047749
582.686441,8438.347739,6439.791695,-995.924147
582.686762,9696.697840,7105.977043,459.657299
582.687082,9104.533087,4959.379811,-229.828649
582.687403,7994.224174,4145.153275,-2145.067394
582.687724,7031.956449,5033.400406,-536.266849
582.688044,6513.812290,6365.771101,1225.752797
582.688365,6809.894666,7105.977043,2068.457845
582.688685,9696.697840,7624.121203,1838.629195
582.689006,7476.080014,4959.379811,459.657299
582.689327,6587.832884,2886.803174,-1072.533697
582.689647,5995.668130,2294.638420,459.657299
582.689968,7550.100608,4219.173869,766.095498
582.690288,10362.883188,5847.626942,-689.485948
582.690609,12065.356855,7105.977043,-2221.676944
582.690930,11103.089130,7402.059420,-2604.724693
582.691250,8882.471304,7402.059420,-536.266849
582.691571,8068.244768,6809.894666,1455.581446
582.691891,10288.862594,7105.977043,0.000000
582.692212,11325.150913,8364.327145,-536.266849
582.692533,7624.121203,6809.894666,-995.924147
582.692853,8808.450710,4885.359217,-1838.629195
582.693174,9178.553681,5477.523971,919.314598
582.693494,6809.894666,6069.688724,1455.581446
582.693815,5995.668130,5921.647536,766.095498
582.694136,7994.224174,7105.977043,-229.828649
582.694456,8068.244768,7179.997637,76.609550
582.694777,7772.162391,5255.462188,2451.505594
582.695097,10066.800811,3923.091493,2221.676944
582.695418,9770.718434,5255.462188,-689.485948
582.695739,7920.203579,7994.224174,-995.924147
582.696059,9178.553681,7402.059420,-1685.410096
582.696380,10732.986159,4959.379811,-1915.238745
582.696700,13027.624579,4589.276840,-153.219100
582.697021,12509.480420,6217.729913,1302.362347
582.697342,9770.718434,4145.153275,-1225.752797
582.697662,11029.068536,3034.844362,-1838.629195
582.697983,12657.521608,3701.029710,1532.190996
582.698303,12879.583391,3330.926739,2911.162892
582.698624,13175.665768,3552.988522,1915.238745
582.698945,10658.965565,2516.700203,-1302.362347
582.699265,11177.109724,3627.009116,-3064.381992
582.699586,11917.315666,4071.132681,-1225.752797
582.699906,12139.377449,3108.864956,-229.828649
582.700227,11917.315666,3478.967927,-689.485948
582.700548,10732.986159,4737.318029,-1072.533697
582.700868,8142.265362,5477.523971,-1991.848295
582.701189,7994.224174,5477.523971,-1532.190996
582.701509,8734.430116,5033.400406,229.828649
582.701830,9400.615463,5477.523971,1072.533697
582.702151,8808.450710,5921.647536,1225.752797
582.702471,8216.285956,5847.626942,-306.438199
582.702792,5847.626942,3701.029710,-1991.848295
582.703112,6735.874072,3034.844362,-995.924147
582.703433,8290.306550,5329.482782,1225.752797
582.703754,6957.935855,8068.244768,1532.190996
582.704074,7254.018232,8734.430116,229.828649
582.704395,9474.636058,8808.450710,-766.095498
582.704715,7550.100608,8734.430116,-995.924147
582.705036,7105.977043,7031.956449,1149.143247
582.705357,7550.100608,6587.832884,1762.019645
582.705677,7994.224174,5847.626942,76.609550
582.705998,9622.677246,5107.421000,153.219100
582.706318,11399.171507,6143.709319,1149.143247
582.706639,9548.656652,6365.771101,153.219100
582.706960,8438.347739,5625.565159,383.047749
582.707280,10362.883188,4515.256246,689.485948
582.707601,11251.130318,3775.050304,842.705048
582.707921,11695.253884,3997.112087,2221.676944
582.708242,11399.171507,5403.503377,536.266849
582.708563,10214.842000,6291.750507,-2834.553343
582.708883,9992.780217,5477.523971,-2757.943793
582.709204,10807.006753,4663.297435,-1072.533697
582.709524,11991.336260,3775.050304,-766.095498
582.709845,10881.027347,5329.482782,76.609550
582.710166,8956.491898,7105.977043,-229.828649
582.710486,7550.100608,6587.832884,-1225.752797
582.710807,8956.491898,5181.441594,-1532.190996
582.711128,9918.759623,4959.379811,-153.219100
582.711448,8882.471304,4885.359217,0.000000
582.711769,7031.956449,4515.256246,0.000000
582.712089,7031.956449,4441.235652,919.314598
582.712410,6809.894666,4441.235652,536.266849
582.712731,7105.977043,5625.565159,536.266849
582.713051,7105.977043,7105.977043,-766.095498
582.713372,7476.080014,7550.100608,-383.047749
582.713692,8734.430116,7254.018232,1072.533697
582.714013,9400.615463,5107.421000,2068.457845
582.714334,8882.471304,3627.009116,0.000000
582.714654,8586.388927,4441.235652,-306.438199
582.714975,8290.306550,5107.421000,229.828649
582.715295,9918.759623,4293.194464,229.828649
582.715616,12287.418637,3478.967927,153.219100
582.715937,13027.624579,4219.173869,-229.828649
582.716257,11991.336260,4219.173869,-1072.533697
582.716578,12139.377449,4737.318029,-919.314598
582.716898,12435.459826,4145.153275,-1455.581446
582.717219,13767.830521,2590.720797,-1072.533697
582.717540,15618.345376,2886.803174,-306.438199
582.717860,14211.954086,4811.338623,-536.266849
582.718181,11621.233289,6143.709319,-1838.629195
582.718501,11917.315666,5477.523971,-1225.752797
582.718822,12287.418637,3701.029710,-995.924147
582.719143,11621.233289,2664.741391,689.485948
582.719463,10362.883188,4145.153275,536.266849
582.719784,8512.368333,5995.668130,-1378.971896
582.720104,6809.894666,6513.812290,-1608.800546
582.720425,8216.285956,6513.812290,1149.143247
582.720746,8512.368333,6143.709319,3217.601092
582.721066,6735.874072,7476.080014,2298.286494
582.721387,4737.318029,7994.224174,229.828649
582.721707,4515.256246,8290.306550,-1532.190996
582.722028,4367.215058,7105.977043,-689.485948
582.722349,6365.771101,7031.956449,1455.581446
582.722669,7402.059420,6661.853478,1838.629195
582.722990,6513.812290,6587.832884,0.000000
582.723310,6365.771101,6957.935855,-1072.533697
582.723631,7476.080014,7105.977043,-459.657299
582.723952,8586.388927,6217.729913,306.438199
582.724272,9992.780217,6069.688724,1378.971896
582.724593,10881.027347,6291.750507,1302.362347
582.724913,10066.800811,5921.647536,306.438199
582.725234,9474.636058,3923.091493,-383.047749
582.725555,10362.883188,1850.514855,-1225.752797
582.725875,10658.965565,2072.576638,-1762.019645
582.726196,11843.295072,3701.029710,-1608.800546
582.726516,12953.603985,5995.668130,-1455.581446
582.726837,12879.583391,7624.121203,-1225.752797
582.727158,11991.336260,6291.750507,0.000000
582.727478,10510.924376,4589.276840,0.000000
582.727799,8882.471304,1998.556043,-689.485948
582.728119,9030.512492,2516.700203,-306.438199
582.728440,9252.574275,4441.235652,-306.438199
582.728761,9474.636058,6957.935855,-1149.143247
582.729081,8364.327145,8142.265362,-995.924147
582.729402,7698.141797,7846.182985,-612.876398
582.729722,7105.977043,6513.812290,1072.533697
582.730043,6587.832884,4959.379811,2451.505594
582.730364,6069.688724,3775.050304,1762.019645
582.730684,5773.606348,3775.050304,689.485948
582.731005,6809.894666,5329.482782,612.876398
582.731325,7624.121203,6587.832884,1685.410096
582.731646,9104.533087,7328.038826,612.876398
582.731967,10288.862594,7328.038826,-1072.533697
582.732287,10362.883188,5995.668130,-1225.752797
582.732608,9918.759623,3849.070898,-306.438199
582.732928,10362.883188,2368.659014,1302.362347
582.733249,10955.047942,2294.638420,1149.143247
582.733570,12361.439231,3478.967927,-459.657299
582.733890,13471.748144,5773.606348,-1915.238745
582.734211,13619.789333,7105.977043,-2757.943793
582.734531,13175.665768,6513.812290,-2298.286494
582.734852,12953.603985,4737.318029,-1072.533697
582.735173,11769.274478,3256.906145,1072.533697
582.735493,10436.903782,3478.967927,1225.752797
582.735814,9030.512492,4441.235652,153.219100
582.736134,7920.203579,5699.585753,-1378.971896
582.736455,7402.059420,6291.750507,-1532.190996
582.736776,7624.121203,6143.709319,-306.438199
582.737096,8216.285956,6439.791695,689.485948
582.737417,7994.224174,7920.203579,306.438199
582.737737,6661.853478,7550.100608,0.000000
582.738058,5921.647536,6587.832884,689.485948
582.738379,5921.647536,5921.647536,1685.410096
582.738699,6587.832884,6217.729913,2145.067394
582.739020,6809.894666,6439.791695,536.266849
582.739341,7328.038826,7105.977043,-1302.362347
582.739661,7772.162391,6661.853478,-1762.019645
582.739982,7772.162391,5107.421000,-1072.533697
582.740302,8734.430116,3775.050304,-229.828649
582.740623,9622.677246,4441.235652,229.828649
582.740944,9400.615463,5847.626942,306.438199
582.741264,9844.739029,6809.894666,612.876398
582.741585,10584.944971,6365.771101,-153.219100
582.741905,11473.192101,5625.565159,76.609550
582.742226,10658.965565,5255.462188,-766.095498
582.742547,9696.697840,5995.668130,-1455.581446
582.742867,9548.656652,6735.874072,-2451.505594
582.743188,9622.677246,6809.894666,-2145.067394
582.743508,9696.697840,5921.647536,-766.095498
582.743829,9178.553681,4811.338623,76.609550
582.744150,8142.265362,4441.235652,842.705048
582.744470,7328.038826,4071.132681,459.657299
582.744791,7772.162391,3552.988522,0.000000
582.745111,9400.615463,2664.741391,-536.266849
582.745432,9770.718434,3923.091493,229.828649
582.745753,9844.739029,6069.688724,153.219100
582.746073,9918.759623,7994.224174,-842.705048
582.746394,9474.636058,8808.450710,-1838.629195
582.746714,9992.780217,8364.327145,-995.924147
582.747035,9622.677246,7179.997637,0.000000
582.747356,8956.491898,6661.853478,766.095498
582.747676,8216.285956,5625.565159,1685.410096
582.747997,7624.121203,4811.338623,2145.067394
582.748317,7994.224174,4441.235652,1608.800546
582.748638,8364.327145,4293.194464,1225.752797
582.748959,7994.224174,3849.070898,995.924147
582.749279,7994.224174,3478.967927,229.828649
582.749600,9104.533087,3256.906145,0.000000
582.749920,9844.739029,4219.173869,-536.266849
582.750241,10881.027347,5625.565159,-766.095498
582.750562,10881.027347,7179.997637,-766.095498
582.750882,11325.150913,7772.162391,-1225.752797
582.751203,11251.130318,7624.121203,-1149.143247
582.751523,10807.006753,6735.874072,-536.266849
582.751844,10288.862594,5255.462188,-383.047749
582.752165,9474.636058,4293.194464,-306.438199
582.752485,8512.368333,3330.926739,0.000000
582.752806,8586.388927,2516.700203,306.438199
582.753126,8512.368333,2516.700203,1225.752797
582.753447,8956.491898,3552.988522,1225.752797
582.753768,8364.327145,5403.503377,536.266849
582.754088,8734.430116,7105.977043,76.609550
582.754409,8734.430116,8438.347739,229.828649
582.754729,8068.244768,8586.388927,689.485948
582.755050,6513.812290,8512.368333,995.924147
582.755371,5551.544565,8290.306550,612.876398
582.755691,4293.194464,8068.244768,76.609550
582.756012,3701.029710,7994.224174,0.000000
582.756332,4589.276840,6809.894666,153.219100
582.756653,4737.318029,6883.915261,0.000000
582.756974,4071.132681,7254.018232,229.828649
582.757294,4441.235652,8364.327145,1378.971896
582.757615,5033.400406,9992.780217,2528.115143
582.757935,5847.626942,10362.883188,3217.601092
582.758256,6735.874072,9844.739029,3600.648841
582.758577,6365.771101,9400.615463,2911.162892
582.758897,5699.585753,8956.491898,2451.505594
582.759218,5773.606348,8068.244768,2834.553343
582.759538,5995.668130,8364.327145,3140.991542
582.759859,6957.935855,9104.533087,2528.115143
582.760180,6735.874072,9992.780217,2681.334243
582.760500,6365.771101,9696.697840,3217.601092
582.760821,6143.709319,8734.430116,4290.134789
582.761141,6365.771101,7772.162391,4673.182538
582.761462,6365.771101,7772.162391,4596.572988
582.761783,6957.935855,8142.265362,4903.011187
582.762103,6957.935855,8956.491898,4519.963438
582.762424,6957.935855,9178.553681,5056.230287
582.762744,6809.894666,9326.594869,6358.592633
582.763065,6587.832884,9474.636058,7048.078582
582.763386,6217.729913,8808.450710,7584.345430
582.763706,6291.750507,7994.224174,7277.907231
582.764027,5477.523971,7105.977043,6435.202183
582.764347,5107.421000,5625.565159,6971.469032
582.764668,5329.482782,4663.297435,7124.688131
582.764989,5551.544565,5403.503377,7124.688131
582.765309,5995.668130,7328.038826,7201.297681
582.765630,5625.565159,8290.306550,6205.373534
582.765950,5329.482782,8216.285956,5975.544884
582.766271,5477.523971,7254.018232,7354.516781
582.766592,5033.400406,7031.956449,8197.221829
582.766912,4737.318029,6143.709319,7967.393179
582.767233,3108.864956,4811.338623,7354.516781
582.767554,2960.823768,4885.359217,6588.421283
582.767874,2886.803174,5181.441594,6052.154434
582.768195,3404.947333,5181.441594,6052.154434
582.768515,3404.947333,5181.441594,5745.716235
582.768836,3552.988522,6069.688724,5975.544884
582.769157,3552.988522,6735.874072,6741.640382
582.769477,3701.029710,7476.080014,6894.859482
582.769798,3923.091493,7698.141797,7201.297681
582.770118,4515.256246,8290.306550,6971.469032
582.770439,3701.029710,7994.224174,5975.544884
582.770759,3552.988522,7254.018232,5132.839837
582.771080,3478.967927,6217.729913,5132.839837
582.771400,3552.988522,5403.503377,5286.058936
582.771721,3256.906145,4737.318029,5286.058936
582.772041,1998.556043,4515.256246,3983.696590
582.772362,2220.617826,4589.276840,2911.162892
582.772682,3923.091493,6217.729913,2757.943793
582.773003,4959.379811,7624.121203,3983.696590
582.773323,6069.688724,9326.594869,4213.525239
582.773644,6587.832884,10658.965565,3217.601092
582.773964,6735.874072,10881.027347,2834.553343
582.774285,6957.935855,10362.883188,3983.696590
582.774605,6883.915261,9992.780217,5132.839837
582.774926,6143.709319,10362.883188,4979.620737
582.775246,5477.523971,10436.903782,4826.401637
582.775567,4885.359217,9622.677246,5056.230287
582.775887,4367.215058,7698.141797,3600.648841
582.776208,3256.906145,4367.215058,3677.258390
582.776528,3552.988522,2664.741391,2451.505594
582.776849,4515.256246,3627.009116,1072.533697
582.777169,5403.503377,7254.018232,0.000000
582.777490,7698.141797,10584.944971,-842.705048
582.777810,9770.718434,14211.954086,-1532.190996
582.778131,10436.903782,16580.613101,-459.657299
582.778452,10214.842000,17246.798449,2145.067394
582.778772,9326.594869,14582.057057,3830.477490
582.779093,7402.059420,10658.965565,5975.544884
582.779413,7179.997637,8364.327145,6741.640382
582.779734,4441.235652,6957.935855,6128.763984
582.780054,2368.659014,6513.812290,4596.572988
582.780375,1628.453072,6513.812290,3677.258390
582.780695,3108.864956,6217.729913,2987.772442
582.781016,3997.112087,4737.318029,3370.820191
582.781336,5329.482782,5329.482782,3753.867940
582.781657,6143.709319,8956.491898,3983.696590
582.781977,5625.565159,12657.521608,2911.162892
582.782298,5773.606348,14063.912898,2451.505594
582.782618,8142.265362,14285.974681,1762.019645
582.782939,9474.636058,14063.912898,3447.429741
582.783259,7772.162391,11251.130318,6052.154434
582.783580,5921.647536,8808.450710,6281.983084
582.783900,2664.741391,6365.771101,4903.011187
582.784221,2442.679609,5625.565159,4903.011187
582.784541,3552.988522,5403.503377,4979.620737
582.784862,5033.400406,5181.441594,4519.963438
582.785182,4589.276840,4441.235652,5286.058936
582.785503,5625.565159,5181.441594,7814.174080
582.785823,6661.853478,7772.162391,8656.879127
582.786144,5255.462188,10214.842000,7890.783629
582.786464,4737.318029,11029.068536,6128.763984
582.786785,5477.523971,10732.986159,4749.792088
582.787105,4959.379811,8956.491898,5132.839837
582.787426,4737.318029,6587.832884,7277.907231
582.787746,4811.338623,6513.812290,9116.536426
582.788067,3108.864956,7402.059420,9422.974625
582.788387,0.000000,8660.409521,7354.516781
582.788708,1184.329507,7105.977043,6205.373534
582.789028,2590.720797,4959.379811,6894.859482
582.789349,1332.370696,2590.720797,8963.317327
582.789669,3627.009116,2664.741391,8886.707777
582.789990,6069.688724,5773.606348,7354.516781
582.790310,4293.194464,9252.574275,5362.668486
582.790631,2590.720797,9474.636058,3600.648841
582.790951,5107.421000,7698.141797,3907.087040
582.791272,5477.523971,5921.647536,5898.935335
582.791592,3701.029710,4219.173869,8733.488677
582.791913,5625.565159,5477.523971,9269.755526
582.792233,5477.523971,8660.409521,7967.393179
582.792554,2960.823768,10807.006753,5209.449386
582.792874,3627.009116,10288.862594,4290.134789
582.793195,6365.771101,7476.080014,3830.477490
582.793515,4367.215058,3701.029710,4826.401637
582.793836,3701.029710,1110.308913,5975.544884
582.794156,5403.503377,2220.617826,6281.983084
582.794477,5625.565159,5773.606348,6435.202183
582.794797,4293.194464,9400.615463,5592.497135
582.795118,5625.565159,10658.965565,3370.820191
582.795438,5921.647536,11325.150913,3370.820191
582.795759,5329.482782,11621.233289,7277.907231
582.796079,5255.462188,10658.965565,9193.145976
582.796400,6439.791695,9548.656652,7124.688131
582.796720,4737.318029,8882.471304,4060.306139
582.797041,2886.803174,7105.977043,1455.581446
582.797361,3330.926739,5181.441594,1532.190996
582.797682,5107.421000,6735.874072,4596.572988
582.798002,5403.503377,10066.800811,6205.373534
582.798323,5699.585753,11325.150913,5362.668486
582.798643,6883.915261,11177.109724,3524.039291
582.798964,6513.812290,10362.883188,3217.601092
582.799284,6439.791695,9918.759623,3600.648841
582.799605,6439.791695,9548.656652,4290.134789
582.799925,6735.874072,9400.615463,3753.867940
582.800246,6883.915261,10288.862594,4136.915689
582.800566,7698.141797,11547.212695,4596.572988
582.800887,6883.915261,10510.924376,4213.525239
582.801207,5403.503377,8660.409521,3907.087040
582.801528,5107.421000,7698.141797,5439.278036
582.801848,4589.276840,5995.668130,6052.154434
582.802169,5477.523971,6069.688724,5286.058936
582.802489,4885.359217,6661.853478,3983.696590
582.802810,3849.070898,7698.141797,2604.724693
582.803130,6513.812290,9992.780217,2987.772442
582.803451,7031.956449,12287.418637,2834.553343
582.803771,4737.318029,10362.883188,3064.381992
582.804092,5403.503377,8956.491898,3524.039291
582.804412,5847.626942,9178.553681,4290.134789
582.804733,3108.864956,9400.615463,5515.887586
582.805053,2442.679609,8216.285956,4673.182538
582.805374,4219.173869,6735.874072,2834.553343
582.805694,5033.400406,6883.915261,3907.087040
582.806015,4441.235652,6883.915261,6511.811733
582.806335,4071.132681,6809.894666,6358.592633
582.806656,3701.029710,6735.874072,5132.839837
582.806976,3478.967927,6809.894666,5975.544884
582.807297,5255.462188,6587.832884,5898.935335
582.807617,7179.997637,7624.121203,4596.572988
582.807938,5625.565159,8956.491898,4136.915689
582.808258,4737.318029,9992.780217,3447.429741
582.808579,4441.235652,9400.615463,3830.477490
582.808899,4663.297435,7105.977043,4903.011187
582.809220,4737.318029,5921.647536,5745.716235
582.809540,5403.503377,7624.121203,5745.716235
582.809861,3256.906145,8438.347739,4596.572988
582.810181,1776.494261,7105.977043,3830.477490
582.810502,4589.276840,7031.956449,5592.497135
582.810822,6809.894666,7550.100608,7814.174080
582.811143,5995.668130,8660.409521,7814.174080
582.811463,4515.256246,9918.759623,6052.154434
582.811784,2368.659014,10140.821405,4979.620737
582.812104,3627.009116,7994.224174,6971.469032
582.812425,5773.606348,6439.791695,8963.317327
582.812745,5699.585753,7105.977043,7737.564530
582.813066,2590.720797,8142.265362,5439.278036
582.813386,1628.453072,6957.935855,3753.867940
582.813707,2738.761985,4737.318029,3524.039291
582.814027,5329.482782,5699.585753,4443.353888
582.814348,6291.750507,8660.409521,5056.230287
582.814668,4959.379811,10214.842000,3677.258390
582.814989,5329.482782,9918.759623,4366.744339
582.815309,6143.709319,8586.388927,5592.497135
582.815630,6809.894666,8660.409521,6128.763984
582.815950,6661.853478,8882.471304,5669.106685
582.816271,5107.421000,9400.615463,4519.963438
582.816591,5403.503377,9400.615463,4290.134789
582.816912,5995.668130,7550.100608,5515.887586
582.817232,4811.338623,4663.297435,5592.497135
582.817553,2738.761985,3849.070898,4749.792088
582.817873,3404.947333,6069.688724,5439.278036
582.818194,3330.926739,8512.368333,4290.134789
582.818514,4589.276840,9696.697840,1915.238745
582.818835,5847.626942,9104.533087,2145.067394
582.819155,5773.606348,9178.553681,4903.011187
582.819476,6587.832884,9770.718434,6588.421283
582.819796,6957.935855,12287.418637,5439.278036
582.820117,5181.441594,11695.253884,3447.429741
582.820437,5033.400406,9326.594869,3447.429741
582.820758,5995.668130,7254.018232,6435.202183
582.821078,5403.503377,8512.368333,9499.584175
582.821399,3775.050304,7624.121203,7507.735880
582.821719,4219.173869,5477.523971,2834.553343
582.822040,3478.967927,3108.864956,995.924147
582.822360,3849.070898,4737.318029,3753.867940
582.822681,4811.338623,6735.874072,5669.106685
582.823001,5625.565159,7476.080014,3907.087040
582.823322,5773.606348,8216.285956,612.876398
582.823642,6069.688724,9918.759623,229.828649
582.823963,7105.977043,11473.192101,1455.581446
582.824283,8660.409521,12139.377449,3370.820191
582.824604,7994.224174,12953.603985,3600.648841
582.824925,5995.668130,11917.315666,2681.334243
582.825245,4663.297435,8734.430116,3294.210641
582.825566,4663.297435,6735.874072,5286.058936
582.825886,4367.215058,6735.874072,6894.859482
582.826207,2886.803174,5329.482782,6358.592633
582.826527,2812.782580,5329.482782,3677.258390
582.826848,3256.906145,5773.606348,3217.601092
582.827168,2886.803174,5107.421000,5439.278036
582.827489,5181.441594,5255.462188,6358.592633
582.827809,6069.688724,6587.832884,4136.915689
582.828130,3775.050304,8882.471304,1455.581446
582.828450,5477.523971,10658.965565,1685.410096
582.828771,9696.697840,12065.356855,4979.620737
582.829091,7179.997637,11399.171507,5439.278036
582.829412,6513.812290,11103.089130,3524.039291
582.829732,5033.400406,11769.274478,2145.067394
582.830053,4145.153275,10066.800811,2757.943793
582.830373,4145.153275,5403.503377,5056.230287
582.830694,5329.482782,2886.803174,4903.011187
582.831014,4071.132681,3404.947333,4366.744339
582.831335,1332.370696,5033.400406,5439.278036
582.831655,3701.029710,7254.018232,4366.744339
582.831976,4663.297435,7328.038826,3524.039291
582.832296,4959.379811,8216.285956,4136.915689
582.832617,7994.224174,10881.027347,4596.572988
582.832937,5773.606348,12213.398043,4826.401637
582.833258,3775.050304,11917.315666,4366.744339
582.833578,6069.688724,10807.006753,2681.334243
582.833899,6291.750507,9326.594869,2221.676944
582.834219,3478.967927,6883.915261,4903.011187
582.834540,4367.215058,7698.141797,6358.592633
582.834860,3775.050304,8882.471304,6894.859482
582.835181,3627.009116,9844.739029,6511.811733
582.835501,3182.885551,7105.977043,6281.983084
582.835822,6069.688724,5847.626942,5286.058936
582.836142,3775.050304,6587.832884,5822.325785
582.836463,1998.556043,7846.182985,5592.497135
582.836783,4367.215058,7105.977043,3600.648841
582.837104,6513.812290,7624.121203,3600.648841
582.837424,3849.070898,8364.327145,4749.792088
582.837745,4071.132681,8512.368333,3600.648841
582.838065,4589.276840,8142.265362,2068.457845
582.838386,4441.235652,9622.677246,3370.820191
582.838706,4515.256246,9252.574275,2681.334243
582.839027,4737.318029,7994.224174,842.705048
582.839347,5329.482782,5477.523971,1455.581446
582.839668,5699.585753,3627.009116,3064.381992
582.839988,6143.709319,5329.482782,2987.772442
582.840309,5773.606348,7179.997637,1378.971896
582.840629,5033.400406,6735.874072,153.219100
582.840950,6069.688724,5477.523971,2604.724693
582.841270,7105.977043,5773.606348,4979.620737
582.841591,6069.688724,5921.647536,4596.572988
582.841911,4811.338623,7179.997637,1685.410096
582.842232,3404.947333,7624.121203,-459.657299
582.842552,5625.565159,7846.182985,0.000000
582.842873,6513.812290,7994.224174,1225.752797
582.843193,6143.709319,7920.203579,306.438199
582.843514,3923.091493,7920.203579,689.485948
582.843834,4367.215058,8660.409521,1455.581446
582.844155,2590.720797,7624.121203,-229.828649
582.844475,2294.638420,6883.915261,-1915.238745
582.844796,4811.338623,7105.977043,0.000000
582.845116,6883.915261,8808.450710,1915.238745
582.845437,6439.791695,9770.718434,1762.019645
582.845757,5625.565159,11399.171507,153.219100
582.846078,6143.709319,11621.233289,-766.095498
582.846398,5033.400406,8512.368333,1685.410096
582.846719,4959.379811,7105.977043,2757.943793
582.847039,7550.100608,9326.594869,1915.238745
582.847360,6217.729913,10288.862594,-1072.533697
582.847680,4885.359217,10362.883188,-2681.334243
582.848001,5847.626942,9030.512492,612.876398
582.848321,7179.997637,9844.739029,4443.353888
582.848642,4737.318029,9844.739029,3370.820191
582.848962,2664.741391,7772.162391,-1762.019645
582.849283,3552.988522,8660.409521,-4060.306139
582.849603,3923.091493,7698.141797,-766.095498
582.849924,4885.359217,7920.203579,536.266849
582.850244,7254.018232,8808.450710,459.657299
582.850565,7105.977043,12583.501014,-153.219100
582.850885,4663.297435,12731.542202,-995.924147
582.851206,3997.112087,11103.089130,0.000000
582.851526,5551.544565,8216.285956,919.314598
582.851847,6217.729913,7550.100608,1991.848295
582.852167,5477.523971,6439.791695,2451.505594
582.852488,3404.947333,5329.482782,-76.609550
582.852808,5625.565159,8290.306550,-612.876398
582.853129,5699.585753,9548.656652,-612.876398
582.853449,3552.988522,6809.894666,-1225.752797
582.853770,4293.194464,6143.709319,229.828649
582.854090,8882.471304,9252.574275,1991.848295
582.854411,6735.874072,8808.450710,2068.457845
582.854731,4885.359217,4811.338623,-1225.752797
582.855052,4811.338623,3923.091493,-3064.381992
582.855372,3775.050304,7031.956449,-459.657299
582.855693,2812.782580,7920.203579,2145.067394
582.856013,5921.647536,7624.121203,766.095498
582.856334,6217.729913,7920.203579,-1838.629195
582.856654,3478.967927,7402.059420,-459.657299
582.856975,2664.741391,5625.565159,919.314598
582.857295,2812.782580,4737.318029,0.000000
582.857616,3182.885551,6735.874072,0.000000
582.857936,3849.070898,7846.182985,-1532.190996
582.858257,3552.988522,8956.491898,-2068.457845
582.858577,6365.771101,11547.212695,689.485948
582.858898,2220.617826,9770.718434,2911.162892
582.859218,4737.318029,7772.162391,995.924147
582.859539,3256.906145,6809.894666,-1149.143247
582.859859,2294.638420,8734.430116,229.828649
582.860180,4589.276840,7698.141797,1991.848295
582.860500,5255.462188,6735.874072,995.924147
582.860821,3923.091493,6291.750507,-1302.362347
582.861141,5921.647536,7994.224174,-1685.410096
582.861462,7031.956449,8808.450710,-766.095498
582.861782,4663.297435,8068.244768,-383.047749
582.862103,6735.874072,9474.636058,1685.410096
582.862423,7846.182985,11547.212695,229.828649
582.862744,3849.070898,7698.141797,-383.047749
582.863064,4885.359217,6735.874072,995.924147
582.863385,7254.018232,7846.182985,1072.533697
582.863705,4811.338623,8216.285956,-2068.457845
582.864026,3256.906145,7105.977043,-2681.334243
582.864346,6587.832884,8956.491898,-1991.848295
582.864667,7994.224174,10510.924376,842.705048
582.864987,6957.935855,9326.594869,2068.457845
582.865308,6069.688724,8364.327145,-1378.971896
582.865628,5921.647536,8882.471304,-2604.724693
582.865949,5181.441594,9696.697840,1762.019645
582.866269,6587.832884,7920.203579,2451.505594
582.866590,6809.894666,5847.626942,-1762.019645
582.866910,5921.647536,6809.894666,-2757.943793
582.867231,3182.885551,8216.285956,-995.924147
582.867551,3701.029710,6143.709319,-306.438199
582.867872,4367.215058,5625.565159,0.000000
582.868192,6217.729913,7328.038826,-612.876398
582.868513,4959.379811,8512.368333,-4136.915689
582.868833,4219.173869,8586.388927,-3753.867940
582.869154,2886.803174,10584.944971,-1532.190996
582.869474,5255.462188,11029.068536,1302.362347
582.869795,7105.977043,10066.800811,1762.019645
582.870115,4811.338623,9326.594869,76.609550
582.870436,2220.617826,8290.306550,-1685.410096
582.870756,1628.453072,7105.977043,-1685.410096
582.871077,1998.556043,5847.626942,-995.924147
582.871398,4219.173869,6365.771101,1685.410096
582.871718,6957.935855,7920.203579,2298.286494
582.872039,5921.647536,8956.491898,-612.876398
582.872359,2442.679609,8734.430116,-3677.258390
582.872680,3256.906145,7031.956449,-1838.629195
582.873000,6809.894666,8438.347739,1762.019645
582.873321,8734.430116,10658.965565,4213.525239
582.873641,6735.874072,9844.739029,1762.019645
582.873962,6143.709319,8734.430116,-2451.505594
582.874282,5921.647536,8364.327145,-2068.457845
582.874603,3404.947333,7698.141797,689.485948
582.874923,4885.359217,8216.285956,1532.190996
582.875244,5477.523971,7994.224174,689.485948
582.875564,5847.626942,7994.224174,-383.047749
582.875885,5995.668130,7328.038826,2068.457845
582.876206,4885.359217,6735.874072,3140.991542
582.876526,3627.009116,7105.977043,1455.581446
582.876847,4293.194464,9252.574275,-1838.629195
582.877167,4367.215058,8882.471304,-3064.381992
582.877488,6735.874072,6957.935855,0.000000
582.877808,7328.038826,6587.832884,3294.210641
582.878129,4737.318029,7105.977043,1685.410096
582.878449,666.185348,8438.347739,-1608.800546
582.878770,2960.823768,9992.780217,-2145.067394
582.879091,5255.462188,10362.883188,0.000000
582.879411,6365.771101,7994.224174,2987.772442
582.879732,6513.812290,6661.853478,2681.334243
582.880052,2516.700203,5773.606348,-766.095498
582.880373,-962.267725,4737.318029,-1302.362347
582.880693,2960.823768,5329.482782,1225.752797
582.881014,6809.894666,7550.100608,842.705048
582.881334,6809.894666,9030.512492,-766.095498
582.881655,3034.844362,6809.894666,-1532.190996
582.881976,3775.050304,5773.606348,-1685.410096
582.882296,5699.585753,7698.141797,-383.047749
582.882617,5921.647536,9178.553681,306.438199
582.882937,6143.709319,7994.224174,-1608.800546
582.883258,8142.265362,8512.368333,-3677.258390
582.883578,5921.647536,9326.594869,-459.657299
582.883899,3478.967927,8438.347739,1302.362347
582.884220,4885.359217,7031.956449,229.828649
582.884540,6735.874072,6957.935855,-689.485948
582.884861,4219.173869,6883.915261,-689.485948
582.885181,4145.153275,5255.462188,-2681.334243
582.885502,4515.256246,5921.647536,-3677.258390
582.885822,3034.844362,7476.080014,-612.876398
582.886143,5181.441594,10584.944971,1762.019645
582.886463,9622.677246,13693.809927,766.095498
582.886784,6513.812290,12509.480420,-1838.629195
582.887105,4663.297435,8216.285956,-2451.505594
582.887425,5329.482782,6217.729913,-1838.629195
582.887746,4589.276840,7105.977043,76.609550
582.888066,2220.617826,8734.430116,0.000000
582.888387,7328.038826,10955.047942,-2757.943793
582.888707,7994.224174,11917.315666,-2604.724693
582.889028,4589.276840,9696.697840,919.314598
582.889348,3404.947333,7179.997637,1532.190996
582.889669,3478.967927,6957.935855,-1072.533697
582.889990,2886.803174,7031.956449,-1072.533697
582.890310,5625.565159,7994.224174,229.828649
582.890631,7402.059420,9326.594869,-766.095498
582.890951,6735.874072,11029.068536,-153.219100
582.891272,4071.132681,10584.944971,-1225.752797
582.891592,4071.132681,9400.615463,-3217.601092
582.891913,4515.256246,8882.471304,-919.314598
582.892233,7920.203579,9622.677246,2834.553343
582.892554,8068.244768,9252.574275,1455.581446
582.892875,3627.009116,6809.894666,-2068.457845
582.893195,740.205942,5625.565159,-2221.676944
582.893516,2664.741391,6883.915261,-459.657299
582.893836,7105.977043,9178.553681,1302.362347
582.894157,6809.894666,9696.697840,1302.362347
582.894477,5329.482782,8142.265362,-1915.238745
582.894798,3478.967927,6439.791695,-1608.800546
582.895118,1776.494261,4811.338623,1608.800546
582.895439,4293.194464,5699.585753,2451.505594
582.895760,7994.224174,9178.553681,459.657299
582.896080,5847.626942,10140.821405,-1838.629195
582.896401,5403.503377,8956.491898,-2451.505594
582.896721,6735.874072,8290.306550,-306.438199
582.897042,5255.462188,6069.688724,2604.724693
582.897362,3404.947333,4293.194464,1378.971896
582.897683,6291.750507,6513.812290,-766.095498
582.898003,5403.503377,9474.636058,-1302.362347
582.898324,5403.503377,8660.409521,1149.143247
582.898645,5625.565159,5847.626942,1838.629195
582.898965,4737.318029,6365.771101,459.657299
582.899286,2368.659014,8290.306550,1991.848295
582.899606,4515.256246,8068.244768,1532.190996
582.899927,4515.256246,4811.338623,-1532.190996
582.900247,4737.318029,4959.379811,-1072.533697
582.900568,4885.359217,8586.388927,-383.047749
582.900888,3034.844362,10510.924376,-1991.848295
582.901209,3552.988522,11177.109724,-995.924147
582.901530,7698.141797,11695.253884,2298.286494
582.901850,7031.956449,9252.574275,1685.410096
582.902171,2590.720797,5995.668130,536.266849
582.902491,888.247130,6513.812290,229.828649
582.902812,2146.597232,8734.430116,1302.362347
582.903132,4515.256246,9178.553681,1378.971896
582.903453,4515.256246,7031.956449,0.000000
582.903773,5181.441594,6513.812290,-1302.362347
582.904094,2738.761985,6587.832884,0.000000
582.904415,1480.411884,6809.894666,306.438199
582.904735,2812.782580,7550.100608,-1225.752797
582.905056,7994.224174,10214.842000,-1685.410096
582.905376,8512.368333,10658.965565,-536.266849
582.905697,6291.750507,8216.285956,-1532.190996
582.906017,4737.318029,6291.750507,-2451.505594
582.906338,5773.606348,8734.430116,-2298.286494
582.906658,7550.100608,10584.944971,-1302.362347
582.906979,6809.894666,10066.800811,-1608.800546
582.907300,9622.677246,10288.862594,-2145.067394
582.907620,6735.874072,8586.388927,383.047749
582.907941,3997.112087,5847.626942,3217.601092
582.908261,4367.215058,5033.400406,3217.601092
582.908582,5403.503377,8438.347739,1149.143247
582.908902,4589.276840,8512.368333,-1532.190996
582.909223,5477.523971,7105.977043,-2374.896044
582.909543,7920.203579,7698.141797,153.219100
582.909864,4293.194464,7772.162391,2834.553343
582.910185,2294.638420,7402.059420,536.266849
582.910505,5551.544565,10288.862594,-3983.696590
582.910826,5625.565159,11325.150913,-3753.867940
582.911146,4885.359217,10362.883188,-306.438199
582.911467,6809.894666,9770.718434,919.314598
582.911787,4071.132681,9918.759623,0.000000
582.912108,2368.659014,9770.718434,76.609550
582.912428,5773.606348,9622.677246,-306.438199
582.912749,4737.318029,7624.121203,-459.657299
582.913070,3627.009116,7031.956449,1532.190996
582.913390,3775.050304,5995.668130,1838.629195
582.913711,2368.659014,5329.482782,-689.485948
582.914031,2960.823768,7698.141797,-153.219100
582.914352,5403.503377,9622.677246,1072.533697
582.914672,4663.297435,7031.956449,-689.485948
582.914993,4959.379811,5107.421000,-383.047749
582.915314,4663.297435,6735.874072,-536.266849
582.915634,4515.256246,8808.450710,-2221.676944
582.915955,4737.318029,9992.780217,-1762.019645
582.916275,8142.265362,11473.192101,0.000000
582.916596,7031.956449,9548.656652,0.000000
582.916916,6957.935855,8068.244768,0.000000
582.917237,2220.617826,5477.523971,-995.924147
582.917557,2294.638420,6439.791695,459.657299
582.917878,6661.853478,7550.100608,3753.867940
582.918199,6809.894666,6661.853478,2911.162892
582.918519,4515.256246,5329.482782,-689.485948
582.918840,5551.544565,6661.853478,-229.828649
582.919160,3701.029710,7031.956449,766.095498
582.919481,2368.659014,6143.709319,842.705048
582.919801,7031.956449,7698.141797,766.095498
582.920122,9104.533087,9844.739029,-383.047749
582.920442,6735.874072,10214.842000,-306.438199
582.920763,3997.112087,8882.471304,612.876398
582.921084,3701.029710,8586.388927,-612.876398
582.921404,5255.462188,9030.512492,-306.438199
582.921725,6439.791695,9178.553681,1302.362347
582.922045,5181.441594,7550.100608,1072.533697
582.922366,5625.565159,7105.977043,0.000000
582.922686,2664.741391,6735.874072,-76.609550
582.923007,962.267725,5033.400406,-306.438199
582.923327,3849.070898,6513.812290,-229.828649
582.923648,5625.565159,8660.409521,153.219100
582.923969,5699.585753,9252.574275,612.876398
582.924289,6587.832884,8142.265362,-153.219100
582.924610,4293.194464,7772.162391,-1225.752797
582.924930,3478.967927,8512.368333,-689.485948
582.925251,4737.318029,9622.677246,0.000000
582.925571,6809.894666,10214.842000,-1302.362347
582.925892,6809.894666,9844.739029,-842.705048
582.926212,5551.544565,7994.224174,229.828649
582.926533,4589.276840,7031.956449,-76.609550
582.926854,2812.782580,7254.018232,0.000000
582.927174,4219.173869,7994.224174,-306.438199
582.927495,5033.400406,6513.812290,-1838.629195
582.927815,5551.544565,6439.791695,-2145.067394
582.928136,6735.874072,7698.141797,689.485948
582.928456,4441.235652,7550.100608,153.219100
582.928777,5181.441594,8142.265362,-1838.629195
582.929097,6069.688724,11843.295072,-1455.581446
582.929418,7402.059420,12139.377449,0.000000
582.929739,7772.162391,9474.636058,842.705048
582.930059,6291.750507,8142.265362,995.924147
582.930380,2220.617826,6513.812290,383.047749
582.930700,4219.173869,8512.368333,383.047749
582.931021,5995.668130,10288.862594,766.095498
582.931341,3923.091493,8512.368333,459.657299
582.931662,5773.606348,8438.347739,612.876398
582.931982,5921.647536,8216.285956,306.438199
582.932303,0.000000,4219.173869,459.657299
582.932624,1776.494261,3478.967927,1072.533697
582.932944,9178.553681,8882.471304,76.609550
582.933265,5699.585753,10362.883188,-2374.896044
582.933585,3404.947333,9252.574275,-3217.601092
582.933906,8438.347739,10288.862594,-1302.362347
582.934226,6365.771101,11177.109724,1608.800546
582.934547,4071.132681,9474.636058,3524.039291
582.934867,7254.018232,9474.636058,1072.533697
582.935188,5551.544565,8364.327145,-1915.238745
582.935509,1554.432478,4737.318029,306.438199
582.935829,3997.112087,3034.844362,1455.581446
582.936150,4589.276840,4293.194464,-459.657299
582.936470,3182.885551,7476.080014,1225.752797
582.936791,5403.503377,8586.388927,2145.067394
582.937111,6883.915261,9178.553681,-766.095498
582.937432,3775.050304,7624.121203,-766.095498
582.937752,2590.720797,4811.338623,-306.438199
582.938073,4959.379811,4441.235652,-766.095498
582.938394,5773.606348,7698.141797,-689.485948
582.938714,5847.626942,11769.274478,0.000000
582.939035,6365.771101,10362.883188,-2145.067394
582.939355,7105.977043,8142.265362,-2528.115143
582.939676,3404.947333,8438.347739,0.000000
582.939996,3404.947333,9030.512492,1149.143247
582.940317,5329.482782,7031.956449,153.219100
582.940637,5773.606348,6439.791695,153.219100
582.940958,4737.318029,6217.729913,1608.800546
582.941279,4959.379811,5921.647536,2374.896044
582.941599,2072.576638,5773.606348,0.000000
582.941920,2220.617826,6439.791695,-2374.896044
582.942240,6217.729913,9474.636058,-1838.629195
582.942561,8142.265362,10584.944971,-612.876398
582.942881,5847.626942,8956.491898,-383.047749
582.943202,4959.379811,7846.182985,-306.438199
582.943522,4515.256246,9548.656652,0.000000
582.943843,4367.215058,11769.274478,-1302.362347
582.944164,4589.276840,12139.377449,-1149.143247
582.944484,7031.956449,11621.233289,76.609550
582.944805,7550.100608,9622.677246,1685.410096
582.945125,3256.906145,6735.874072,1455.581446
582.945446,962.267725,4737.318029,842.705048
582.945766,3478.967927,6439.791695,995.924147
582.946087,5255.462188,9178.553681,1608.800546
582.946408,4515.256246,8586.388927,0.000000
582.946728,4589.276840,7476.080014,-1072.533697
582.947049,5033.400406,6439.791695,0.000000
582.947369,4515.256246,7179.997637,1149.143247
582.947690,5181.441594,7328.038826,-536.266849
582.948010,6661.853478,9548.656652,-5898.935335
582.948331,7624.121203,11917.315666,-5362.668486
582.948651,6365.771101,10140.821405,76.609550
582.948972,8364.327145,9400.615463,1685.410096
582.949293,6143.709319,10140.821405,689.485948
582.949613,3627.009116,10066.800811,-536.266849
582.949934,3330.926739,5847.626942,-842.705048
582.950254,6291.750507,4515.256246,536.266849
582.950575,3849.070898,4293.194464,1302.362347
582.950895,1554.432478,2960.823768,-459.657299
582.951216,2960.823768,4367.215058,-1991.848295
582.951536,4589.276840,9030.512492,-689.485948
582.951857,5107.421000,10362.883188,1455.581446
582.952178,7105.977043,9474.636058,-383.047749
582.952498,6439.791695,7328.038826,-3140.991542
582.952819,3552.988522,7698.141797,-995.924147
582.953139,5033.400406,10214.842000,995.924147
582.953460,7846.182985,11547.212695,-229.828649
582.953780,6587.832884,9992.780217,-1149.143247
582.954101,6883.915261,8142.265362,-1072.533697
582.954421,3775.050304,5773.606348,-842.705048
582.954742,740.205942,3997.112087,306.438199
582.955063,3997.112087,6365.771101,2298.286494
582.955383,7476.080014,8734.430116,689.485948
582.955704,4441.235652,8660.409521,-842.705048
582.956024,4441.235652,8142.265362,-1149.143247
582.956345,3849.070898,6809.894666,-306.438199
582.956665,4071.132681,6439.791695,1225.752797
582.956986,4885.359217,7920.203579,1532.190996
582.957306,6143.709319,10732.986159,-2298.286494
582.957627,5181.441594,10658.965565,-3064.381992
582.957948,5551.544565,9104.533087,-153.219100
582.958268,5181.441594,7994.224174,-383.047749
582.958589,2738.761985,10140.821405,-1991.848295
582.958909,2368.659014,10288.862594,-1455.581446
582.959230,4811.338623,9770.718434,-1378.971896
582.959550,7031.956449,8882.471304,306.438199
582.959871,4441.235652,7550.100608,2604.724693
582.960191,2516.700203,5699.585753,1991.848295
582.960512,3849.070898,6069.688724,459.657299
582.960833,4071.132681,7402.059420,383.047749
582.961153,4589.276840,6439.791695,-1149.143247
582.961474,8956.491898,7105.977043,-1762.019645
582.961794,6809.894666,8216.285956,-459.657299
582.962115,5181.441594,9548.656652,1991.848295
582.962435,8882.471304,12435.459826,919.314598
582.962756,7920.203579,11843.295072,-1225.752797
582.963076,4737.318029,8142.265362,-842.705048
582.963397,7920.203579,6513.812290,1838.629195
582.963718,5255.462188,4589.276840,1302.362347
582.964038,1924.535449,5403.503377,-766.095498
582.964359,5255.462188,8660.409521,-689.485948
582.964679,7920.203579,11399.171507,0.000000
582.965000,4811.338623,8956.491898,2604.724693
582.965320,3997.112087,7328.038826,2298.286494
582.965641,2294.638420,4959.379811,-1302.362347
582.965961,962.267725,4663.297435,-306.438199
582.966282,4737.318029,8068.244768,1838.629195
582.966603,7179.997637,11251.130318,-612.876398
582.966923,5107.421000,10881.027347,-2374.896044
582.967244,5255.462188,9992.780217,-1072.533697
582.967564,2294.638420,7105.977043,-229.828649
582.967885,2294.638420,7179.997637,1455.581446
582.968205,6809.894666,9104.533087,2451.505594
582.968526,6069.688724,6883.915261,-1762.019645
582.968846,4959.379811,4737.318029,-3830.477490
582.969167,5107.421000,6957.935855,-383.047749
582.969488,2590.720797,6587.832884,1455.581446
582.969808,3701.029710,7254.018232,842.705048
582.970129,6957.935855,8882.471304,-229.828649
582.970449,5625.565159,8512.368333,-2221.676944
582.970770,4441.235652,5551.544565,-153.219100
582.971090,5255.462188,4441.235652,153.219100
582.971411,2590.720797,5107.421000,-229.828649
582.971731,4441.235652,9104.533087,-1378.971896
582.972052,7698.141797,12731.542202,-3370.820191
582.972373,5255.462188,11621.233289,-4749.792088
582.972693,5625.565159,8660.409521,-689.485948
582.973014,7105.977043,7624.121203,1762.019645
582.973334,3849.070898,7476.080014,0.000000
582.973655,2072.576638,7105.977043,-536.266849
582.973976,5551.544565,9104.533087,153.219100
582.974296,6957.935855,9104.533087,536.266849
582.974617,4589.276840,7698.141797,766.095498
582.974937,4367.215058,7476.080014,0.000000
582.975258,4885.359217,9252.574275,-995.924147
582.975579,5625.565159,10066.800811,306.438199
582.975899,5033.400406,7179.997637,0.000000
582.976220,4885.359217,4441.235652,-2911.162892
582.976540,5773.606348,6883.915261,-689.485948
582.976861,3775.050304,10510.924376,1762.019645
582.977182,3182.885551,11695.253884,-2757.943793
582.977502,7105.977043,12287.418637,-4519.963438
582.977823,8216.285956,11251.130318,-766.095498
582.978144,6069.688724,8142.265362,1685.410096
582.978464,5551.544565,5773.606348,919.314598
582.978785,1702.473667,6809.894666,-2068.457845
582.979105,2368.659014,8364.327145,-2145.067394
582.979426,7031.956449,8956.491898,536.266849
582.979747,8512.368333,8734.430116,1685.410096
582.980067,4959.379811,6957.935855,153.219100
582.980388,3256.906145,5181.441594,-2834.553343
582.980708,2738.761985,5847.626942,-2911.162892
582.981029,4737.318029,7994.224174,383.047749
582.981350,7994.224174,10510.924376,1762.019645
582.981670,10066.800811,11769.274478,-459.657299
582.981991,4663.297435,8364.327145,-2221.676944
582.982311,4293.194464,8068.244768,-383.047749
582.982632,6143.709319,10510.924376,1225.752797
582.982953,4367.215058,9474.636058,0.000000
582.983273,3404.947333,7031.956449,-689.485948
582.983594,8734.430116,8438.347739,919.314598
582.983914,4811.338623,7772.162391,3524.039291
582.984235,592.164754,5477.523971,3830.477490
582.984556,2368.659014,6217.729913,689.485948
582.984876,4219.173869,8068.244768,-919.314598
582.985197,4071.132681,7550.100608,1378.971896
582.985517,7105.977043,7179.997637,1991.848295
582.985838,5625.565159,6439.791695,76.609550
582.986159,3108.864956,7846.182985,1072.533697
582.986479,3997.112087,8512.368333,919.314598
582.986800,4589.276840,8290.306550,-1225.752797
582.987121,4959.379811,8586.388927,0.000000
582.987441,8660.409521,9770.718434,1762.019645
582.987762,4737.318029,7105.977043,-383.047749
582.988082,1998.556043,4737.318029,-1991.848295
582.988403,3849.070898,6587.832884,-459.657299
582.988724,6957.935855,9622.677246,1991.848295
582.989044,6143.709319,7550.100608,2451.505594
582.989365,4811.338623,4589.276840,995.924147
582.989685,3330.926739,2812.782580,-1838.629195
582.990006,3775.050304,4441.235652,-1302.362347
582.990327,4811.338623,6661.853478,0.000000
582.990647,4959.379811,7550.100608,-1838.629195
582.990968,7328.038826,8290.306550,-1838.629195
582.991288,7624.121203,9770.718434,-2298.286494
582.991609,4737.318029,9178.553681,-1991.848295
582.991930,3330.926739,7698.141797,76.609550
582.992250,5921.647536,9696.697840,1378.971896
582.992571,6957.935855,10362.883188,536.266849
582.992891,3627.009116,7624.121203,-536.266849
582.993212,3404.947333,6217.729913,-1149.143247
582.993533,4071.132681,6439.791695,0.000000
582.993853,2516.700203,8068.244768,2298.286494
582.994174,4293.194464,9696.697840,229.828649
582.994494,5329.482782,9474.636058,-3753.867940
582.994815,4737.318029,8512.368333,-2298.286494
582.995136,5181.441594,8216.285956,2987.772442
582.995456,3478.967927,7624.121203,2451.505594
582.995777,2072.576638,8808.450710,-1838.629195
582.996098,4811.338623,11769.274478,-4213.525239
582.996418,6883.915261,13915.871710,-3753.867940
582.996739,7402.059420,13545.768739,766.095498
582.997059,4885.359217,10362.883188,3370.820191
582.997380,6217.729913,9030.512492,536.266849
582.997701,2812.782580,9474.636058,-2298.286494
582.998021,1480.411884,8290.306550,-1072.533697
582.998342,5921.647536,8216.285956,919.314598
582.998662,9622.677246,9252.574275,2757.943793
582.998983,3997.112087,7105.977043,1685.410096
582.999304,2516.700203,5625.565159,-2221.676944
582.999624,6217.729913,7920.203579,-2681.334243
582.999945,4737.318029,9252.574275,1225.752797
583.000265,6513.812290,7624.121203,2068.457845
583.000586,9918.759623,7105.977043,-2451.505594
583.000907,5255.462188,8734.430116,-3677.258390
583.001227,3997.112087,10436.903782,536.266849
583.001548,8364.327145,11769.274478,2911.162892
583.001868,6957.935855,8660.409521,229.828649
583.002189,4441.235652,5477.523971,-1149.143247
583.002510,5625.565159,5403.503377,-995.924147
583.002830,4293.194464,4737.318029,153.219100
583.003151,2516.700203,4885.359217,3983.696590
583.003471,5625.565159,7105.977043,2757.943793
583.003792,5477.523971,7402.059420,-1915.238745
583.004113,1036.288319,5033.400406,-1302.362347
583.004433,3108.864956,4959.379811,1072.533697
583.004754,4589.276840,5921.647536,842.705048
583.005075,2146.597232,5625.565159,229.828649
583.005395,4811.338623,8882.471304,-1225.752797
583.005716,6735.874072,11473.192101,-2911.162892
583.006036,3775.050304,11473.192101,-536.266849
583.006357,4589.276840,9178.553681,2681.334243
583.006678,3034.844362,5477.523971,842.705048
583.006998,3182.885551,6439.791695,-383.047749
583.007319,4441.235652,9178.553681,612.876398
583.007639,4663.297435,9696.697840,842.705048
583.007960,4737.318029,7105.977043,1685.410096
583.008281,5329.482782,5329.482782,3217.601092
583.008601,2812.782580,4885.359217,1225.752797
583.008922,2516.700203,6513.812290,229.828649
583.009242,5773.606348,9326.594869,1302.362347
583.009563,7846.182985,10288.862594,689.485948
583.009884,7624.121203,8216.285956,-536.266849
583.010204,7476.080014,7994.224174,-1608.800546
583.010525,5921.647536,9696.697840,-1302.362347
583.010845,4663.297435,9918.759623,689.485948
583.011166,7624.121203,10510.924376,153.219100
583.011487,9104.533087,9474.636058,-1072.533697
583.011807,5773.606348,7105.977043,-919.314598
583.012128,5995.668130,5921.647536,229.828649
583.012448,6291.750507,8660.409521,383.047749
583.012769,2442.679609,9178.553681,536.266849
583.013090,5329.482782,8808.450710,995.924147
583.013410,8512.368333,8142.265362,0.000000
583.013731,3775.050304,6883.915261,383.047749
583.014052,1924.535449,6069.688724,2068.457845
583.014372,4811.338623,7476.080014,1072.533697
583.014693,3330.926739,8956.491898,-995.924147
583.015013,2886.803174,9844.739029,-459.657299
583.015334,5699.585753,10288.862594,-1532.190996
583.015655,2516.700203,7476.080014,-2451.505594
583.015975,740.205942,5847.626942,459.657299
583.016296,4737.318029,7254.018232,1532.190996
583.016616,6069.688724,9400.615463,-2911.162892
583.016937,2886.803174,8808.450710,-4826.401637
583.017258,5329.482782,8216.285956,-3447.429741
583.017578,7476.080014,7254.018232,-1378.971896
583.017899,5181.441594,7254.018232,2298.286494
583.018219,4441.235652,8808.450710,2451.505594
583.018540,6291.750507,8734.430116,-1455.581446
583.018861,5181.441594,5995.668130,-1685.410096
583.019181,3404.947333,4737.318029,612.876398
583.019502,6069.688724,5403.503377,-76.609550
583.019822,4589.276840,8364.327145,-689.485948
583.020143,5255.462188,9844.739029,-1302.362347
583.020464,7105.977043,10584.944971,-1991.848295
583.020784,8808.450710,11547.212695,-612.876398
583.021105,6291.750507,9326.594869,1915.238745
583.021425,3701.029710,4959.379811,536.266849
583.021746,5773.606348,7105.977043,-689.485948
583.022067,6957.935855,11843.295072,76.609550
583.022387,6513.812290,10881.027347,-612.876398
583.022708,8068.244768,8660.409521,-919.314598
583.023029,7254.018232,8660.409521,536.266849
583.023349,3330.926739,7105.977043,1532.190996
583.023670,3108.864956,5551.544565,536.266849
583.023990,5921.647536,7105.977043,153.219100
583.024311,5477.523971,9030.512492,1225.752797
583.024632,6439.791695,9918.759623,3294.210641
583.024952,5181.441594,8068.244768,612.876398
583.025273,1924.535449,6883.915261,-1991.848295
583.025593,3775.050304,9474.636058,229.828649
583.025914,4441.235652,8512.368333,1225.752797
583.026235,3182.885551,5995.668130,-2451.505594
583.026555,4071.132681,7031.956449,-1455.581446
583.026876,4811.338623,9622.677246,459.657299
583.027196,2220.617826,8290.306550,-766.095498
583.027517,2442.679609,9104.533087,-1532.190996
583.027838,4219.173869,9622.677246,-1072.533697
583.028158,5551.544565,7920.203579,306.438199
583.028479,5625.565159,5477.523971,1685.410096
583.028799,1406.391290,3108.864956,0.000000
583.029120,2294.638420,5921.647536,689.485948
583.029441,6069.688724,9400.615463,383.047749
583.029761,4441.235652,8586.388927,-1532.190996
583.030082,4737.318029,6587.832884,-1608.800546
583.030402,9474.636058,9104.533087,766.095498
583.030723,6217.729913,8586.388927,1149.143247
583.031044,1628.453072,6217.729913,-76.609550
583.031364,6365.771101,8586.388927,-383.047749
583.031685,7846.182985,10436.903782,153.219100
583.032006,4737.318029,6513.812290,995.924147
583.032326,6439.791695,5847.626942,-842.705048
583.032647,7105.977043,8068.244768,-3217.601092
583.032967,3330.926739,9104.533087,-1072.533697
583.033288,5255.462188,8956.491898,1378.971896
583.033609,9400.615463,9030.512492,1378.971896
583.033929,6365.771101,7920.203579,2145.067394
583.034250,3256.906145,6217.729913,306.438199
583.034570,3404.947333,6587.832884,-2987.772442
583.034891,5033.400406,12213.398043,0.000000
583.035212,6513.812290,13545.768739,3907.087040
583.035532,6439.791695,10362.883188,-306.438199
583.035853,4737.318029,7105.977043,-3524.039291
583.036173,1850.514855,7698.141797,689.485948
583.036494,0.000000,5921.647536,2604.724693
583.036815,2590.720797,6735.874072,153.219100
583.037135,5921.647536,10955.047942,-1149.143247
583.037456,5329.482782,11991.336260,-1685.410096
583.037776,5255.462188,9326.594869,229.828649
583.038097,4367.215058,6439.791695,2374.896044
583.038418,2368.659014,5699.585753,1149.143247
583.038738,4367.215058,7328.038826,-1455.581446
583.039059,5551.544565,7698.141797,-3064.381992
583.039379,5107.421000,7031.956449,-1378.971896
583.039700,9178.553681,9178.553681,3370.820191
583.040021,7994.224174,8512.368333,3064.381992
583.040341,1036.288319,4811.338623,-2681.334243
583.040662,3478.967927,5477.523971,-3677.258390
583.040983,8808.450710,9696.697840,-229.828649
583.041303,6217.729913,6217.729913,1149.143247
583.041624,7179.997637,3108.864956,-1302.362347
583.041944,8290.306550,7031.956449,-4136.915689
583.042265,4811.338623,12139.377449,-3294.210641
583.042586,3849.070898,11473.192101,0.000000
583.042906,7476.080014,7105.977043,-1225.752797
583.043227,7994.224174,4959.379811,-1149.143247
583.043547,6513.812290,5995.668130,1225.752797
583.043868,3108.864956,7105.977043,612.876398
583.044189,2294.638420,7105.977043,-919.314598
583.044509,4737.318029,9104.533087,-995.924147
583.044830,6365.771101,9918.759623,-1378.971896
583.045150,1998.556043,5847.626942,-1762.019645
583.045471,3775.050304,5625.565159,-459.657299
583.045792,3256.906145,8734.430116,153.219100
583.046112,518.144159,7994.224174,-1225.752797
583.046433,3775.050304,7920.203579,-2528.115143
583.046753,7328.038826,10362.883188,-2451.505594
583.047074,3627.009116,10881.027347,0.000000
583.047395,2960.823768,9770.718434,766.095498
583.047715,3997.112087,9770.718434,-2528.115143
583.048036,2368.659014,8956.491898,-3447.429741
583.048356,5403.503377,8290.306550,766.095498
583.048677,8216.285956,9178.553681,1072.533697
583.048998,3997.112087,7920.203579,-2451.505594
583.049318,814.226536,6883.915261,-3140.991542
583.049639,5181.441594,9326.594869,-2221.676944
583.049960,6587.832884,11325.150913,-612.876398
583.050280,5329.482782,11695.253884,1378.971896
583.050601,6957.935855,10658.965565,919.314598
583.050921,7105.977043,8512.368333,-689.485948
583.051242,3478.967927,8734.430116,766.095498
583.051563,2886.803174,11103.089130,2068.457845
583.051883,6217.729913,14211.954086,-536.266849
583.052204,5551.544565,12065.356855,0.000000
583.052524,6439.791695,8586.388927,2221.676944
583.052845,8068.244768,7328.038826,2911.162892
583.053166,4219.173869,7328.038826,2757.943793
583.053486,666.185348,6069.688724,1455.581446
583.053807,5551.544565,7105.977043,-153.219100
583.054127,9474.636058,9770.718434,689.485948
583.054448,7772.162391,8882.471304,2221.676944
583.054769,7920.203579,6883.915261,2068.457845
583.055089,6513.812290,5995.668130,919.314598
583.055410,4145.153275,6735.874072,76.609550
583.055730,4885.359217,5625.565159,-306.438199
583.056051,7179.997637,5107.421000,-1685.410096
583.056372,8068.244768,6661.853478,-229.828649
583.056692,5921.647536,7031.956449,536.266849
583.057013,3701.029710,6439.791695,-1302.362347
583.057333,4441.235652,6883.915261,-1072.533697
583.057654,4959.379811,6809.894666,1378.971896
583.057975,5551.544565,4589.276840,459.657299
583.058295,3701.029710,3923.091493,-536.266849
583.058616,2442.679609,5329.482782,383.047749
583.058937,1554.432478,5033.400406,536.266849
583.059257,2738.761985,3849.070898,0.000000
583.059578,4663.297435,5995.668130,-1455.581446
583.059898,3552.988522,6661.853478,-2221.676944
583.060219,2294.638420,5033.400406,-1838.629195
583.060540,3478.967927,4959.379811,-1685.410096
583.060860,3923.091493,7476.080014,-919.314598
583.061181,4737.318029,10881.027347,0.000000
583.061501,6069.688724,10881.027347,0.000000
583.061822,4959.379811,9104.533087,-306.438199
583.062143,4145.153275,8512.368333,-612.876398
583.062463,3108.864956,6883.915261,-1302.362347
583.062784,2960.823768,6735.874072,-1149.143247
583.063104,6217.729913,9992.780217,1072.533697
583.063425,7772.162391,13397.727550,1302.362347
583.063746,5255.462188,11325.150913,-306.438199
583.064066,4145.153275,8808.450710,-229.828649
583.064387,3923.091493,7402.059420,1838.629195
583.064707,4293.194464,9104.533087,2298.286494
583.065028,6365.771101,9992.780217,459.657299
583.065349,6513.812290,10658.965565,-3600.648841
583.065669,8438.347739,11177.109724,-3140.991542
583.065990,8216.285956,11621.233289,1225.752797
583.066310,4811.338623,10584.944971,1149.143247
583.066631,5255.462188,9992.780217,-1455.581446
583.066952,8956.491898,12731.542202,-536.266849
583.067272,7994.224174,11029.068536,995.924147
583.067593,6809.894666,7772.162391,-536.266849
583.067914,5773.606348,5773.606348,-1685.410096
583.068234,4589.276840,5699.585753,-1455.581446
583.068555,4811.338623,6217.729913,-612.876398
583.068875,7402.059420,7698.141797,-1608.800546
583.069196,5403.503377,8142.265362,-2604.724693
583.069517,4737.318029,5329.482782,-2145.067394
583.069837,6957.935855,5921.647536,-1608.800546
583.070158,4811.338623,8882.471304,-1915.238745
583.070478,5033.400406,10140.821405,-1302.362347
583.070799,6957.935855,11769.274478,-2911.162892
583.071120,7328.038826,10362.883188,-4060.306139
583.071440,3552.988522,6957.935855,-536.266849
583.071761,2294.638420,4441.235652,842.705048
583.072081,4515.256246,6439.791695,766.095498
583.072402,3404.947333,8660.409521,1072.533697
583.072723,3182.885551,8660.409521,-459.657299
583.073043,3849.070898,7105.977043,-2911.162892
583.073364,4219.173869,6143.709319,1608.800546
583.073684,1850.514855,5995.668130,4749.792088
583.074005,3256.906145,6957.935855,2068.457845
583.074326,3849.070898,8734.430116,-1378.971896
583.074646,4071.132681,9696.697840,-1762.019645
583.074967,7105.977043,9992.780217,1072.533697
583.075286,4589.276840,9030.512492,3140.991542
583.075606,962.267725,7328.038826,1991.848295
583.075927,4219.173869,8512.368333,0.000000
583.076247,5773.606348,10140.821405,-153.219100
583.076568,3849.070898,7105.977043,995.924147
583.076888,4219.173869,7031.956449,536.266849
583.077209,6439.791695,8290.306550,766.095498
583.077529,2072.576638,7031.956449,0.000000
583.077850,2590.720797,6587.832884,0.000000
583.078170,7328.038826,9030.512492,842.705048
583.078491,5773.606348,8290.306550,1915.238745
583.078811,4071.132681,4885.359217,689.485948
583.079132,5995.668130,5847.626942,-995.924147
583.079452,4367.215058,9474.636058,76.609550
583.079773,5847.626942,10584.944971,1225.752797
583.080093,7031.956449,9844.739029,306.438199
583.080414,5477.523971,7254.018232,153.219100
583.080734,4441.235652,6291.750507,1608.800546
583.081055,4589.276840,6439.791695,612.876398
583.081375,2146.597232,5625.565159,-1072.533697
583.081696,4145.153275,7698.141797,1302.362347
583.082016,8660.409521,9474.636058,1455.581446
583.082337,4885.359217,7994.224174,-306.438199
583.082657,2072.576638,4071.132681,-229.828649
583.082978,4959.379811,3997.112087,0.000000
583.083298,5477.523971,7402.059420,-842.705048
583.083619,3478.967927,9696.697840,153.219100
583.083939,5477.523971,10436.903782,-1762.019645
583.084260,7846.182985,9030.512492,-2374.896044
583.084580,6143.709319,8586.388927,995.924147
583.084901,4737.318029,8142.265362,1991.848295
583.085221,5847.626942,8956.491898,-1532.190996
583.085542,4885.359217,10362.883188,-2757.943793
583.085862,5107.421000,7994.224174,-153.219100
583.086183,7254.018232,6439.791695,919.314598
583.086503,5773.606348,6217.729913,1302.362347
583.086824,3330.926739,7994.224174,612.876398
583.087144,4071.132681,8512.368333,-2298.286494
583.087465,5995.668130,9992.780217,-3217.601092
583.087785,6809.894666,8068.244768,0.000000
583.088106,7031.956449,7105.977043,1302.362347
583.088426,5699.585753,8216.285956,689.485948
583.088747,3330.926739,9992.780217,-459.657299
583.089067,3701.029710,10362.883188,-2145.067394
583.089388,5699.585753,8660.409521,-2757.943793
583.089708,7846.182985,8586.388927,-919.314598
583.090029,6883.915261,8438.347739,689.485948
583.090349,4441.235652,8068.244768,-766.095498
583.090670,3034.844362,8808.450710,-1149.143247
583.090990,6143.709319,10214.842000,-536.266849
583.091311,5255.462188,8734.430116,76.609550
583.091631,5477.523971,7550.100608,1532.190996
583.091952,6735.874072,7698.141797,229.828649
583.092272,3256.906145,7994.224174,0.000000
583.092593,3552.988522,7846.182985,229.828649
583.092913,5773.606348,8586.388927,0.000000
583.093234,5181.441594,8364.327145,-766.095498
583.093554,3849.070898,8216.285956,0.000000
583.093875,4367.215058,6513.812290,-995.924147
583.094195,2368.659014,6439.791695,-1838.629195
583.094516,3182.885551,8808.450710,766.095498
583.094836,6809.894666,11843.295072,2374.896044
583.095157,5995.668130,11177.109724,153.219100
583.095477,2886.803174,9178.553681,0.000000
583.095798,3627.009116,6809.894666,306.438199
583.096118,3997.112087,6365.771101,536.266849
583.096439,3404.947333,5477.523971,919.314598
583.096759,4737.318029,7476.080014,766.095498
583.097080,7476.080014,9844.739029,-689.485948
583.097400,4663.297435,7920.203579,-1072.533697
583.097721,3256.906145,6735.874072,383.047749
583.098041,5995.668130,7624.121203,2221.676944
583.098362,5255.462188,7624.121203,1149.143247
583.098682,5181.441594,7031.956449,0.000000
583.099003,6957.935855,6735.874072,-1455.581446
583.099323,5107.421000,6365.771101,-1838.629195
583.099644,6439.791695,9326.594869,459.657299
583.099964,5477.523971,11029.068536,-76.609550
583.100285,5699.585753,9548.656652,-1915.238745
583.100605,7031.956449,8290.306550,-842.705048
583.100926,5847.626942,4737.318029,766.095498
583.101246,3552.988522,1406.391290,1608.800546
583.101566,4219.173869,2738.761985,1302.362347
583.101887,4737.318029,6809.894666,-1455.581446
583.102207,3923.091493,8660.409521,-3983.696590
583.102528,7328.038826,11547.212695,-2298.286494
583.102848,7402.059420,11843.295072,-766.095498
583.103169,4071.132681,7105.977043,76.609550
583.103489,4515.256246,3404.947333,689.485948
583.103810,5329.482782,4959.379811,-2681.334243
583.104130,2812.782580,7328.038826,-4366.744339
583.104451,3923.091493,9844.739029,-2451.505594
583.104771,6809.894666,12657.521608,-1915.238745
583.105092,3997.112087,10807.006753,-229.828649
583.105412,1554.432478,6365.771101,153.219100
583.105733,2072.576638,2664.741391,-2911.162892
583.106053,1776.494261,2886.803174,-5056.230287
583.106374,2590.720797,6439.791695,-3064.381992
583.106694,4589.276840,8364.327145,-4443.353888
583.107015,5995.668130,9622.677246,-6511.811733
583.107335,6439.791695,12213.398043,-3983.696590
583.107656,6365.771101,12583.501014,-1838.629195
583.107976,5551.544565,10732.986159,-2604.724693
583.108297,6217.729913,8364.327145,-3524.039291
583.108617,4367.215058,6439.791695,-3983.696590
583.108938,4737.318029,4737.318029,-4826.401637
583.109258,6957.935855,6365.771101,-6205.373534
583.109579,4367.215058,7328.038826,-6818.249932
583.109899,5921.647536,8660.409521,-6128.763984
583.110220,10584.944971,10658.965565,-3907.087040
583.110540,6365.771101,7624.121203,-4366.744339
583.110861,5699.585753,5477.523971,-3983.696590
583.111181,10807.006753,9474.636058,-3294.210641
583.111502,7179.997637,11695.253884,-5056.230287
583.111822,5477.523971,11991.336260,-5362.668486
583.112143,9844.739029,12139.377449,-5286.058936
583.112463,7254.018232,10066.800811,-5439.278036
583.112784,2664.741391,6513.812290,-2987.772442
583.113104,2886.803174,5329.482782,-3983.696590
583.113425,1406.391290,5255.462188,-6741.640382
583.113745,518.144159,4959.379811,-5056.230287
583.114066,4737.318029,7105.977043,-4060.306139
583.114386,5625.565159,8734.430116,-5286.058936
583.114707,3849.070898,10288.862594,-4979.620737
583.115027,4663.297435,12583.501014,-6052.154434
583.115348,6439.791695,11769.274478,-8120.612279
583.115668,5181.441594,8364.327145,-7507.735880
583.115989,5551.544565,5921.647536,-5515.887586
583.116309,6735.874072,6809.894666,-6358.592633
583.116630,5625.565159,10510.924376,-4443.353888
583.116950,3849.070898,12361.439231,-3217.601092
583.117271,3256.906145,10288.862594,-6971.469032
583.117591,4145.153275,7105.977043,-5515.887586
583.117912,4145.153275,6291.750507,-2604.724693
583.118232,888.247130,3552.988522,-4213.525239
583.118553,1332.370696,3108.864956,-5439.278036
583.118873,3997.112087,4811.338623,-5439.278036
583.119194,5107.421000,7105.977043,-6818.249932
583.119514,6513.812290,11399.171507,-6358.592633
583.119835,7105.977043,13027.624579,-5286.058936
583.120155,8660.409521,14508.036463,-4749.792088
583.120476,8438.347739,13101.645173,-3830.477490
583.120796,6513.812290,8808.450710,-3677.258390
583.121117,5477.523971,5181.441594,-2757.943793
583.121437,3627.009116,5403.503377,-1608.800546
583.121758,2442.679609,6143.709319,-2604.724693
583.122078,2220.617826,6513.812290,-6281.983084
583.122399,3923.091493,5329.482782,-8503.660028
583.122719,4885.359217,3997.112087,-6894.859482
583.123040,5107.421000,3330.926739,-2681.334243
583.123360,5403.503377,4885.359217,-2681.334243
583.123681,5625.565159,8068.244768,-4826.401637
583.124001,5625.565159,9918.759623,-5592.497135
583.124322,7328.038826,10881.027347,-6205.373534
583.124642,8216.285956,10436.903782,-6818.249932
583.124963,7328.038826,8438.347739,-7584.345430
583.125283,7624.121203,8956.491898,-7124.688131
583.125604,5921.647536,9622.677246,-6894.859482
583.125924,2664.741391,7624.121203,-6358.592633
583.126245,2442.679609,4293.194464,-5132.839837
583.126565,3404.947333,2886.803174,-3677.258390
583.126886,1628.453072,3849.070898,-2757.943793
583.127206,2294.638420,5921.647536,-3677.258390
583.127527,4589.276840,9104.533087,-5515.887586
583.127847,4589.276840,10955.047942,-6128.763984
583.128168,3330.926739,9104.533087,-4826.401637
583.128488,5551.544565,8512.368333,-3983.696590
