#time,accel_x,accel_y,accel_z
531.212963,5033.400406,7994.224174,-306.438199
531.213284,4959.379811,8142.265362,-459.657299
531.213605,4885.359217,8364.327145,-536.266849
531.213926,4959.379811,8216.285956,0.000000
531.214247,5107.421000,8364.327145,-459.657299
531.214568,5107.421000,8290.306550,0.000000
531.214889,4811.338623,8068.244768,153.219100
531.215209,5181.441594,8142.265362,0.000000
531.215530,5107.421000,8068.244768,-229.828649
531.215851,4959.379811,8068.244768,76.609550
531.216172,4959.379811,8142.265362,-153.219100
531.216493,5107.421000,7994.224174,-153.219100
531.216814,5329.482782,7846.182985,0.000000
531.217135,4811.338623,7994.224174,-306.438199
531.217456,4737.318029,8142.265362,-229.828649
531.217777,4737.318029,8290.306550,-689.485948
531.218098,4885.359217,8068.244768,0.000000
531.218419,4811.338623,7920.203579,0.000000
531.218740,5033.400406,8068.244768,0.000000
531.219061,4885.359217,8216.285956,-459.657299
531.219382,4885.359217,7994.224174,0.000000
531.219703,4737.318029,8216.285956,-229.828649
531.220024,4959.379811,8142.265362,-153.219100
531.220345,4811.338623,7994.224174,0.000000
531.220665,4959.379811,7920.203579,0.000000
531.220986,4959.379811,7624.121203,0.000000
531.221307,5033.400406,8290.306550,-612.876398
531.221628,4737.318029,8068.244768,-306.438199
531.221949,4885.359217,7994.224174,0.000000
531.222270,5033.400406,7846.182985,-153.219100
531.222591,4737.318029,8364.327145,0.000000
531.222912,4811.338623,7994.224174,0.000000
531.223233,4959.379811,8068.244768,-153.219100
531.223554,4959.379811,7846.182985,0.000000
531.223875,5107.421000,8216.285956,-76.609550
531.224196,4737.318029,8364.327145,-536.266849
531.224517,4885.359217,8364.327145,-612.876398
531.224838,4959.379811,8068.244768,-153.219100
531.225159,4959.379811,8068.244768,-229.828649
531.225480,5033.400406,8142.265362,153.219100
531.225801,4885.359217,8068.244768,0.000000
531.226121,5033.400406,8068.244768,-153.219100
531.226442,4811.338623,7920.203579,-383.047749
531.226763,4737.318029,7550.100608,-383.047749
531.227084,4145.153275,7550.100608,-383.047749
531.227405,4367.215058,8364.327145,76.609550
531.227726,4367.215058,9474.636058,-536.266849
531.228047,4737.318029,10066.800811,-1149.143247
531.228368,4589.276840,9770.718434,-1302.362347
531.228689,4367.215058,9252.574275,-1072.533697
531.229010,3552.988522,8808.450710,76.609550
531.229331,2886.803174,8808.450710,766.095498
531.229652,2738.761985,9326.594869,1149.143247
531.229973,2738.761985,8956.491898,383.047749
531.230294,2590.720797,8660.409521,-153.219100
531.230615,3182.885551,8142.265362,-919.314598
531.230936,3256.906145,9326.594869,-76.609550
531.231256,2960.823768,9844.739029,153.219100
531.231577,2812.782580,9326.594869,383.047749
531.231898,2886.803174,8808.450710,612.876398
531.232219,2664.741391,9178.553681,0.000000
531.232540,2072.576638,10140.821405,-459.657299
531.232861,1776.494261,11473.192101,-1072.533697
531.233182,888.247130,12065.356855,-1608.800546
531.233503,1184.329507,11695.253884,-1685.410096
531.233824,814.226536,11029.068536,-1608.800546
531.234145,0.000000,11325.150913,-1225.752797
531.234466,-888.247130,12361.439231,-383.047749
531.234787,-1554.432478,13101.645173,229.828649
531.235108,-1924.535449,12509.480420,842.705048
531.235429,-1406.391290,11473.192101,1455.581446
531.235750,-1036.288319,11399.171507,1838.629195
531.236071,-1702.473667,12213.398043,1608.800546
531.236392,-2738.761985,11695.253884,612.876398
531.236712,-2294.638420,10658.965565,-919.314598
531.237033,-1776.494261,10066.800811,-536.266849
531.237354,-888.247130,9622.677246,383.047749
531.237675,-222.061783,10436.903782,995.924147
531.237996,0.000000,11103.089130,229.828649
531.238317,370.102971,12139.377449,-1072.533697
531.238638,1184.329507,11473.192101,-1149.143247
531.238959,1850.514855,10362.883188,-536.266849
531.239280,2738.761985,10436.903782,383.047749
531.239601,2664.741391,10214.842000,76.609550
531.239922,1998.556043,9844.739029,-2068.457845
531.240243,1998.556043,9252.574275,-2834.553343
531.240564,2220.617826,9474.636058,-1532.190996
531.240885,2442.679609,9696.697840,76.609550
531.241206,2368.659014,9770.718434,536.266849
531.241527,1554.432478,10436.903782,-612.876398
531.241848,1036.288319,11251.130318,-612.876398
531.242168,222.061783,11103.089130,0.000000
531.242489,444.123565,10066.800811,306.438199
531.242810,74.020594,10214.842000,229.828649
531.243131,-222.061783,10436.903782,995.924147
531.243452,0.000000,10658.965565,1149.143247
531.243773,-1258.350101,10807.006753,1149.143247
531.244094,-592.164754,11029.068536,1072.533697
531.244415,518.144159,11177.109724,1838.629195
531.244736,888.247130,11103.089130,919.314598
531.245057,888.247130,10955.047942,0.000000
531.245378,1406.391290,10955.047942,-842.705048
531.245699,1480.411884,10066.800811,-842.705048
531.246020,1184.329507,9770.718434,0.000000
531.246341,1554.432478,8808.450710,76.609550
531.246662,1924.535449,8734.430116,689.485948
531.246983,2294.638420,9474.636058,383.047749
531.247303,2590.720797,10066.800811,0.000000
531.247624,2516.700203,10436.903782,-919.314598
531.247945,3404.947333,10066.800811,-919.314598
531.248266,3627.009116,9992.780217,-1302.362347
531.248587,3775.050304,9622.677246,-1225.752797
531.248908,3256.906145,9918.759623,-1378.971896
531.249229,2294.638420,10288.862594,-612.876398
531.249550,1184.329507,10881.027347,-306.438199
531.249871,1110.308913,11103.089130,-306.438199
531.250192,814.226536,11251.130318,-842.705048
531.250513,74.020594,10732.986159,-1762.019645
531.250834,-814.226536,9770.718434,-1915.238745
531.251155,-1776.494261,9400.615463,-766.095498
531.251476,-1998.556043,9548.656652,995.924147
531.251797,-1184.329507,10732.986159,1838.629195
531.252118,-370.102971,11695.253884,1838.629195
531.252439,296.082377,12657.521608,1685.410096
531.252759,0.000000,13249.686362,229.828649
531.253080,296.082377,13027.624579,0.000000
531.253401,1036.288319,11621.233289,-383.047749
531.253722,1924.535449,10362.883188,-536.266849
531.254043,1850.514855,9474.636058,-842.705048
531.254364,0.000000,8956.491898,-1838.629195
531.254685,-1184.329507,9252.574275,-2451.505594
531.255006,-1554.432478,10732.986159,-1532.190996
531.255327,-814.226536,11917.315666,-383.047749
531.255648,1332.370696,12583.501014,229.828649
531.255969,2072.576638,12953.603985,612.876398
531.256290,888.247130,13397.727550,0.000000
531.256611,-222.061783,13545.768739,-536.266849
531.256932,-370.102971,12953.603985,-229.828649
531.257253,222.061783,9992.780217,-689.485948
531.257574,1036.288319,7402.059420,-383.047749
531.257895,2664.741391,7254.018232,153.219100
531.258215,1110.308913,9326.594869,0.000000
531.258536,-74.020594,11399.171507,306.438199
531.258857,148.041188,11843.295072,689.485948
531.259178,814.226536,10510.924376,536.266849
531.259499,1036.288319,8216.285956,459.657299
531.259820,1184.329507,8142.265362,536.266849
531.260141,1110.308913,10362.883188,-536.266849
531.260462,0.000000,12583.501014,-1991.848295
531.260783,0.000000,13397.727550,-2834.553343
531.261104,1258.350101,13101.645173,-2604.724693
531.261425,962.267725,12953.603985,-612.876398
531.261746,592.164754,13323.706956,919.314598
531.262067,-592.164754,12953.603985,1072.533697
531.262388,-1184.329507,11029.068536,995.924147
531.262709,-888.247130,9622.677246,842.705048
531.263030,-222.061783,7846.182985,536.266849
531.263350,-1628.453072,7624.121203,1838.629195
531.263671,-1332.370696,8068.244768,1685.410096
531.263992,-888.247130,9178.553681,995.924147
531.264313,0.000000,9992.780217,-229.828649
531.264634,1480.411884,11769.274478,-536.266849
531.264955,2516.700203,12509.480420,-689.485948
531.265276,2960.823768,12287.418637,-536.266849
531.265597,2072.576638,11325.150913,-1378.971896
531.265918,1850.514855,9030.512492,-2451.505594
531.266239,3034.844362,7994.224174,-995.924147
531.266560,2442.679609,10362.883188,1225.752797
531.266881,1924.535449,12583.501014,229.828649
531.267202,1036.288319,12435.459826,-1378.971896
531.267523,1258.350101,11177.109724,-2451.505594
531.267844,148.041188,9326.594869,-1378.971896
531.268165,-1184.329507,7328.038826,0.000000
531.268486,-592.164754,7846.182985,0.000000
531.268806,0.000000,11399.171507,76.609550
531.269127,-666.185348,14285.974681,0.000000
531.269448,-1406.391290,14952.160028,-306.438199
531.269769,-1258.350101,14137.933492,229.828649
531.270090,-1258.350101,13471.748144,1378.971896
531.270411,-1702.473667,12509.480420,1991.848295
531.270732,-1776.494261,10362.883188,383.047749
531.271053,-888.247130,10955.047942,-1149.143247
531.271374,0.000000,11621.233289,-306.438199
531.271695,-148.041188,10584.944971,612.876398
531.272016,74.020594,9548.656652,842.705048
531.272337,1332.370696,8734.430116,1838.629195
531.272658,1924.535449,9696.697840,1838.629195
531.272979,3108.864956,10584.944971,612.876398
531.273300,3256.906145,11177.109724,-1762.019645
531.273621,4441.235652,11325.150913,-2068.457845
531.273942,4367.215058,10881.027347,-1608.800546
531.274262,3404.947333,8290.306550,-1838.629195
531.274583,2368.659014,6661.853478,-1762.019645
531.274904,3404.947333,8512.368333,-689.485948
531.275225,2368.659014,11843.295072,-306.438199
531.275546,2294.638420,13323.706956,-689.485948
531.275867,2220.617826,11843.295072,-1608.800546
531.276188,888.247130,9992.780217,-1225.752797
531.276509,592.164754,8512.368333,1072.533697
531.276830,-1258.350101,7772.162391,1762.019645
531.277150,-1554.432478,9326.594869,306.438199
531.277471,-370.102971,13471.748144,-842.705048
531.277791,-370.102971,15174.221811,-1378.971896
531.278112,-962.267725,12805.562797,-842.705048
531.278432,814.226536,10362.883188,2298.286494
531.278753,518.144159,9622.677246,4749.792088
531.279073,-1480.411884,10584.944971,2834.553343
531.279394,-296.082377,10436.903782,995.924147
531.279714,296.082377,9252.574275,153.219100
531.280035,1110.308913,7402.059420,1072.533697
531.280355,3627.009116,6587.832884,2221.676944
531.280676,4293.194464,6291.750507,842.705048
531.280996,4367.215058,7994.224174,-1072.533697
531.281317,4959.379811,9770.718434,-919.314598
531.281638,6143.709319,10214.842000,-2221.676944
531.281958,7105.977043,8734.430116,-1762.019645
531.282279,7254.018232,7624.121203,-766.095498
531.282599,7328.038826,8734.430116,-1072.533697
531.282920,4737.318029,9178.553681,-2757.943793
531.283240,4219.173869,9696.697840,-4290.134789
531.283561,3997.112087,9326.594869,-2834.553343
531.283881,2664.741391,8660.409521,-612.876398
531.284202,1480.411884,8068.244768,0.000000
531.284522,1332.370696,8142.265362,536.266849
531.284843,1110.308913,9178.553681,459.657299
531.285163,888.247130,11325.150913,1532.190996
531.285484,814.226536,11991.336260,1608.800546
531.285804,1258.350101,11325.150913,1455.581446
531.286125,2368.659014,9770.718434,2451.505594
531.286446,2664.741391,7772.162391,2834.553343
531.286766,1924.535449,6587.832884,1838.629195
531.287087,2886.803174,8216.285956,1302.362347
531.287407,3552.988522,9326.594869,306.438199
531.287728,4367.215058,7994.224174,0.000000
531.288048,6809.894666,5181.441594,-1762.019645
531.288369,8438.347739,5255.462188,-536.266849
531.288689,8882.471304,6735.874072,76.609550
531.289010,9030.512492,7920.203579,-306.438199
531.289330,8586.388927,7698.141797,-2068.457845
531.289651,9326.594869,6513.812290,-2834.553343
531.289971,10584.944971,6957.935855,-1608.800546
531.290292,9918.759623,8068.244768,-1991.848295
531.290612,7624.121203,9178.553681,-3370.820191
531.290933,6661.853478,8808.450710,-4290.134789
531.291253,5625.565159,7105.977043,-3064.381992
531.291574,6217.729913,7105.977043,-536.266849
531.291895,3627.009116,7105.977043,1225.752797
531.292215,666.185348,7254.018232,76.609550
531.292536,1480.411884,9622.677246,-76.609550
531.292856,1406.391290,10658.965565,1302.362347
531.293177,1850.514855,10066.800811,1991.848295
531.293497,3923.091493,11325.150913,2068.457845
531.293818,2294.638420,11991.336260,1149.143247
531.294138,0.000000,10362.883188,0.000000
531.294459,2368.659014,9400.615463,1991.848295
531.294779,3552.988522,8512.368333,2298.286494
531.295100,3182.885551,7624.121203,2451.505594
531.295420,2738.761985,7920.203579,2374.896044
531.295741,3034.844362,8734.430116,-459.657299
531.296061,2960.823768,7920.203579,-1608.800546
531.296382,7402.059420,7031.956449,76.609550
531.296703,8364.327145,5921.647536,536.266849
531.297023,6809.894666,5477.523971,-919.314598
531.297344,7994.224174,6365.771101,-1072.533697
531.297664,7846.182985,7846.182985,-995.924147
531.297985,8438.347739,8068.244768,-1532.190996
531.298305,10436.903782,8438.347739,-995.924147
531.298626,9770.718434,8142.265362,-2987.772442
531.298946,7105.977043,7476.080014,-4673.182538
531.299267,7402.059420,9104.533087,-1532.190996
531.299587,6735.874072,8142.265362,-536.266849
531.299908,4441.235652,5255.462188,-306.438199
531.300228,3701.029710,4737.318029,0.000000
531.300549,3108.864956,5773.606348,0.000000
531.300869,2294.638420,8882.471304,1149.143247
531.301190,3701.029710,9918.759623,2451.505594
531.301511,3034.844362,8734.430116,612.876398
531.301831,2886.803174,6809.894666,1149.143247
531.302152,3552.988522,6883.915261,3753.867940
531.302472,3404.947333,7550.100608,3907.087040
531.302793,2072.576638,7846.182985,1915.238745
531.303113,3627.009116,9030.512492,-459.657299
531.303434,4663.297435,8142.265362,-2068.457845
531.303754,5699.585753,8068.244768,0.000000
531.304075,6661.853478,7476.080014,919.314598
531.304395,6439.791695,7105.977043,-842.705048
531.304716,5403.503377,7105.977043,-2604.724693
531.305036,5477.523971,6809.894666,-2681.334243
531.305357,6365.771101,6143.709319,-1991.848295
531.305677,7476.080014,7105.977043,-766.095498
531.305998,9030.512492,9474.636058,-229.828649
531.306318,7994.224174,9696.697840,-1685.410096
531.306639,6735.874072,8216.285956,-2681.334243
531.306960,6365.771101,7920.203579,-1378.971896
531.307280,5921.647536,7254.018232,0.000000
531.307601,4737.318029,6661.853478,459.657299
531.307921,5551.544565,6439.791695,0.000000
531.308242,4737.318029,7031.956449,-1149.143247
531.308562,5181.441594,8882.471304,-1149.143247
531.308883,4071.132681,9030.512492,-229.828649
531.309203,4145.153275,8956.491898,-76.609550
531.309524,3478.967927,7328.038826,842.705048
531.309844,3478.967927,7846.182985,1225.752797
531.310165,4219.173869,8734.430116,1685.410096
531.310485,3923.091493,9474.636058,536.266849
531.310806,2960.823768,9178.553681,76.609550
531.311126,4293.194464,8660.409521,-612.876398
531.311447,5773.606348,9622.677246,-842.705048
531.311768,5255.462188,9400.615463,-1302.362347
531.312088,5329.482782,8438.347739,-1378.971896
531.312409,6661.853478,7624.121203,-459.657299
531.312729,4737.318029,6365.771101,153.219100
531.313050,4737.318029,4441.235652,383.047749
531.313370,6735.874072,6735.874072,0.000000
531.313691,6587.832884,9474.636058,-536.266849
531.314011,4959.379811,10288.862594,-1915.238745
531.314332,7402.059420,8216.285956,-2374.896044
531.314652,8364.327145,6513.812290,-2145.067394
531.314973,7994.224174,7179.997637,-306.438199
531.315293,6735.874072,8882.471304,0.000000
531.315614,4515.256246,8142.265362,-1608.800546
531.315934,4145.153275,7550.100608,-1225.752797
531.316255,7031.956449,8438.347739,1225.752797
531.316575,6143.709319,8660.409521,1378.971896
531.316896,4071.132681,9030.512492,-536.266849
531.317217,3256.906145,8734.430116,-1915.238745
531.317537,1998.556043,6513.812290,-919.314598
531.317858,3404.947333,5181.441594,2298.286494
531.318178,4663.297435,5477.523971,3524.039291
531.318499,3552.988522,7031.956449,1378.971896
531.318819,3034.844362,9474.636058,-919.314598
531.319140,4367.215058,10658.965565,-612.876398
531.319460,4663.297435,9104.533087,306.438199
531.319781,6957.935855,6957.935855,2221.676944
531.320101,6587.832884,6735.874072,1991.848295
531.320422,4959.379811,7105.977043,-536.266849
531.320742,4071.132681,7105.977043,-1838.629195
531.321063,6143.709319,7476.080014,-2451.505594
531.321383,7254.018232,6957.935855,-1608.800546
531.321704,8734.430116,7254.018232,612.876398
531.322025,7772.162391,7105.977043,919.314598
531.322345,6365.771101,7031.956449,-612.876398
531.322666,6291.750507,7328.038826,153.219100
531.322986,6365.771101,7179.997637,306.438199
531.323307,6069.688724,6439.791695,306.438199
531.323627,7105.977043,6587.832884,-153.219100
531.323948,7254.018232,8364.327145,-612.876398
531.324268,5699.585753,8660.409521,-689.485948
531.324589,4515.256246,8216.285956,-229.828649
531.324909,4293.194464,7698.141797,0.000000
531.325230,4219.173869,6661.853478,766.095498
531.325550,4293.194464,7105.977043,1378.971896
531.325871,4441.235652,7476.080014,1149.143247
531.326191,4737.318029,9104.533087,0.000000
531.326512,4071.132681,9474.636058,459.657299
531.326833,5107.421000,8956.491898,-536.266849
531.327153,6365.771101,8364.327145,-383.047749
531.327474,4515.256246,7476.080014,-153.219100
531.327794,4293.194464,7328.038826,-153.219100
531.328115,4959.379811,8290.306550,766.095498
531.328435,4737.318029,8068.244768,0.000000
531.328756,6439.791695,8364.327145,0.000000
531.329076,7105.977043,8290.306550,-536.266849
531.329397,5773.606348,8734.430116,-1838.629195
531.329717,5477.523971,8068.244768,-995.924147
531.330038,5329.482782,7624.121203,-612.876398
531.330358,5847.626942,7105.977043,-459.657299
531.330679,5255.462188,5995.668130,76.609550
531.330999,5255.462188,6809.894666,-536.266849
531.331320,4515.256246,8660.409521,-1378.971896
531.331640,3701.029710,9844.739029,-995.924147
531.331961,4071.132681,9844.739029,-842.705048
531.332282,4145.153275,9030.512492,-536.266849
531.332602,3997.112087,7920.203579,0.000000
531.332923,4737.318029,8142.265362,229.828649
531.333243,3701.029710,9030.512492,-1455.581446
531.333564,3256.906145,9770.718434,-1378.971896
531.333884,2738.761985,8512.368333,-1532.190996
531.334205,4219.173869,7476.080014,-1225.752797
531.334525,5921.647536,8290.306550,1455.581446
531.334846,5699.585753,9622.677246,1302.362347
531.335166,4885.359217,9622.677246,-306.438199
531.335487,4663.297435,7624.121203,-1225.752797
531.335807,4663.297435,5699.585753,-536.266849
531.336128,5847.626942,6143.709319,1378.971896
531.336448,7105.977043,8290.306550,1378.971896
531.336769,5773.606348,9844.739029,-1072.533697
531.337090,5107.421000,9696.697840,-3064.381992
531.337410,6735.874072,7846.182985,-2374.896044
531.337731,6735.874072,6809.894666,306.438199
531.338051,6957.935855,7254.018232,1378.971896
531.338372,5699.585753,8512.368333,766.095498
531.338692,3923.091493,8068.244768,-1608.800546
531.339013,5181.441594,7476.080014,-1608.800546
531.339333,6143.709319,7698.141797,306.438199
531.339654,5477.523971,7624.121203,612.876398
531.339974,4589.276840,8216.285956,-306.438199
531.340295,3552.988522,7698.141797,-689.485948
531.340615,4219.173869,7550.100608,0.000000
531.340936,6143.709319,8068.244768,1838.629195
531.341256,5477.523971,8142.265362,459.657299
531.341577,4441.235652,9326.594869,-1532.190996
531.341898,4663.297435,9400.615463,-1225.752797
531.342218,5033.400406,8068.244768,306.438199
531.342539,5255.462188,6143.709319,1302.362347
531.342859,6069.688724,5773.606348,1225.752797
531.343180,4441.235652,7550.100608,0.000000
531.343500,3775.050304,8068.244768,-1072.533697
531.343821,4811.338623,8438.347739,-766.095498
531.344141,6513.812290,8068.244768,0.000000
531.344462,6661.853478,7698.141797,1302.362347
531.344782,5625.565159,7920.203579,1685.410096
531.345103,4589.276840,7772.162391,76.609550
531.345423,4737.318029,7105.977043,-383.047749
531.345744,4515.256246,7105.977043,-842.705048
531.346064,4441.235652,6735.874072,-306.438199
531.346385,4885.359217,8660.409521,536.266849
531.346705,5181.441594,9696.697840,766.095498
531.347026,3923.091493,9992.780217,-1302.362347
531.347347,5033.400406,9252.574275,-1149.143247
531.347667,2960.823768,7994.224174,-229.828649
531.347988,2368.659014,7105.977043,612.876398
531.348308,3330.926739,8216.285956,1378.971896
531.348629,3627.009116,8882.471304,459.657299
531.348949,3627.009116,8956.491898,-536.266849
531.349270,3997.112087,8808.450710,-459.657299
531.349590,3034.844362,7624.121203,-842.705048
531.349911,3923.091493,9030.512492,0.000000
531.350231,4441.235652,9326.594869,1149.143247
531.350552,4071.132681,8660.409521,536.266849
531.350872,4663.297435,8734.430116,459.657299
531.351193,4515.256246,8068.244768,-766.095498
531.351513,4663.297435,8808.450710,-1302.362347
531.351834,5995.668130,9548.656652,229.828649
531.352155,5625.565159,9178.553681,-612.876398
531.352475,5551.544565,7476.080014,-1608.800546
531.352796,6143.709319,6661.853478,-612.876398
531.353116,5551.544565,7105.977043,0.000000
531.353437,4737.318029,7994.224174,-229.828649
531.353757,5329.482782,8882.471304,-842.705048
531.354078,4663.297435,8512.368333,-1149.143247
531.354398,4959.379811,7550.100608,-842.705048
531.354719,5921.647536,7994.224174,383.047749
531.355039,4737.318029,9104.533087,229.828649
531.355360,4219.173869,9252.574275,-1455.581446
531.355680,5625.565159,7920.203579,-2145.067394
531.356001,5625.565159,6291.750507,-1149.143247
531.356321,6217.729913,6587.832884,1302.362347
531.356642,5995.668130,8660.409521,1685.410096
531.356963,4515.256246,9030.512492,-612.876398
531.357283,4959.379811,7328.038826,-1608.800546
531.357604,7624.121203,5773.606348,-612.876398
531.357924,6735.874072,6291.750507,0.000000
531.358245,6143.709319,6809.894666,0.000000
531.358565,5329.482782,7698.141797,-306.438199
531.358886,5995.668130,7550.100608,-1149.143247
531.359206,6809.894666,7624.121203,-76.609550
531.359527,7328.038826,9326.594869,766.095498
531.359847,4959.379811,9770.718434,-766.095498
531.360168,4737.318029,9252.574275,-689.485948
531.360488,4293.194464,7994.224174,0.000000
531.360809,4515.256246,7105.977043,-229.828649
531.361129,5625.565159,7254.018232,76.609550
531.361450,3478.967927,7846.182985,-1762.019645
531.361770,2442.679609,8956.491898,-1685.410096
531.362091,2442.679609,10066.800811,689.485948
531.362412,3404.947333,10510.924376,919.314598
531.362732,3404.947333,9474.636058,1149.143247
531.363053,3330.926739,9326.594869,612.876398
531.363373,2072.576638,9474.636058,-76.609550
531.363694,1776.494261,9178.553681,-919.314598
531.364014,3256.906145,9030.512492,-612.876398
531.364335,3923.091493,9326.594869,-536.266849
531.364655,4071.132681,9104.533087,229.828649
531.364976,4441.235652,9400.615463,1225.752797
531.365296,4515.256246,9696.697840,383.047749
531.365617,4145.153275,9400.615463,153.219100
531.365937,4145.153275,9030.512492,-153.219100
531.366258,4219.173869,7846.182985,0.000000
531.366578,5403.503377,7105.977043,689.485948
531.366899,5995.668130,7105.977043,1302.362347
531.367220,5477.523971,7772.162391,-153.219100
531.367540,4515.256246,9252.574275,-1532.190996
531.367861,3404.947333,9178.553681,-1225.752797
531.368181,4737.318029,7846.182985,76.609550
531.368502,6735.874072,7402.059420,1378.971896
531.368822,4811.338623,7920.203579,995.924147
531.369143,3478.967927,8068.244768,-689.485948
531.369463,2812.782580,8882.471304,-1455.581446
531.369784,3627.009116,8364.327145,-383.047749
531.370104,4441.235652,7105.977043,612.876398
531.370425,5403.503377,7254.018232,536.266849
531.370745,3552.988522,7994.224174,-229.828649
531.371066,3034.844362,7772.162391,153.219100
531.371386,4145.153275,6957.935855,0.000000
531.371707,5107.421000,6143.709319,-229.828649
531.372028,6365.771101,7328.038826,0.000000
531.372348,5921.647536,7772.162391,383.047749
531.372669,4737.318029,8290.306550,-383.047749
531.372989,7031.956449,7550.100608,-689.485948
531.373310,7772.162391,7105.977043,-153.219100
531.373630,7031.956449,6661.853478,76.609550
531.373951,6439.791695,6883.915261,229.828649
531.374271,6143.709319,7031.956449,0.000000
531.374592,6661.853478,6735.874072,0.000000
531.374912,8216.285956,7550.100608,76.609550
531.375233,7402.059420,7550.100608,-689.485948
531.375553,4219.173869,6439.791695,-2451.505594
531.375874,5551.544565,6439.791695,-536.266849
531.376194,7846.182985,8142.265362,1225.752797
531.376515,5181.441594,8068.244768,1149.143247
531.376835,5551.544565,7698.141797,-689.485948
531.377156,5921.647536,8364.327145,-1302.362347
531.377476,3997.112087,9178.553681,-1072.533697
531.377796,5329.482782,9104.533087,383.047749
531.378117,6217.729913,9030.512492,612.876398
531.378437,3923.091493,7476.080014,-536.266849
531.378758,3108.864956,7328.038826,0.000000
531.379078,3849.070898,7772.162391,0.000000
531.379399,3404.947333,9474.636058,-1608.800546
531.379719,3775.050304,11325.150913,-536.266849
531.380039,3627.009116,10140.821405,76.609550
531.380360,3923.091493,7994.224174,229.828649
531.380680,4811.338623,6809.894666,1608.800546
531.381001,4441.235652,8216.285956,766.095498
531.381321,3478.967927,9918.759623,-1225.752797
531.381641,2368.659014,10807.006753,-1915.238745
531.381962,4959.379811,8882.471304,-919.314598
531.382282,7624.121203,7328.038826,842.705048
531.382603,7105.977043,7846.182985,2068.457845
531.382923,4737.318029,9622.677246,536.266849
531.383244,2294.638420,9844.739029,-1991.848295
531.383564,2886.803174,7920.203579,-1915.238745
531.383884,6143.709319,6735.874072,306.438199
531.384205,7624.121203,6809.894666,2451.505594
531.384525,5033.400406,8660.409521,842.705048
531.384846,3182.885551,9844.739029,-2221.676944
531.385166,2886.803174,8660.409521,-3294.210641
531.385486,4589.276840,6957.935855,-1072.533697
531.385807,6439.791695,6957.935855,2221.676944
531.386127,5847.626942,7920.203579,1991.848295
531.386448,3182.885551,8586.388927,-306.438199
531.386768,4367.215058,8586.388927,-1302.362347
531.387089,4885.359217,7920.203579,0.000000
531.387409,5255.462188,7254.018232,0.000000
531.387729,5551.544565,6291.750507,0.000000
531.388050,5625.565159,7328.038826,-1149.143247
531.388370,5551.544565,7920.203579,-842.705048
531.388691,6217.729913,8142.265362,689.485948
531.389011,6587.832884,7698.141797,459.657299
531.389332,5551.544565,8660.409521,383.047749
531.389652,5477.523971,8512.368333,995.924147
531.389972,6439.791695,7994.224174,383.047749
531.390293,6735.874072,6809.894666,76.609550
531.390613,5255.462188,6291.750507,0.000000
531.390934,4737.318029,6809.894666,0.000000
531.391254,5107.421000,7328.038826,153.219100
531.391574,5255.462188,8068.244768,995.924147
531.391895,5403.503377,8660.409521,689.485948
531.392215,5625.565159,8808.450710,0.000000
531.392536,5033.400406,8512.368333,229.828649
531.392856,4219.173869,7698.141797,995.924147
531.393177,6439.791695,7698.141797,1225.752797
531.393497,6217.729913,6883.915261,536.266849
531.393817,3404.947333,5773.606348,-919.314598
531.394138,4293.194464,6217.729913,-153.219100
531.394458,5477.523971,7920.203579,-229.828649
531.394779,5847.626942,7994.224174,-1608.800546
531.395099,7846.182985,7846.182985,-1455.581446
531.395420,7402.059420,7105.977043,-1608.800546
531.395740,6143.709319,6809.894666,-995.924147
531.396060,6513.812290,7328.038826,842.705048
531.396381,6069.688724,8438.347739,766.095498
531.396701,6143.709319,7846.182985,-766.095498
531.397022,5551.544565,8142.265362,-1762.019645
531.397342,5255.462188,8068.244768,-2451.505594
531.397662,5181.441594,9030.512492,-1915.238745
531.397983,5033.400406,9326.594869,306.438199
531.398303,3330.926739,7994.224174,0.000000
531.398624,3478.967927,7476.080014,0.000000
531.398944,2960.823768,7698.141797,766.095498
531.399265,3108.864956,9104.533087,1685.410096
531.399585,3330.926739,9844.739029,1225.752797
531.399905,3034.844362,9696.697840,919.314598
531.400226,2590.720797,7994.224174,76.609550
531.400546,3923.091493,7105.977043,306.438199
531.400867,4737.318029,9178.553681,459.657299
531.401187,2590.720797,10140.821405,-536.266849
531.401508,3108.864956,9474.636058,-1762.019645
531.401828,4959.379811,8512.368333,-1532.190996
531.402148,5995.668130,7254.018232,-306.438199
531.402469,7476.080014,8512.368333,1302.362347
531.402789,7031.956449,9252.574275,229.828649
531.403110,5033.400406,8808.450710,-1991.848295
531.403430,5847.626942,7105.977043,-1762.019645
531.403750,7772.162391,5995.668130,-612.876398
531.404071,9178.553681,6291.750507,0.000000
531.404391,8142.265362,7328.038826,-536.266849
531.404712,6587.832884,8142.265362,-1915.238745
531.405032,7179.997637,7772.162391,-1991.848295
531.405353,7698.141797,7920.203579,229.828649
531.405673,7105.977043,7105.977043,1149.143247
531.405993,6587.832884,7031.956449,1225.752797
531.406314,4885.359217,7254.018232,612.876398
531.406634,4367.215058,6883.915261,153.219100
531.406955,5847.626942,7105.977043,0.000000
531.407275,5773.606348,6957.935855,0.000000
531.407595,4515.256246,7624.121203,-229.828649
531.407916,3997.112087,7624.121203,536.266849
531.408236,4071.132681,8364.327145,766.095498
531.408557,4959.379811,9030.512492,766.095498
531.408877,4737.318029,8142.265362,919.314598
531.409198,4441.235652,8808.450710,306.438199
531.409518,3404.947333,7846.182985,0.000000
531.409838,3256.906145,6661.853478,-306.438199
531.410159,5625.565159,7105.977043,-229.828649
531.410479,5329.482782,7624.121203,-229.828649
531.410800,4737.318029,7328.038826,-536.266849
531.411120,6365.771101,6809.894666,-766.095498
531.411441,7105.977043,7105.977043,-689.485948
531.411761,6587.832884,7772.162391,536.266849
531.412081,6365.771101,8364.327145,306.438199
531.412402,5403.503377,8512.368333,-842.705048
531.412722,6069.688724,7402.059420,-1225.752797
531.413043,7402.059420,6513.812290,-536.266849
531.413363,6439.791695,7031.956449,-1149.143247
531.413683,4737.318029,8438.347739,-2145.067394
531.414004,4071.132681,9622.677246,-1225.752797
531.414324,3552.988522,9030.512492,-306.438199
531.414645,5403.503377,7772.162391,1838.629195
531.414965,5477.523971,8956.491898,2374.896044
531.415286,2886.803174,9622.677246,536.266849
531.415606,592.164754,8882.471304,-1302.362347
531.415926,2146.597232,8290.306550,0.000000
531.416247,4219.173869,7698.141797,919.314598
531.416567,4737.318029,8512.368333,1608.800546
531.416888,3256.906145,8956.491898,-612.876398
531.417208,1998.556043,9104.533087,-2528.115143
531.417529,2886.803174,9696.697840,-1302.362347
531.417849,5033.400406,9622.677246,995.924147
531.418169,5847.626942,8808.450710,1072.533697
531.418490,5773.606348,8216.285956,612.876398
531.418810,5255.462188,9252.574275,-153.219100
531.419131,3997.112087,9178.553681,-1455.581446
531.419451,4663.297435,7994.224174,-1685.410096
531.419771,7105.977043,7179.997637,-1378.971896
531.420092,7328.038826,7031.956449,0.000000
531.420412,6883.915261,7550.100608,459.657299
531.420733,6217.729913,7624.121203,-689.485948
531.421053,6587.832884,8734.430116,-612.876398
531.421374,5773.606348,8438.347739,766.095498
531.421694,5625.565159,7105.977043,995.924147
531.422014,6513.812290,5995.668130,76.609550
531.422335,5847.626942,8068.244768,-459.657299
531.422655,4737.318029,9400.615463,-612.876398
531.422976,3849.070898,8882.471304,-1149.143247
531.423296,2960.823768,7772.162391,-1302.362347
531.423616,3923.091493,6513.812290,229.828649
531.423937,5551.544565,7772.162391,1532.190996
531.424257,4367.215058,9474.636058,1532.190996
531.424578,2516.700203,9474.636058,0.000000
531.424898,3034.844362,8290.306550,-919.314598
531.425219,5181.441594,6957.935855,0.000000
531.425539,6365.771101,6365.771101,1302.362347
531.425859,6957.935855,6143.709319,0.000000
531.426180,6143.709319,7179.997637,-2145.067394
531.426500,4811.338623,7772.162391,-2528.115143
531.426821,5625.565159,7772.162391,-1072.533697
531.427141,8512.368333,7772.162391,689.485948
531.427462,8734.430116,8290.306550,612.876398
531.427782,6439.791695,8734.430116,-153.219100
531.428102,4959.379811,7772.162391,-1838.629195
531.428423,5403.503377,7105.977043,-1378.971896
531.428743,5181.441594,6957.935855,-76.609550
531.429064,5699.585753,6883.915261,689.485948
531.429384,5329.482782,6809.894666,0.000000
531.429704,3775.050304,6661.853478,-536.266849
531.430025,3404.947333,8216.285956,0.000000
531.430345,4737.318029,10214.842000,536.266849
531.430666,3478.967927,10214.842000,-383.047749
531.430986,4071.132681,8956.491898,-689.485948
531.431307,4589.276840,7550.100608,0.000000
531.431627,4515.256246,8216.285956,0.000000
531.431947,3478.967927,9844.739029,459.657299
531.432268,1480.411884,9770.718434,-612.876398
531.432588,888.247130,8512.368333,-1608.800546
531.432909,4589.276840,8734.430116,153.219100
531.433229,5107.421000,10140.821405,919.314598
531.433550,3256.906145,9992.780217,-459.657299
531.433870,3108.864956,9252.574275,-766.095498
531.434190,3404.947333,8512.368333,229.828649
531.434511,5551.544565,8290.306550,1072.533697
531.434831,6217.729913,7698.141797,1608.800546
531.435152,5403.503377,8290.306550,-1455.581446
531.435472,4737.318029,9992.780217,-1838.629195
531.435792,5107.421000,9844.739029,-612.876398
531.436113,6439.791695,8808.450710,153.219100
531.436433,6365.771101,7031.956449,153.219100
531.436754,5107.421000,8956.491898,459.657299
531.437074,2368.659014,9326.594869,-229.828649
531.437395,1480.411884,7772.162391,-612.876398
531.437715,4811.338623,7624.121203,306.438199
531.438035,5625.565159,8142.265362,689.485948
531.438356,3256.906145,9030.512492,383.047749
531.438676,2664.741391,8956.491898,-306.438199
531.438997,3182.885551,8364.327145,-383.047749
531.439317,4071.132681,8660.409521,766.095498
531.439638,4515.256246,8808.450710,1225.752797
531.439958,3701.029710,8068.244768,-612.876398
531.440278,3627.009116,8216.285956,-1302.362347
531.440599,5403.503377,7994.224174,459.657299
531.440919,7105.977043,7772.162391,76.609550
531.441240,6513.812290,7105.977043,-1072.533697
531.441560,4885.359217,6439.791695,-1225.752797
531.441880,5995.668130,5181.441594,-229.828649
531.442201,7772.162391,5625.565159,766.095498
531.442521,7698.141797,6513.812290,766.095498
531.442842,7105.977043,7698.141797,-1072.533697
531.443162,6883.915261,8290.306550,-1608.800546
531.443483,6883.915261,6883.915261,-995.924147
531.443803,7402.059420,5847.626942,229.828649
531.444123,7920.203579,5847.626942,0.000000
531.444444,5921.647536,7920.203579,0.000000
531.444764,3478.967927,8438.347739,-1225.752797
531.445085,3552.988522,7402.059420,-1149.143247
531.445405,6439.791695,7105.977043,1072.533697
531.445725,5403.503377,7105.977043,1302.362347
531.446046,3478.967927,8364.327145,383.047749
531.446366,1924.535449,8956.491898,-1225.752797
531.446687,2146.597232,9474.636058,-1149.143247
531.447007,4663.297435,9178.553681,536.266849
531.447328,5107.421000,8956.491898,1149.143247
531.447648,3330.926739,8808.450710,0.000000
531.447968,2146.597232,9770.718434,-306.438199
531.448289,3182.885551,10510.924376,153.219100
531.448609,4589.276840,9918.759623,612.876398
531.448930,6069.688724,8660.409521,383.047749
531.449250,4367.215058,7772.162391,-612.876398
531.449571,3701.029710,7772.162391,-1608.800546
531.449891,4737.318029,8734.430116,-229.828649
531.450211,5625.565159,9548.656652,459.657299
531.450532,5477.523971,8956.491898,766.095498
531.450852,5477.523971,9622.677246,0.000000
531.451173,4737.318029,9474.636058,-689.485948
531.451493,4589.276840,9030.512492,-766.095498
531.451813,5181.441594,9030.512492,919.314598
531.452134,4515.256246,8660.409521,229.828649
531.452454,3478.967927,7846.182985,0.000000
531.452775,3256.906145,7624.121203,0.000000
531.453095,4071.132681,9178.553681,0.000000
531.453416,4663.297435,9992.780217,689.485948
531.453736,2812.782580,9696.697840,766.095498
531.454056,2812.782580,7920.203579,-229.828649
531.454377,4293.194464,6439.791695,766.095498
531.454697,4589.276840,7179.997637,1455.581446
531.455018,4071.132681,8586.388927,306.438199
531.455338,2368.659014,9252.574275,-1149.143247
531.455659,3034.844362,8734.430116,-1838.629195
531.455979,5995.668130,7846.182985,-383.047749
531.456299,7105.977043,7624.121203,1149.143247
531.456620,6291.750507,7772.162391,383.047749
531.456940,5329.482782,7254.018232,-1532.190996
531.457261,3923.091493,6513.812290,-2068.457845
531.457581,6439.791695,5329.482782,-459.657299
531.457901,7846.182985,5625.565159,1378.971896
531.458222,7624.121203,7772.162391,459.657299
531.458542,5921.647536,8142.265362,-766.095498
531.458863,5921.647536,6661.853478,-1608.800546
531.459183,6883.915261,5625.565159,-842.705048
531.459504,6661.853478,5625.565159,689.485948
531.459824,5773.606348,6661.853478,383.047749
531.460144,4885.359217,7624.121203,-766.095498
531.460465,4441.235652,7994.224174,-689.485948
531.460785,5329.482782,9178.553681,76.609550
531.461106,5773.606348,8808.450710,0.000000
531.461426,4811.338623,8438.347739,-919.314598
531.461747,4293.194464,7846.182985,-1225.752797
531.462067,4071.132681,7550.100608,-229.828649
531.462387,5625.565159,7698.141797,459.657299
531.462708,5551.544565,8512.368333,0.000000
531.463028,4293.194464,9178.553681,-919.314598
531.463349,4663.297435,9918.759623,-383.047749
531.463669,5403.503377,9326.594869,919.314598
531.463989,6217.729913,8068.244768,1532.190996
531.464310,5403.503377,8438.347739,995.924147
531.464630,4441.235652,7179.997637,-842.705048
531.464951,4663.297435,7031.956449,-1149.143247
531.465271,5625.565159,6809.894666,0.000000
531.465592,6291.750507,7698.141797,612.876398
531.465912,6587.832884,9252.574275,-383.047749
531.466232,4885.359217,9474.636058,-1149.143247
531.466553,5403.503377,9326.594869,-536.266849
531.466873,6069.688724,8512.368333,306.438199
531.467194,5625.565159,8068.244768,0.000000
531.467514,4811.338623,8512.368333,-229.828649
531.467834,3330.926739,9252.574275,76.609550
531.468155,3404.947333,8734.430116,0.000000
531.468475,4441.235652,9770.718434,383.047749
531.468796,3552.988522,9770.718434,-306.438199
531.469116,1924.535449,8808.450710,-1072.533697
531.469437,2220.617826,8660.409521,0.000000
531.469757,2442.679609,8068.244768,919.314598
531.470077,4441.235652,8216.285956,1608.800546
531.470398,4071.132681,7772.162391,995.924147
531.470718,1850.514855,8290.306550,-1072.533697
531.471039,2072.576638,8956.491898,-1225.752797
531.471359,4737.318029,8734.430116,0.000000
531.471680,6069.688724,8142.265362,-306.438199
531.472000,5477.523971,6661.853478,-229.828649
531.472320,5477.523971,7772.162391,-689.485948
531.472641,4663.297435,8734.430116,-612.876398
531.472961,3627.009116,7920.203579,-689.485948
531.473282,6365.771101,7105.977043,-76.609550
531.473602,7476.080014,6513.812290,76.609550
531.473922,5773.606348,6735.874072,-536.266849
531.474243,5921.647536,6439.791695,-383.047749
531.474563,6439.791695,5921.647536,-1762.019645
531.474884,6439.791695,6439.791695,-1072.533697
531.475204,6217.729913,7105.977043,-383.047749
531.475525,5551.544565,6661.853478,-919.314598
531.475845,6143.709319,7254.018232,-1149.143247
531.476165,6587.832884,8882.471304,153.219100
531.476486,6513.812290,8882.471304,0.000000
531.476806,5107.421000,8660.409521,76.609550
531.477127,5181.441594,7550.100608,-612.876398
531.477447,5181.441594,6439.791695,0.000000
531.477768,5403.503377,6957.935855,459.657299
531.478088,5033.400406,8364.327145,153.219100
531.478409,4293.194464,8586.388927,-766.095498
531.478729,4959.379811,8512.368333,-766.095498
531.479049,6143.709319,8216.285956,229.828649
531.479370,6365.771101,7846.182985,1608.800546
531.479690,5107.421000,7550.100608,1532.190996
531.480011,4959.379811,8142.265362,459.657299
531.480331,5329.482782,7994.224174,-153.219100
531.480652,6217.729913,7550.100608,-459.657299
531.480972,7550.100608,7550.100608,-229.828649
531.481292,6735.874072,7994.224174,-1072.533697
531.481613,5773.606348,7994.224174,-766.095498
531.481933,5033.400406,7254.018232,-995.924147
531.482254,5773.606348,7105.977043,-612.876398
531.482574,7772.162391,7920.203579,536.266849
531.482895,6513.812290,8808.450710,0.000000
531.483215,4811.338623,8438.347739,-1838.629195
531.483536,5033.400406,8734.430116,-1838.629195
531.483856,5255.462188,8586.388927,-1072.533697
531.484176,5477.523971,8290.306550,0.000000
531.484497,6069.688724,7772.162391,153.219100
531.484817,3701.029710,7402.059420,-1455.581446
531.485138,3034.844362,7476.080014,-1915.238745
531.485458,4663.297435,9918.759623,689.485948
531.485779,3775.050304,10658.965565,1378.971896
531.486099,2886.803174,9696.697840,1225.752797
531.486419,3627.009116,9400.615463,766.095498
531.486740,3256.906145,8882.471304,-229.828649
531.487060,2812.782580,8586.388927,-612.876398
531.487381,2442.679609,7994.224174,76.609550
531.487701,2664.741391,7624.121203,-919.314598
531.488022,4219.173869,7624.121203,306.438199
531.488342,4959.379811,7994.224174,689.485948
531.488663,4959.379811,9400.615463,76.609550
531.488983,4219.173869,10066.800811,0.000000
531.489303,3256.906145,9474.636058,0.000000
531.489624,4589.276840,6735.874072,0.000000
531.489944,7698.141797,6365.771101,995.924147
531.490265,7105.977043,7846.182985,383.047749
531.490585,5107.421000,8216.285956,-1991.848295
531.490906,4515.256246,8216.285956,-2528.115143
531.491226,6365.771101,8438.347739,-383.047749
531.491546,7328.038826,7772.162391,1302.362347
531.491867,7402.059420,7254.018232,1838.629195
531.492187,6143.709319,8808.450710,0.000000
531.492508,3404.947333,7994.224174,-1455.581446
531.492828,4663.297435,7328.038826,-612.876398
531.493149,5995.668130,6365.771101,459.657299
531.493469,6069.688724,6217.729913,919.314598
531.493790,5033.400406,7772.162391,919.314598
531.494110,3923.091493,7920.203579,-995.924147
531.494430,4441.235652,7254.018232,-1608.800546
531.494751,5477.523971,7031.956449,766.095498
531.495071,6069.688724,7624.121203,1685.410096
531.495392,5255.462188,6365.771101,1072.533697
531.495712,6069.688724,6291.750507,1455.581446
531.496033,6439.791695,7476.080014,536.266849
531.496353,6957.935855,7476.080014,-1072.533697
531.496673,6143.709319,7031.956449,-2298.286494
531.496994,6513.812290,6883.915261,-2221.676944
531.497314,7031.956449,7031.956449,-612.876398
531.497635,7772.162391,7920.203579,536.266849
531.497955,6809.894666,8068.244768,459.657299
531.498276,4959.379811,8512.368333,-612.876398
531.498596,4737.318029,8216.285956,-612.876398
531.498917,5329.482782,7105.977043,-842.705048
531.499237,6217.729913,7105.977043,-459.657299
531.499557,5551.544565,8290.306550,0.000000
531.499878,2886.803174,7920.203579,-766.095498
531.500198,2220.617826,7698.141797,-1378.971896
531.500519,3330.926739,8734.430116,459.657299
531.500839,5477.523971,9770.718434,1149.143247
531.501160,4071.132681,9992.780217,-229.828649
531.501480,1850.514855,9400.615463,-1838.629195
531.501800,3034.844362,10066.800811,-306.438199
531.502121,3923.091493,9992.780217,1915.238745
531.502441,3849.070898,9400.615463,612.876398
531.502762,5033.400406,8364.327145,-1149.143247
531.503082,4071.132681,8660.409521,-2451.505594
531.503403,2886.803174,8364.327145,-995.924147
531.503723,4663.297435,8142.265362,689.485948
531.504044,6069.688724,7994.224174,1225.752797
531.504364,5033.400406,8512.368333,383.047749
531.504684,5033.400406,8734.430116,-612.876398
531.505005,4737.318029,7550.100608,-1302.362347
531.505325,5255.462188,7994.224174,-1225.752797
531.505646,6143.709319,8734.430116,153.219100
531.505966,5477.523971,8216.285956,-383.047749
531.506287,5551.544565,8142.265362,-1225.752797
531.506607,6217.729913,7476.080014,-1302.362347
531.506927,5699.585753,8068.244768,-1915.238745
531.507248,5255.462188,8364.327145,-842.705048
531.507568,3849.070898,9400.615463,-306.438199
531.507889,3849.070898,8068.244768,-459.657299
531.508209,4959.379811,7031.956449,306.438199
531.508530,5107.421000,8290.306550,1149.143247
531.508850,2812.782580,8956.491898,0.000000
531.509170,1554.432478,8956.491898,-689.485948
531.509491,3404.947333,8142.265362,-1072.533697
531.509811,4885.359217,6957.935855,-76.609550
531.510132,6587.832884,8216.285956,1915.238745
531.510452,5699.585753,9474.636058,1149.143247
531.510773,3108.864956,9326.594869,-612.876398
531.511093,3701.029710,7328.038826,-612.876398
531.511414,7031.956449,6809.894666,1302.362347
531.511734,7476.080014,7179.997637,1532.190996
531.512054,5995.668130,7254.018232,229.828649
531.512375,5033.400406,6809.894666,-1378.971896
531.512695,5625.565159,6439.791695,-1685.410096
531.513016,6957.935855,6069.688724,229.828649
531.513336,7179.997637,5847.626942,689.485948
531.513657,6809.894666,6735.874072,-1225.752797
531.513977,5403.503377,8438.347739,-1302.362347
531.514297,5995.668130,8216.285956,-153.219100
531.514618,7550.100608,7624.121203,0.000000
531.514938,7402.059420,7402.059420,-842.705048
531.515259,5329.482782,8512.368333,-1302.362347
531.515579,4145.153275,8660.409521,-1685.410096
531.515900,5181.441594,8290.306550,-536.266849
531.516220,5329.482782,7994.224174,612.876398
531.516541,4959.379811,8734.430116,383.047749
531.516861,3404.947333,9104.533087,-306.438199
531.517181,2294.638420,9326.594869,0.000000
531.517502,3256.906145,8438.347739,995.924147
531.517822,3923.091493,8142.265362,1225.752797
531.518143,3330.926739,7624.121203,612.876398
531.518463,2442.679609,8216.285956,0.000000
531.518784,3478.967927,8142.265362,536.266849
531.519104,4737.318029,8364.327145,1532.190996
531.519424,4663.297435,8142.265362,459.657299
531.519745,4145.153275,9400.615463,76.609550
531.520065,4071.132681,10584.944971,-306.438199
531.520386,4367.215058,9548.656652,76.609550
531.520706,7328.038826,7624.121203,0.000000
531.521027,7105.977043,7550.100608,0.000000
531.521347,5033.400406,7698.141797,-1225.752797
531.521668,4071.132681,8808.450710,-1225.752797
531.521988,4885.359217,8290.306550,-1302.362347
531.522308,6513.812290,7772.162391,0.000000
531.522629,7105.977043,7920.203579,0.000000
531.522949,4515.256246,7698.141797,-1225.752797
531.523270,2442.679609,8068.244768,-1915.238745
531.523590,3775.050304,8512.368333,-306.438199
531.523911,5255.462188,7994.224174,-383.047749
531.524231,5181.441594,8586.388927,-612.876398
531.524551,3478.967927,8290.306550,-1532.190996
531.524872,2590.720797,9326.594869,-2145.067394
531.525192,3108.864956,9548.656652,0.000000
531.525513,3775.050304,9178.553681,1378.971896
531.525833,4589.276840,7624.121203,995.924147
531.526154,4663.297435,7031.956449,689.485948
531.526474,3108.864956,7624.121203,0.000000
531.526795,3849.070898,8142.265362,76.609550
531.527115,5625.565159,7476.080014,229.828649
531.527435,5329.482782,7698.141797,-612.876398
531.527756,5625.565159,7254.018232,-995.924147
531.528076,6735.874072,7179.997637,-383.047749
531.528397,6809.894666,8438.347739,-536.266849
531.528717,6291.750507,8068.244768,0.000000
531.529038,6069.688724,7624.121203,-459.657299
531.529358,6365.771101,7254.018232,-689.485948
531.529678,7402.059420,7846.182985,-536.266849
531.529999,7179.997637,8364.327145,-229.828649
531.530319,6513.812290,8216.285956,-1378.971896
531.530640,5995.668130,8586.388927,-1838.629195
531.530960,4441.235652,7254.018232,-1149.143247
531.531281,5107.421000,7031.956449,306.438199
531.531601,6291.750507,8216.285956,1608.800546
531.531922,3775.050304,9252.574275,383.047749
531.532242,2664.741391,9178.553681,-76.609550
531.532562,3330.926739,8438.347739,0.000000
531.532883,3701.029710,8734.430116,842.705048
531.533203,4885.359217,8882.471304,1838.629195
531.533524,4367.215058,9104.533087,1685.410096
531.533844,2368.659014,8512.368333,0.000000
531.534165,3404.947333,7550.100608,-153.219100
531.534485,5181.441594,8290.306550,1838.629195
531.534805,5477.523971,9326.594869,1455.581446
531.535126,3997.112087,9030.512492,766.095498
531.535446,4071.132681,8882.471304,-536.266849
531.535767,5329.482782,7846.182985,0.000000
531.536087,5403.503377,7105.977043,919.314598
531.536408,6661.853478,7846.182985,459.657299
531.536728,5847.626942,7994.224174,-919.314598
531.537049,3627.009116,6809.894666,-1378.971896
531.537369,4885.359217,6809.894666,0.000000
531.537689,6587.832884,7994.224174,919.314598
531.538010,4589.276840,7254.018232,153.219100
531.538330,4737.318029,7179.997637,-1608.800546
531.538651,5995.668130,6439.791695,-1915.238745
531.538971,4737.318029,6661.853478,-1762.019645
531.539292,5773.606348,7698.141797,-919.314598
531.539612,5403.503377,8808.450710,-306.438199
531.539932,4663.297435,8808.450710,-306.438199
531.540253,5181.441594,8512.368333,229.828649
531.540573,5033.400406,7698.141797,229.828649
531.540894,4367.215058,8068.244768,-383.047749
531.541214,3849.070898,9326.594869,306.438199
531.541535,2294.638420,8438.347739,612.876398
531.541855,4293.194464,7105.977043,383.047749
531.542176,6365.771101,6365.771101,1302.362347
531.542496,4663.297435,7550.100608,153.219100
531.542816,3404.947333,8882.471304,-689.485948
531.543137,3034.844362,9326.594869,-842.705048
531.543457,4293.194464,8808.450710,383.047749
531.543778,6883.915261,7772.162391,1915.238745
531.544098,7254.018232,9030.512492,1838.629195
531.544419,4441.235652,10732.986159,0.000000
531.544739,2442.679609,9844.739029,-1915.238745
531.545059,4737.318029,9252.574275,-1455.581446
531.545380,6365.771101,7698.141797,-1072.533697
531.545700,7105.977043,8216.285956,536.266849
531.546021,5625.565159,9178.553681,459.657299
531.546341,3478.967927,9696.697840,-1378.971896
531.546662,3849.070898,8808.450710,-459.657299
531.546982,5403.503377,7402.059420,995.924147
531.547303,6291.750507,6883.915261,1378.971896
531.547623,5255.462188,7920.203579,1149.143247
531.547943,4219.173869,7920.203579,-612.876398
531.548264,4885.359217,7402.059420,-1149.143247
531.548584,6291.750507,8290.306550,-919.314598
531.548905,5995.668130,7105.977043,0.000000
531.549225,6439.791695,6661.853478,0.000000
531.549546,6439.791695,7031.956449,-153.219100
531.549866,6365.771101,7105.977043,0.000000
531.550186,5921.647536,7772.162391,-76.609550
531.550507,5699.585753,7105.977043,-995.924147
531.550827,5329.482782,6587.832884,-1378.971896
531.551148,5847.626942,6661.853478,-842.705048
531.551468,7105.977043,7476.080014,-459.657299
531.551789,5181.441594,7698.141797,-459.657299
531.552109,4811.338623,8216.285956,-995.924147
531.552430,3404.947333,7254.018232,-995.924147
531.552750,4515.256246,7624.121203,0.000000
531.553070,5921.647536,7698.141797,1378.971896
531.553391,4219.173869,9030.512492,459.657299
531.553711,2886.803174,9178.553681,-919.314598
531.554032,2812.782580,8586.388927,-612.876398
531.554352,3478.967927,7476.080014,76.609550
531.554673,5921.647536,8068.244768,842.705048
531.554993,5773.606348,8660.409521,612.876398
531.555313,3256.906145,8142.265362,-1532.190996
531.555634,2516.700203,7624.121203,-1072.533697
531.555954,5773.606348,8586.388927,919.314598
531.556275,6143.709319,8290.306550,1762.019645
531.556595,6365.771101,7920.203579,842.705048
531.556916,6809.894666,7550.100608,-766.095498
531.557236,5329.482782,7550.100608,-1991.848295
531.557557,6291.750507,7698.141797,-306.438199
531.557877,7179.997637,8734.430116,459.657299
531.558197,7179.997637,8512.368333,-689.485948
531.558518,7328.038826,7920.203579,-689.485948
531.558838,7031.956449,8068.244768,-306.438199
531.559159,5181.441594,7846.182985,-306.438199
531.559479,4959.379811,8586.388927,536.266849
531.559800,3997.112087,9178.553681,383.047749
531.560120,4663.297435,9178.553681,153.219100
531.560440,5181.441594,8364.327145,459.657299
531.560761,5329.482782,8142.265362,0.000000
531.561081,3330.926739,9178.553681,-842.705048
531.561402,1184.329507,10584.944971,-76.609550
531.561722,1702.473667,9992.780217,459.657299
531.562043,2812.782580,8068.244768,1455.581446
531.562363,5107.421000,8734.430116,2757.943793
531.562684,3478.967927,9252.574275,1915.238745
531.563004,962.267725,9178.553681,-153.219100
531.563324,1554.432478,8290.306550,-919.314598
531.563645,4441.235652,6883.915261,-306.438199
531.563965,6291.750507,6735.874072,1149.143247
531.564286,6439.791695,6661.853478,919.314598
531.564606,4441.235652,7105.977043,-536.266849
531.564927,4441.235652,7328.038826,-1455.581446
531.565247,6809.894666,7105.977043,-612.876398
531.565567,8586.388927,6513.812290,-383.047749
531.565888,8142.265362,6735.874072,-536.266849
531.566208,7328.038826,6809.894666,-612.876398
531.566529,6735.874072,6143.709319,-842.705048
531.566849,7550.100608,6217.729913,-1225.752797
531.567170,6957.935855,5625.565159,-1225.752797
531.567490,6513.812290,6143.709319,-1455.581446
531.567811,7254.018232,6809.894666,-766.095498
531.568131,6587.832884,7920.203579,-153.219100
531.568451,5625.565159,7698.141797,153.219100
531.568772,5921.647536,7105.977043,-536.266849
531.569092,5033.400406,7031.956449,-995.924147
531.569413,3108.864956,7328.038826,-153.219100
531.569733,4367.215058,7328.038826,689.485948
531.570054,5625.565159,9178.553681,995.924147
531.570374,4441.235652,9548.656652,-306.438199
531.570694,3552.988522,9696.697840,-919.314598
531.571015,4071.132681,9400.615463,-612.876398
531.571335,5033.400406,9030.512492,0.000000
531.571656,5477.523971,9474.636058,1685.410096
531.571976,5033.400406,8512.368333,766.095498
531.572297,3997.112087,7994.224174,0.000000
531.572617,4071.132681,7105.977043,766.095498
531.572937,5921.647536,7994.224174,842.705048
531.573258,6069.688724,8660.409521,689.485948
531.573578,4589.276840,8512.368333,-1455.581446
531.573899,4959.379811,8142.265362,-2451.505594
531.574219,6069.688724,7994.224174,-766.095498
531.574540,7402.059420,8956.491898,1378.971896
531.574860,7179.997637,9400.615463,612.876398
531.575181,5255.462188,9474.636058,-1762.019645
531.575501,4663.297435,9548.656652,-2451.505594
531.575821,5403.503377,7772.162391,-1302.362347
531.576142,6217.729913,7402.059420,-383.047749
531.576462,5773.606348,8586.388927,-612.876398
531.576783,4145.153275,8956.491898,-1685.410096
531.577103,3552.988522,9030.512492,-2221.676944
531.577424,4293.194464,7772.162391,-459.657299
531.577744,3849.070898,7402.059420,1455.581446
531.578065,3182.885551,8438.347739,2145.067394
531.578385,2886.803174,9474.636058,459.657299
531.578706,1332.370696,9252.574275,0.000000
531.579027,4219.173869,7846.182985,919.314598
531.579347,5921.647536,6957.935855,995.924147
531.579668,3404.947333,6587.832884,0.000000
531.579988,2516.700203,6513.812290,-995.924147
531.580309,4515.256246,7105.977043,229.828649
531.580630,5995.668130,7772.162391,612.876398
531.580950,6513.812290,9252.574275,383.047749
531.581271,5921.647536,7994.224174,-689.485948
531.581591,4811.338623,7328.038826,-2221.676944
531.581912,5477.523971,6809.894666,-459.657299
531.582233,5995.668130,5921.647536,306.438199
531.582553,7550.100608,6661.853478,-536.266849
531.582874,6587.832884,8290.306550,-1378.971896
531.583195,4515.256246,8438.347739,-2068.457845
531.583515,5699.585753,8956.491898,-1225.752797
531.583836,6809.894666,8512.368333,0.000000
531.584156,4959.379811,8438.347739,1072.533697
531.584477,3923.091493,6883.915261,1225.752797
531.584798,4515.256246,7105.977043,459.657299
531.585118,3997.112087,7550.100608,842.705048
531.585439,4367.215058,7994.224174,0.000000
531.585760,4663.297435,9326.594869,-766.095498
531.586080,3627.009116,8734.430116,-766.095498
531.586401,4145.153275,8660.409521,1455.581446
531.586721,5181.441594,8142.265362,2374.896044
531.587042,5995.668130,7772.162391,1302.362347
531.587363,5181.441594,8364.327145,0.000000
531.587683,3627.009116,8216.285956,-1149.143247
531.588004,5477.523971,7994.224174,-229.828649
531.588324,7920.203579,8142.265362,1149.143247
531.588645,7328.038826,8142.265362,306.438199
531.588966,5699.585753,7920.203579,-1225.752797
531.589286,5477.523971,8142.265362,-2068.457845
531.589607,4441.235652,6365.771101,-1455.581446
531.589928,6365.771101,5625.565159,306.438199
531.590248,7328.038826,7031.956449,842.705048
531.590569,5995.668130,8808.450710,-689.485948
531.590889,4663.297435,9844.739029,-842.705048
531.591210,4885.359217,8216.285956,-1685.410096
531.591531,5773.606348,7550.100608,-1762.019645
531.591851,5329.482782,8068.244768,0.000000
531.592172,3478.967927,8956.491898,-536.266849
531.592493,2886.803174,9104.533087,-842.705048
531.592813,3627.009116,8660.409521,-1072.533697
531.593134,4811.338623,9104.533087,0.000000
531.593454,3627.009116,10140.821405,76.609550
531.593775,2368.659014,10436.903782,-229.828649
531.594096,1998.556043,9104.533087,-306.438199
531.594416,3182.885551,8290.306550,1072.533697
531.594737,4367.215058,7994.224174,1455.581446
531.595057,2590.720797,7920.203579,1072.533697
531.595378,1776.494261,7550.100608,-229.828649
531.595699,3775.050304,8290.306550,76.609550
531.596019,4959.379811,8142.265362,306.438199
531.596340,6661.853478,7920.203579,153.219100
531.596661,6587.832884,9474.636058,-153.219100
531.596981,5107.421000,10066.800811,-842.705048
531.597302,4959.379811,9030.512492,-1225.752797
531.597622,7624.121203,7550.100608,-383.047749
531.597943,7994.224174,7105.977043,-306.438199
531.598264,5699.585753,7846.182985,-766.095498
531.598584,3404.947333,8586.388927,-1378.971896
531.598905,3997.112087,8512.368333,-1608.800546
531.599225,5625.565159,7402.059420,0.000000
531.599546,6809.894666,7254.018232,919.314598
531.599867,4885.359217,7328.038826,0.000000
531.600187,2516.700203,7624.121203,-995.924147
531.600508,2664.741391,8438.347739,76.609550
531.600829,4959.379811,9104.533087,1455.581446
531.601149,5403.503377,8586.388927,689.485948
531.601470,4885.359217,9178.553681,-153.219100
531.601790,3627.009116,8734.430116,-1072.533697
531.602111,3923.091493,8438.347739,0.000000
531.602432,4737.318029,7624.121203,1762.019645
531.602752,4737.318029,7179.997637,1072.533697
531.603073,4737.318029,7698.141797,-459.657299
531.603394,4293.194464,6513.812290,-1378.971896
531.603714,4811.338623,6439.791695,-1225.752797
531.604035,6587.832884,7550.100608,689.485948
531.604355,4885.359217,7994.224174,0.000000
531.604676,4219.173869,6883.915261,-766.095498
531.604997,6217.729913,5995.668130,-536.266849
531.605317,6661.853478,7772.162391,766.095498
531.605638,6809.894666,9548.656652,536.266849
531.605958,5033.400406,9326.594869,-1838.629195
531.606279,5921.647536,8364.327145,-2757.943793
531.606600,7031.956449,7031.956449,0.000000
531.606920,7476.080014,6735.874072,1608.800546
531.607241,6587.832884,7698.141797,536.266849
531.607562,4219.173869,8290.306550,-1455.581446
531.607882,3108.864956,6957.935855,-2298.286494
531.608203,5921.647536,6809.894666,0.000000
531.608523,6513.812290,7254.018232,1149.143247
531.608844,5403.503377,8512.368333,459.657299
531.609165,4293.194464,9178.553681,-1072.533697
531.609485,3627.009116,9622.677246,-1072.533697
531.609806,4071.132681,9400.615463,0.000000
531.610127,5329.482782,9400.615463,536.266849
531.610447,4663.297435,9400.615463,0.000000
531.610768,2738.761985,10140.821405,-229.828649
531.611088,3108.864956,9178.553681,306.438199
531.611409,3923.091493,8142.265362,459.657299
531.611730,4811.338623,8216.285956,0.000000
531.612050,3627.009116,8882.471304,-612.876398
531.612371,1702.473667,9770.718434,-995.924147
531.612691,3108.864956,9474.636058,383.047749
531.613012,5255.462188,7994.224174,1149.143247
531.613333,5033.400406,8142.265362,383.047749
531.613653,4071.132681,9474.636058,-383.047749
531.613974,2442.679609,10362.883188,-1532.190996
531.614295,3256.906145,9844.739029,-995.924147
531.614615,5921.647536,9326.594869,383.047749
531.614936,6365.771101,9104.533087,1149.143247
531.615256,3256.906145,8216.285956,-536.266849
531.615577,3034.844362,7920.203579,-306.438199
531.615898,4367.215058,8512.368333,306.438199
531.616218,5995.668130,7772.162391,306.438199
531.616539,6587.832884,7328.038826,-306.438199
531.616859,5625.565159,6883.915261,-1532.190996
531.617180,3404.947333,5847.626942,-919.314598
531.617501,4811.338623,5921.647536,1532.190996
531.617821,6365.771101,7624.121203,1378.971896
531.618142,5477.523971,7920.203579,0.000000
531.618463,5329.482782,7254.018232,-1225.752797
531.618783,6957.935855,7624.121203,-1149.143247
531.619104,5995.668130,8068.244768,-995.924147
531.619424,6143.709319,7328.038826,-306.438199
531.619745,6883.915261,7031.956449,76.609550
531.620066,5921.647536,6661.853478,-306.438199
531.620386,5625.565159,6735.874072,459.657299
531.620707,5403.503377,6291.750507,0.000000
531.621028,5625.565159,6883.915261,-1072.533697
531.621348,4959.379811,9400.615463,-306.438199
531.621669,3923.091493,8808.450710,536.266849
531.621989,6365.771101,7105.977043,-1072.533697
531.622310,7772.162391,6587.832884,-306.438199
531.622631,5255.462188,7105.977043,-689.485948
531.622951,3701.029710,8660.409521,-689.485948
531.623272,3108.864956,9992.780217,-612.876398
531.623592,4737.318029,9474.636058,0.000000
531.623913,7105.977043,8216.285956,2145.067394
531.624234,7105.977043,8364.327145,2451.505594
531.624554,3997.112087,9400.615463,-76.609550
531.624875,1554.432478,8068.244768,-1378.971896
531.625196,3256.906145,6069.688724,-1915.238745
531.625516,6439.791695,5403.503377,-383.047749
531.625837,6513.812290,7550.100608,1762.019645
531.626157,5477.523971,9548.656652,1149.143247
531.626478,4367.215058,9474.636058,-1225.752797
531.626799,4515.256246,9844.739029,-1608.800546
531.627119,5551.544565,9104.533087,-229.828649
531.627440,6291.750507,7846.182985,229.828649
531.627761,5329.482782,7846.182985,0.000000
531.628081,4737.318029,8882.471304,-1225.752797
531.628402,5033.400406,8882.471304,-1455.581446
531.628722,4293.194464,8660.409521,-1302.362347
531.629043,5033.400406,8290.306550,-229.828649
531.629364,4589.276840,8142.265362,383.047749
531.629684,4589.276840,8142.265362,0.000000
531.630005,4663.297435,8364.327145,153.219100
531.630325,4441.235652,9326.594869,383.047749
531.630646,4219.173869,8808.450710,383.047749
531.630967,3849.070898,7994.224174,-536.266849
531.631287,4219.173869,8216.285956,-919.314598
531.631608,4885.359217,9178.553681,-689.485948
531.631929,3404.947333,9326.594869,-383.047749
531.632249,3997.112087,9918.759623,-842.705048
531.632570,4737.318029,9104.533087,612.876398
531.632890,4367.215058,7402.059420,306.438199
531.633211,6439.791695,7550.100608,1685.410096
531.633532,4441.235652,7772.162391,1762.019645
531.633852,2072.576638,6809.894666,536.266849
531.634173,5033.400406,5921.647536,919.314598
531.634494,7105.977043,5625.565159,0.000000
531.634814,7476.080014,7031.956449,-306.438199
531.635135,6809.894666,7624.121203,-1149.143247
531.635455,4885.359217,8068.244768,-2451.505594
531.635776,5551.544565,6883.915261,-689.485948
531.636097,7994.224174,6439.791695,1838.629195
531.636417,9030.512492,7179.997637,1302.362347
531.636738,5699.585753,8290.306550,-1149.143247
531.637058,4219.173869,8734.430116,-2374.896044
531.637379,5181.441594,9104.533087,-842.705048
531.637700,6661.853478,7105.977043,383.047749
531.638020,6513.812290,6587.832884,689.485948
531.638341,5033.400406,7550.100608,-919.314598
531.638662,2220.617826,7994.224174,-2221.676944
531.638982,1776.494261,9178.553681,229.828649
531.639303,3627.009116,8808.450710,2451.505594
531.639623,4737.318029,8660.409521,2604.724693
531.639944,4071.132681,8808.450710,1915.238745
531.640265,1924.535449,9030.512492,-153.219100
531.640585,2664.741391,8808.450710,-842.705048
531.640906,4441.235652,7994.224174,459.657299
531.641226,4663.297435,7254.018232,306.438199
531.641547,4145.153275,6661.853478,612.876398
531.641868,5625.565159,7846.182985,383.047749
531.642188,6365.771101,9474.636058,0.000000
531.642509,5699.585753,9992.780217,-459.657299
531.642830,5773.606348,9104.533087,-1225.752797
531.643150,6513.812290,6661.853478,-1685.410096
531.643471,7105.977043,5403.503377,0.000000
531.643791,8808.450710,5921.647536,383.047749
531.644112,7105.977043,7105.977043,-766.095498
531.644433,5477.523971,8290.306550,-2834.553343
531.644753,4885.359217,8216.285956,-2451.505594
531.645074,7031.956449,7846.182985,-306.438199
531.645395,8364.327145,8364.327145,1532.190996
531.645715,6809.894666,9474.636058,842.705048
531.646036,4219.173869,9696.697840,-1225.752797
531.646356,3034.844362,7550.100608,-1455.581446
531.646677,3627.009116,6143.709319,-383.047749
531.646998,5255.462188,6217.729913,919.314598
531.647318,4663.297435,8364.327145,689.485948
531.647639,2960.823768,9252.574275,-306.438199
531.647959,2886.803174,9696.697840,-1225.752797
531.648280,4441.235652,9104.533087,229.828649
531.648601,4663.297435,8660.409521,1149.143247
531.648921,5921.647536,8512.368333,1532.190996
531.649242,4589.276840,8882.471304,76.609550
531.649563,3775.050304,8512.368333,-612.876398
531.649883,5033.400406,7698.141797,0.000000
531.650204,6809.894666,7402.059420,-459.657299
531.650524,5551.544565,7698.141797,-612.876398
531.650845,5403.503377,7698.141797,-919.314598
531.651166,6217.729913,7772.162391,-919.314598
531.651486,6883.915261,7624.121203,76.609550
531.651807,6735.874072,7994.224174,842.705048
531.652128,7031.956449,7920.203579,536.266849
531.652448,5773.606348,7254.018232,-536.266849
531.652769,4737.318029,6513.812290,-1072.533697
531.653089,6513.812290,8364.327145,-1302.362347
531.653410,5699.585753,9030.512492,-1455.581446
531.653731,4367.215058,8956.491898,-1532.190996
531.654051,5847.626942,7846.182985,-919.314598
531.654372,4885.359217,8290.306550,-459.657299
531.654692,4441.235652,8734.430116,153.219100
531.655013,3404.947333,9548.656652,1455.581446
531.655334,2072.576638,9326.594869,536.266849
531.655654,2960.823768,9104.533087,1072.533697
531.655975,3627.009116,8216.285956,1302.362347
531.656296,3997.112087,7402.059420,0.000000
531.656616,2812.782580,7550.100608,-459.657299
531.656937,2294.638420,7624.121203,306.438199
531.657257,2960.823768,7402.059420,153.219100
531.657578,5181.441594,7328.038826,1072.533697
531.657899,5551.544565,7994.224174,459.657299
531.658219,5403.503377,9326.594869,-229.828649
531.658540,4589.276840,8364.327145,-689.485948
531.658861,4959.379811,7105.977043,-306.438199
531.659181,6809.894666,5181.441594,76.609550
531.659502,7846.182985,6661.853478,76.609550
531.659822,6587.832884,9252.574275,-1302.362347
531.660143,5181.441594,8660.409521,-3064.381992
531.660464,6365.771101,7994.224174,-2528.115143
531.660784,8068.244768,7476.080014,-536.266849
531.661105,7105.977043,7624.121203,1302.362347
531.661425,5255.462188,7698.141797,1302.362347
531.661746,4367.215058,7328.038826,-306.438199
531.662067,4145.153275,6957.935855,-689.485948
531.662387,4959.379811,7179.997637,919.314598
531.662708,5625.565159,8512.368333,0.000000
531.663029,4811.338623,9030.512492,-76.609550
531.663349,4145.153275,8660.409521,-536.266849
531.663670,5551.544565,8438.347739,76.609550
531.663990,5033.400406,8290.306550,1838.629195
531.664311,2960.823768,7994.224174,1455.581446
531.664632,3404.947333,7920.203579,689.485948
531.664952,4515.256246,7698.141797,229.828649
531.665273,5847.626942,7994.224174,229.828649
531.665593,6365.771101,8586.388927,612.876398
531.665914,6069.688724,8808.450710,-842.705048
531.666235,3997.112087,7698.141797,-1762.019645
531.666555,4737.318029,6735.874072,-1225.752797
531.666876,6809.894666,6735.874072,536.266849
531.667197,7328.038826,7476.080014,919.314598
531.667517,5551.544565,9400.615463,-306.438199
531.667838,5403.503377,9622.677246,-1762.019645
531.668158,5403.503377,8216.285956,-1532.190996
531.668479,6513.812290,7254.018232,612.876398
531.668800,6291.750507,7179.997637,0.000000
531.669120,4293.194464,7476.080014,-919.314598
531.669441,3701.029710,7920.203579,-1455.581446
531.669762,5995.668130,7476.080014,-306.438199
531.670082,6365.771101,6957.935855,0.000000
531.670403,5551.544565,7402.059420,459.657299
531.670723,4367.215058,9400.615463,0.000000
531.671044,3552.988522,9622.677246,-842.705048
531.671365,3701.029710,7179.997637,0.000000
531.671685,7476.080014,6217.729913,612.876398
531.672006,5625.565159,6809.894666,153.219100
531.672326,2886.803174,7476.080014,-1072.533697
531.672647,3404.947333,8216.285956,0.000000
531.672968,4885.359217,9178.553681,919.314598
531.673288,5403.503377,8512.368333,536.266849
531.673609,5699.585753,9474.636058,229.828649
531.673930,4219.173869,9548.656652,-1149.143247
531.674250,3034.844362,9400.615463,-1302.362347
531.674571,4737.318029,7846.182985,536.266849
531.674891,5551.544565,7179.997637,0.000000
531.675212,5033.400406,8364.327145,0.000000
531.675533,3404.947333,8438.347739,-536.266849
531.675853,3256.906145,9030.512492,-1302.362347
531.676174,5181.441594,9622.677246,-766.095498
531.676495,4737.318029,8586.388927,383.047749
531.676815,3627.009116,7179.997637,536.266849
531.677136,3849.070898,7254.018232,689.485948
531.677456,3923.091493,9104.533087,612.876398
531.677777,4293.194464,9548.656652,-459.657299
531.678098,5181.441594,8734.430116,-1762.019645
531.678418,5107.421000,8882.471304,-1762.019645
531.678739,5403.503377,9104.533087,0.000000
531.679060,5477.523971,8808.450710,1838.629195
531.679380,6439.791695,8438.347739,1532.190996
531.679701,4959.379811,7846.182985,-76.609550
531.680022,3404.947333,7179.997637,-766.095498
531.680342,4219.173869,6957.935855,-306.438199
531.680663,6365.771101,6883.915261,766.095498
531.680984,6661.853478,7772.162391,919.314598
531.681304,5921.647536,8512.368333,0.000000
531.681625,4071.132681,7550.100608,-1378.971896
531.681945,3849.070898,6957.935855,-1072.533697
531.682266,4737.318029,6883.915261,612.876398
531.682587,5625.565159,7772.162391,995.924147
531.682907,5033.400406,8290.306550,-306.438199
531.683228,3701.029710,8364.327145,-1225.752797
531.683549,5033.400406,8364.327145,-1149.143247
531.683869,6217.729913,7772.162391,-536.266849
531.684190,5181.441594,8216.285956,-383.047749
531.684511,4737.318029,8068.244768,-842.705048
531.684831,4145.153275,7328.038826,-766.095498
531.685152,4663.297435,6809.894666,0.000000
531.685473,6513.812290,7254.018232,689.485948
531.685793,5773.606348,7476.080014,459.657299
531.686114,3997.112087,8142.265362,-612.876398
531.686435,4367.215058,7550.100608,-1149.143247
531.686755,4959.379811,7476.080014,-383.047749
531.687076,6365.771101,7624.121203,766.095498
531.687397,6069.688724,7476.080014,995.924147
531.687717,6291.750507,7550.100608,-459.657299
531.688038,5329.482782,6809.894666,-1455.581446
531.688358,4959.379811,6365.771101,-1149.143247
531.688679,6217.729913,8364.327145,0.000000
531.689000,5699.585753,9992.780217,1302.362347
531.689320,4959.379811,8660.409521,306.438199
531.689641,7105.977043,7105.977043,-1302.362347
531.689962,6365.771101,7772.162391,-1762.019645
531.690282,4515.256246,8438.347739,-1149.143247
531.690603,3775.050304,8882.471304,0.000000
531.690924,2960.823768,8364.327145,-153.219100
531.691244,4219.173869,8586.388927,306.438199
531.691565,5107.421000,9918.759623,1685.410096
531.691886,3108.864956,9474.636058,229.828649
531.692206,2368.659014,9918.759623,-995.924147
531.692527,2812.782580,9252.574275,229.828649
531.692848,3404.947333,8882.471304,-229.828649
531.693168,4885.359217,8512.368333,0.000000
531.693489,4515.256246,8438.347739,-153.219100
531.693809,4145.153275,9178.553681,-1149.143247
531.694130,3997.112087,9326.594869,-306.438199
531.694451,4145.153275,8882.471304,229.828649
531.694771,4885.359217,7846.182985,229.828649
531.695092,5329.482782,7698.141797,1302.362347
531.695413,4885.359217,8364.327145,842.705048
531.695733,4219.173869,7698.141797,-766.095498
531.696054,5921.647536,7105.977043,-1838.629195
531.696375,6365.771101,7476.080014,-1532.190996
531.696695,5921.647536,7920.203579,-306.438199
531.697016,5773.606348,8216.285956,536.266849
531.697337,5921.647536,7179.997637,536.266849
531.697657,5699.585753,6883.915261,-383.047749
531.697978,5921.647536,7476.080014,-306.438199
531.698299,4589.276840,7920.203579,-1149.143247
531.698619,4959.379811,7476.080014,-995.924147
531.698940,5477.523971,7994.224174,0.000000
531.699261,5995.668130,8512.368333,-229.828649
531.699581,4441.235652,8512.368333,0.000000
531.699902,3256.906145,8734.430116,-612.876398
531.700222,3108.864956,8364.327145,-842.705048
531.700543,4071.132681,7328.038826,842.705048
531.700864,5921.647536,6735.874072,1608.800546
531.701184,5625.565159,7846.182985,1149.143247
531.701505,3775.050304,8142.265362,153.219100
531.701826,3552.988522,6735.874072,-1072.533697
531.702146,5551.544565,6291.750507,-995.924147
531.702467,7550.100608,6735.874072,536.266849
531.702788,6957.935855,7920.203579,766.095498
531.703108,6143.709319,7698.141797,-1302.362347
531.703429,6143.709319,7105.977043,-2451.505594
531.703750,7031.956449,7328.038826,-229.828649
531.704070,7624.121203,8364.327145,1225.752797
531.704391,6143.709319,9252.574275,0.000000
531.704712,5255.462188,8216.285956,-1532.190996
531.705032,5551.544565,7105.977043,-1915.238745
531.705353,5995.668130,7328.038826,842.705048
531.705673,5995.668130,8142.265362,1608.800546
531.705994,4515.256246,9030.512492,76.609550
531.706315,2146.597232,7920.203579,-1762.019645
531.706635,4219.173869,8882.471304,-1378.971896
531.706956,4441.235652,9030.512492,1838.629195
531.707277,3478.967927,8512.368333,1915.238745
531.707597,4367.215058,9474.636058,612.876398
531.707918,2664.741391,9474.636058,-919.314598
531.708239,2516.700203,9104.533087,-919.314598
531.708559,4515.256246,9992.780217,919.314598
531.708880,3997.112087,9770.718434,-306.438199
531.709201,3256.906145,10140.821405,-1685.410096
531.709521,3627.009116,9622.677246,-919.314598
531.709842,5403.503377,7920.203579,-229.828649
531.710163,5773.606348,8142.265362,1149.143247
531.710483,4441.235652,7624.121203,1915.238745
531.710804,4219.173869,7994.224174,-153.219100
531.711125,4811.338623,7328.038826,-459.657299
531.711445,5921.647536,6809.894666,-306.438199
531.711766,7846.182985,7031.956449,-536.266849
531.712086,7328.038826,7254.018232,-766.095498
531.712407,5033.400406,7846.182985,-1762.019645
531.712728,5255.462188,7254.018232,-842.705048
531.713048,6661.853478,6957.935855,229.828649
531.713369,6661.853478,8364.327145,459.657299
531.713690,4959.379811,9178.553681,-153.219100
531.714010,4441.235652,8586.388927,-1455.581446
531.714331,4663.297435,7550.100608,-995.924147
531.714652,4737.318029,7698.141797,0.000000
531.714972,4885.359217,8660.409521,1072.533697
531.715293,3404.947333,8734.430116,0.000000
531.715614,2886.803174,7698.141797,0.000000
531.715934,4811.338623,7031.956449,766.095498
531.716255,4589.276840,6439.791695,1532.190996
531.716576,5551.544565,7328.038826,689.485948
531.716896,4737.318029,7624.121203,-229.828649
531.717217,4367.215058,7476.080014,-995.924147
531.717538,5995.668130,8142.265362,-459.657299
531.717858,7031.956449,8216.285956,-153.219100
531.718179,5995.668130,7772.162391,-1378.971896
531.718499,5551.544565,8660.409521,-1532.190996
531.718820,6587.832884,8216.285956,-995.924147
531.719141,7772.162391,7402.059420,-153.219100
531.719461,8290.306550,7254.018232,842.705048
531.719782,5995.668130,7550.100608,229.828649
531.720103,4441.235652,7846.182985,-383.047749
531.720423,4663.297435,7254.018232,76.609550
531.720744,7031.956449,7105.977043,536.266849
531.721065,6957.935855,6957.935855,383.047749
531.721385,5625.565159,6809.894666,229.828649
531.721706,4663.297435,7698.141797,-689.485948
531.722027,3849.070898,8290.306550,-612.876398
531.722347,5033.400406,8734.430116,689.485948
531.722668,6069.688724,9326.594869,842.705048
531.722989,4071.132681,9400.615463,0.000000
531.723309,3034.844362,9696.697840,-306.438199
531.723630,3108.864956,8586.388927,229.828649
531.723950,4441.235652,7846.182985,0.000000
531.724271,3997.112087,7550.100608,383.047749
531.724592,4441.235652,7624.121203,-306.438199
531.724912,4663.297435,7105.977043,-1532.190996
531.725233,4589.276840,6809.894666,153.219100
531.725554,5773.606348,8216.285956,1455.581446
531.725874,5551.544565,9622.677246,0.000000
531.726195,3923.091493,8364.327145,-766.095498
531.726516,5995.668130,6809.894666,-1225.752797
531.726836,6809.894666,6735.874072,-766.095498
531.727157,4663.297435,6735.874072,-1225.752797
531.727478,5033.400406,8216.285956,-1532.190996
531.727798,5625.565159,9696.697840,-995.924147
531.728119,6069.688724,9400.615463,-919.314598
531.728440,7105.977043,9326.594869,76.609550
531.728760,5847.626942,8512.368333,-153.219100
531.729081,2664.741391,7994.224174,-766.095498
531.729402,2294.638420,7402.059420,612.876398
531.729722,4811.338623,6809.894666,229.828649
531.730043,5551.544565,8068.244768,-229.828649
531.730363,4515.256246,8808.450710,-383.047749
531.730684,2442.679609,9844.739029,-1762.019645
531.731005,2664.741391,10362.883188,-995.924147
531.731325,3552.988522,9992.780217,919.314598
531.731646,4219.173869,8586.388927,766.095498
531.731967,4737.318029,7698.141797,1149.143247
531.732287,3701.029710,8586.388927,1378.971896
531.732608,2368.659014,9474.636058,306.438199
531.732929,3997.112087,8808.450710,-612.876398
531.733249,6143.709319,8290.306550,-1302.362347
531.733570,6291.750507,8142.265362,-766.095498
531.733891,6661.853478,8142.265362,76.609550
531.734211,6513.812290,7476.080014,153.219100
531.734532,6587.832884,7254.018232,-383.047749
531.734853,6439.791695,7179.997637,-383.047749
531.735173,5699.585753,8364.327145,-153.219100
531.735494,6069.688724,8216.285956,-306.438199
531.735814,6735.874072,7920.203579,76.609550
531.736135,7179.997637,8068.244768,306.438199
531.736456,6069.688724,7698.141797,76.609550
531.736776,4663.297435,7476.080014,-229.828649
531.737097,3404.947333,6143.709319,-306.438199
531.737418,4441.235652,5551.544565,919.314598
531.737738,5921.647536,7105.977043,1072.533697
531.738059,4811.338623,8734.430116,689.485948
531.738380,3627.009116,9770.718434,0.000000
531.738700,4293.194464,9400.615463,-1149.143247
531.739021,4589.276840,7772.162391,-459.657299
531.739342,5403.503377,6809.894666,689.485948
531.739662,5033.400406,7179.997637,306.438199
531.739983,3775.050304,8808.450710,-459.657299
531.740304,3478.967927,8586.388927,-1838.629195
531.740624,5255.462188,7624.121203,-842.705048
531.740945,7031.956449,7624.121203,0.000000
531.741266,6809.894666,8586.388927,919.314598
531.741586,4959.379811,8364.327145,689.485948
531.741907,4885.359217,6661.853478,0.000000
531.742227,6957.935855,5699.585753,459.657299
531.742548,8438.347739,5551.544565,995.924147
531.742869,6957.935855,6143.709319,-306.438199
531.743189,5329.482782,6365.771101,-1762.019645
531.743510,6365.771101,8290.306550,-2221.676944
531.743831,7179.997637,7994.224174,-536.266849
531.744151,7328.038826,7254.018232,383.047749
531.744472,7846.182985,7698.141797,383.047749
531.744793,4589.276840,8364.327145,-612.876398
531.745113,2886.803174,8512.368333,-1225.752797
531.745434,3923.091493,7994.224174,-229.828649
531.745755,5033.400406,8364.327145,-229.828649
531.746075,3849.070898,8956.491898,0.000000
531.746396,2812.782580,9178.553681,-536.266849
531.746717,1924.535449,8882.471304,-2068.457845
531.747037,2590.720797,9622.677246,0.000000
531.747358,2368.659014,10066.800811,2221.676944
531.747678,2368.659014,10066.800811,766.095498
531.747999,3182.885551,9548.656652,0.000000
531.748320,3701.029710,9844.739029,-153.219100
531.748640,4589.276840,10066.800811,-689.485948
531.748961,3997.112087,9918.759623,-689.485948
531.749282,3997.112087,9992.780217,-612.876398
531.749602,4145.153275,8808.450710,0.000000
531.749923,5255.462188,7846.182985,842.705048
531.750244,6439.791695,8586.388927,1225.752797
531.750564,4737.318029,8438.347739,-76.609550
531.750885,3849.070898,9326.594869,-1149.143247
531.751206,5625.565159,8364.327145,-1455.581446
531.751526,6587.832884,7846.182985,0.000000
531.751847,7772.162391,7624.121203,1302.362347
531.752168,5625.565159,7254.018232,229.828649
531.752488,3849.070898,7254.018232,-612.876398
531.752809,3923.091493,6883.915261,-919.314598
531.753130,5033.400406,6809.894666,153.219100
531.753450,6069.688724,7994.224174,76.609550
531.753771,6069.688724,8438.347739,-383.047749
531.754091,4219.173869,8142.265362,-1225.752797
531.754412,3775.050304,7994.224174,-1532.190996
531.754733,4367.215058,8364.327145,-536.266849
531.755053,4885.359217,8512.368333,229.828649
531.755374,4293.194464,7772.162391,153.219100
531.755695,4219.173869,7550.100608,-383.047749
531.756015,4219.173869,7920.203579,-306.438199
531.756336,5181.441594,8808.450710,766.095498
531.756657,4663.297435,9178.553681,76.609550
531.756977,4367.215058,7698.141797,-995.924147
531.757298,5551.544565,6217.729913,-612.876398
531.757619,6513.812290,6143.709319,383.047749
531.757939,6217.729913,7254.018232,1302.362347
531.758260,5551.544565,7772.162391,536.266849
531.758581,5255.462188,7698.141797,-766.095498
531.758901,5403.503377,6735.874072,-383.047749
531.759222,7105.977043,6291.750507,612.876398
531.759543,7920.203579,7698.141797,612.876398
531.759863,5625.565159,9030.512492,-842.705048
531.760184,5551.544565,8290.306550,-1762.019645
531.760504,6957.935855,6365.771101,-1302.362347
531.760825,7550.100608,6069.688724,-153.219100
531.761146,6513.812290,8068.244768,383.047749
531.761466,5107.421000,10510.924376,-612.876398
531.761787,3404.947333,9400.615463,-1762.019645
531.762108,5255.462188,7328.038826,-612.876398
531.762428,7476.080014,6661.853478,1225.752797
531.762749,4885.359217,7402.059420,1072.533697
531.763070,2590.720797,8586.388927,-306.438199
531.763390,1406.391290,8734.430116,-229.828649
531.763711,3775.050304,8216.285956,0.000000
531.764032,6809.894666,9178.553681,689.485948
531.764352,5033.400406,10066.800811,383.047749
531.764673,2368.659014,9992.780217,-1378.971896
531.764994,3330.926739,9548.656652,-995.924147
531.765314,3478.967927,8290.306550,0.000000
531.765635,5699.585753,8290.306550,689.485948
531.765955,4737.318029,8882.471304,612.876398
531.766276,3330.926739,9326.594869,-1532.190996
531.766597,2738.761985,9474.636058,-1915.238745
531.766917,4293.194464,8660.409521,0.000000
531.767238,5625.565159,8512.368333,76.609550
531.767559,4959.379811,8660.409521,919.314598
531.767879,3330.926739,8364.327145,919.314598
531.768200,3034.844362,8216.285956,-153.219100
531.768521,4737.318029,7920.203579,-153.219100
531.768841,4959.379811,9622.677246,306.438199
531.769162,4145.153275,9992.780217,-306.438199
531.769483,3478.967927,9622.677246,-1378.971896
531.769803,4959.379811,7920.203579,-842.705048
531.770124,4071.132681,6587.832884,-612.876398
531.770445,4145.153275,7031.956449,0.000000
531.770765,4441.235652,8882.471304,0.000000
531.771086,3330.926739,9030.512492,-306.438199
531.771407,4959.379811,8438.347739,459.657299
531.771727,7254.018232,8216.285956,919.314598
531.772048,5477.523971,8142.265362,766.095498
531.772368,3330.926739,7846.182985,0.000000
531.772689,3923.091493,7105.977043,-1378.971896
531.773010,5995.668130,6587.832884,-1608.800546
531.773330,7031.956449,5847.626942,0.000000
531.773651,7772.162391,7179.997637,1455.581446
531.773972,5995.668130,8512.368333,76.609550
531.774292,4663.297435,8364.327145,-536.266849
531.774613,6217.729913,7550.100608,-766.095498
531.774934,7846.182985,7254.018232,-459.657299
531.775254,6957.935855,6883.915261,1149.143247
531.775575,5329.482782,6661.853478,1072.533697
531.775896,5625.565159,6883.915261,-1378.971896
531.776216,5551.544565,7254.018232,-1302.362347
531.776537,5921.647536,7846.182985,229.828649
531.776858,5625.565159,7994.224174,306.438199
531.777178,4811.338623,7550.100608,0.000000
531.777499,4515.256246,7105.977043,306.438199
531.777819,5773.606348,7105.977043,842.705048
531.778140,4737.318029,7994.224174,689.485948
531.778461,4145.153275,8364.327145,0.000000
531.778781,5181.441594,6883.915261,-995.924147
531.779102,5403.503377,6143.709319,-1149.143247
531.779423,6365.771101,7105.977043,-229.828649
531.779743,5329.482782,9400.615463,536.266849
531.780064,3849.070898,9696.697840,-1072.533697
531.780385,4293.194464,8438.347739,-1838.629195
531.780705,8142.265362,7254.018232,-306.438199
531.781026,6365.771101,7328.038826,995.924147
531.781346,3775.050304,8068.244768,0.000000
531.781667,2442.679609,7994.224174,-1225.752797
531.781988,2590.720797,7402.059420,-1991.848295
531.782308,6291.750507,8660.409521,-689.485948
531.782629,7476.080014,10881.027347,1149.143247
531.782949,3701.029710,10436.903782,-1072.533697
531.783270,2368.659014,9622.677246,-2451.505594
531.783591,3108.864956,9770.718434,-306.438199
531.783911,4515.256246,9326.594869,1685.410096
531.784232,5329.482782,9326.594869,2681.334243
531.784552,3775.050304,9104.533087,229.828649
531.784873,1184.329507,8586.388927,-3064.381992
531.785193,1184.329507,8660.409521,-1455.581446
531.785514,3775.050304,9104.533087,536.266849
531.785835,4589.276840,9104.533087,1608.800546
531.786155,3701.029710,8956.491898,1685.410096
531.786476,2812.782580,9326.594869,76.609550
531.786796,2960.823768,9030.512492,-919.314598
531.787117,3923.091493,9548.656652,306.438199
531.787438,3997.112087,9844.739029,612.876398
531.787758,5329.482782,9622.677246,-383.047749
531.788079,5403.503377,8438.347739,-689.485948
531.788399,5699.585753,7105.977043,-1072.533697
531.788720,6143.709319,7031.956449,-459.657299
531.789041,5181.441594,7624.121203,-536.266849
531.789361,4737.318029,7402.059420,-1072.533697
531.789682,6809.894666,7031.956449,-766.095498
531.790002,8142.265362,7179.997637,229.828649
531.790323,7031.956449,7846.182985,919.314598
531.790644,5477.523971,8882.471304,842.705048
531.790964,4441.235652,7698.141797,-306.438199
531.791285,6143.709319,6439.791695,-919.314598
531.791605,7994.224174,4737.318029,229.828649
531.791926,7402.059420,5995.668130,0.000000
531.792247,6217.729913,7624.121203,76.609550
531.792567,3997.112087,7846.182985,-536.266849
531.792888,5255.462188,6439.791695,-766.095498
531.793208,7772.162391,6291.750507,612.876398
531.793529,7179.997637,6957.935855,1455.581446
531.793849,4737.318029,7105.977043,919.314598
531.794170,4293.194464,6513.812290,0.000000
531.794491,4589.276840,5847.626942,-1072.533697
531.794811,6217.729913,5995.668130,689.485948
531.795132,5847.626942,6513.812290,842.705048
531.795452,4737.318029,6957.935855,-229.828649
531.795773,4515.256246,8142.265362,-1225.752797
531.796094,4811.338623,8216.285956,-383.047749
531.796414,6217.729913,7550.100608,306.438199
531.796735,7550.100608,7920.203579,995.924147
531.797055,5847.626942,7698.141797,0.000000
531.797376,4737.318029,6809.894666,-1455.581446
531.797697,5403.503377,7624.121203,-1378.971896
531.798017,5403.503377,8882.471304,0.000000
531.798338,4885.359217,8882.471304,0.000000
531.798658,6883.915261,8808.450710,-383.047749
531.798979,5773.606348,9252.574275,-1149.143247
531.799300,4219.173869,9178.553681,-76.609550
531.799620,2960.823768,8512.368333,1302.362347
531.799941,2812.782580,8512.368333,1302.362347
531.800261,3404.947333,8660.409521,995.924147
531.800582,4145.153275,9252.574275,153.219100
531.800903,4885.359217,9548.656652,-1149.143247
531.801223,3775.050304,10066.800811,-1532.190996
531.801544,2220.617826,10066.800811,536.266849
531.801864,2738.761985,8734.430116,229.828649
531.802185,5403.503377,8216.285956,919.314598
531.802506,5477.523971,9178.553681,766.095498
531.802826,3849.070898,9770.718434,-766.095498
531.803147,2516.700203,9696.697840,-1762.019645
531.803467,3775.050304,9104.533087,-842.705048
531.803788,5033.400406,8512.368333,459.657299
531.804108,6143.709319,7624.121203,1455.581446
531.804429,5847.626942,8068.244768,383.047749
531.804750,4811.338623,8216.285956,-1838.629195
531.805070,4737.318029,7031.956449,-995.924147
531.805391,7105.977043,6883.915261,459.657299
531.805711,9030.512492,7105.977043,1072.533697
531.806032,9030.512492,8216.285956,1455.581446
531.806353,8290.306550,6735.874072,0.000000
531.806673,7920.203579,4663.297435,-1225.752797
531.806994,8956.491898,3923.091493,-766.095498
531.807314,9992.780217,4145.153275,-76.609550
531.807635,9844.739029,4737.318029,-689.485948
531.807956,9770.718434,4737.318029,-1149.143247
531.808276,11399.171507,5403.503377,-306.438199
531.808597,10807.006753,5329.482782,306.438199
531.808917,9474.636058,4959.379811,842.705048
531.809238,9178.553681,4811.338623,0.000000
531.809559,9474.636058,4219.173869,-689.485948
531.809879,9548.656652,3404.947333,76.609550
531.810200,10807.006753,2886.803174,76.609550
531.810520,10732.986159,4515.256246,0.000000
531.810841,7402.059420,5551.544565,-1225.752797
531.811162,7179.997637,5033.400406,-2298.286494
531.811482,9178.553681,3330.926739,0.000000
531.811803,10362.883188,4145.153275,612.876398
531.812123,10584.944971,6365.771101,1378.971896
531.812444,7846.182985,7328.038826,-842.705048
531.812764,7550.100608,5625.565159,-2757.943793
531.813085,9474.636058,5181.441594,-459.657299
531.813406,10881.027347,4737.318029,1302.362347
531.813726,11473.192101,6217.729913,1149.143247
531.814047,9548.656652,6587.832884,0.000000
531.814367,8586.388927,5847.626942,-2068.457845
531.814688,10362.883188,3997.112087,-229.828649
531.815009,11547.212695,3330.926739,2451.505594
531.815329,11473.192101,4367.215058,2528.115143
531.815650,9696.697840,5181.441594,536.266849
531.815970,9474.636058,4811.338623,-1378.971896
531.816291,10288.862594,4737.318029,-689.485948
531.816612,11621.233289,4515.256246,689.485948
531.816932,11695.253884,6439.791695,153.219100
531.817253,9622.677246,8068.244768,-1532.190996
531.817573,8142.265362,8068.244768,-1762.019645
531.817894,8734.430116,6661.853478,-383.047749
531.818215,8734.430116,5329.482782,1149.143247
531.818535,8512.368333,6809.894666,1149.143247
531.818856,6069.688724,8216.285956,-766.095498
531.819176,5107.421000,7772.162391,-2451.505594
531.819497,5773.606348,6513.812290,-1072.533697
531.819818,6809.894666,5181.441594,1762.019645
531.820138,7105.977043,5551.544565,2451.505594
531.820459,6513.812290,7698.141797,689.485948
531.820779,6217.729913,9104.533087,-1838.629195
531.821100,7105.977043,8364.327145,-1302.362347
531.821421,8734.430116,5181.441594,612.876398
531.821741,9548.656652,2738.761985,1991.848295
531.822062,9844.739029,4293.194464,1378.971896
531.822382,9030.512492,6069.688724,-919.314598
531.822703,8808.450710,6291.750507,-3447.429741
531.823023,11991.336260,5255.462188,-2757.943793
531.823344,11991.336260,4663.297435,0.000000
531.823665,12435.459826,4737.318029,1762.019645
531.823985,11177.109724,4663.297435,1225.752797
531.824306,10510.924376,4663.297435,-995.924147
531.824626,10732.986159,4145.153275,-2221.676944
531.824947,10288.862594,4441.235652,-689.485948
531.825268,10140.821405,5033.400406,459.657299
531.825588,9844.739029,7105.977043,842.705048
531.825909,7994.224174,6957.935855,76.609550
531.826229,6735.874072,4959.379811,-995.924147
531.826550,7550.100608,3478.967927,-766.095498
531.826871,7402.059420,4367.215058,1072.533697
531.827191,7179.997637,7031.956449,842.705048
531.827512,7105.977043,8734.430116,76.609550
531.827832,7846.182985,9104.533087,229.828649
531.828153,8216.285956,7624.121203,689.485948
531.828474,7624.121203,5255.462188,2068.457845
531.828794,7402.059420,3627.009116,1378.971896
531.829115,7920.203579,3108.864956,-306.438199
531.829435,9326.594869,3923.091493,-306.438199
531.829756,11251.130318,4885.359217,229.828649
531.830077,12213.398043,5773.606348,229.828649
531.830397,12583.501014,5181.441594,306.438199
531.830718,11991.336260,4441.235652,76.609550
531.831038,11843.295072,2368.659014,-306.438199
531.831359,12435.459826,1406.391290,-612.876398
531.831679,12657.521608,1184.329507,-383.047749
531.832000,12805.562797,2738.761985,-766.095498
531.832321,12287.418637,5773.606348,-1225.752797
531.832641,11769.274478,7254.018232,-1991.848295
531.832962,10807.006753,7105.977043,-2451.505594
531.833282,9918.759623,5329.482782,-1991.848295
531.833603,8660.409521,4367.215058,-229.828649
531.833924,7254.018232,4145.153275,536.266849
531.834244,6513.812290,4885.359217,76.609550
531.834565,6291.750507,6513.812290,-689.485948
531.834885,6439.791695,7772.162391,-689.485948
531.835206,6587.832884,9030.512492,0.000000
531.835527,6439.791695,8808.450710,766.095498
531.835847,6217.729913,7920.203579,995.924147
531.836168,5625.565159,6439.791695,1455.581446
531.836488,5921.647536,6143.709319,995.924147
531.836809,6143.709319,5551.544565,612.876398
531.837130,7402.059420,5699.585753,995.924147
531.837450,8660.409521,5847.626942,153.219100
531.837771,10140.821405,6069.688724,-459.657299
531.838091,11103.089130,6513.812290,-1378.971896
531.838412,12065.356855,6143.709319,-1302.362347
531.838733,12139.377449,5551.544565,-536.266849
531.839053,12213.398043,4515.256246,919.314598
531.839374,12583.501014,3997.112087,1378.971896
531.839694,11103.089130,4811.338623,-229.828649
531.840015,10066.800811,5625.565159,-1838.629195
531.840336,9992.780217,6661.853478,-2298.286494
531.840656,9696.697840,6143.709319,-2451.505594
531.840977,9548.656652,4589.276840,-1532.190996
531.841297,9548.656652,4441.235652,-383.047749
531.841618,8364.327145,5551.544565,153.219100
531.841938,6735.874072,6809.894666,689.485948
531.842259,6661.853478,6809.894666,1378.971896
531.842580,8216.285956,5995.668130,1302.362347
531.842900,8734.430116,5477.523971,1072.533697
531.843221,8216.285956,6291.750507,536.266849
531.843541,7476.080014,6735.874072,-1072.533697
531.843862,7698.141797,6957.935855,-766.095498
531.844183,8882.471304,6513.812290,0.000000
531.844503,9548.656652,5773.606348,919.314598
531.844824,9770.718434,4959.379811,1225.752797
531.845144,9548.656652,3997.112087,1072.533697
531.845465,9474.636058,3330.926739,1149.143247
531.845786,10807.006753,2294.638420,1378.971896
531.846106,12139.377449,1776.494261,1225.752797
531.846427,11843.295072,2294.638420,-459.657299
531.846747,11769.274478,3627.009116,-766.095498
531.847068,11917.315666,4959.379811,-1532.190996
531.847389,12879.583391,5107.421000,-1532.190996
531.847709,13101.645173,4959.379811,-1072.533697
531.848030,12139.377449,4885.359217,-1072.533697
531.848350,10732.986159,4737.318029,-536.266849
531.848671,9548.656652,4515.256246,306.438199
531.848992,9104.533087,4367.215058,1225.752797
531.849312,8956.491898,4737.318029,766.095498
531.849633,8364.327145,4589.276840,76.609550
531.849953,7550.100608,4737.318029,-919.314598
531.850274,7550.100608,4293.194464,-995.924147
531.850594,7772.162391,4441.235652,-383.047749
531.850915,8216.285956,5329.482782,-612.876398
531.851236,7550.100608,6883.915261,-459.657299
531.851556,7920.203579,8734.430116,-612.876398
531.851877,8438.347739,9474.636058,229.828649
531.852197,8586.388927,8734.430116,1532.190996
531.852518,8734.430116,7105.977043,1915.238745
531.852839,8216.285956,6513.812290,1532.190996
531.853159,7624.121203,5255.462188,766.095498
531.853480,7994.224174,4663.297435,459.657299
531.853800,8734.430116,3997.112087,0.000000
531.854121,9696.697840,3627.009116,612.876398
531.854442,10584.944971,4737.318029,766.095498
531.854762,10881.027347,6809.894666,459.657299
531.855083,10658.965565,8142.265362,0.000000
531.855403,10288.862594,8586.388927,-306.438199
531.855724,9844.739029,7476.080014,612.876398
531.856045,8586.388927,7105.977043,306.438199
531.856365,7105.977043,7179.997637,76.609550
531.856686,5699.585753,7254.018232,-306.438199
531.857006,5403.503377,6809.894666,-995.924147
531.857327,6069.688724,6217.729913,-766.095498
531.857648,5329.482782,6809.894666,76.609550
531.857968,4885.359217,7994.224174,1149.143247
531.858289,4811.338623,9622.677246,1608.800546
531.858609,4737.318029,11103.089130,2068.457845
531.858930,5773.606348,10436.903782,3140.991542
531.859251,6143.709319,9844.739029,3447.429741
531.859571,5477.523971,8438.347739,3217.601092
531.859892,4885.359217,7994.224174,3447.429741
531.860212,4811.338623,8290.306550,4060.306139
531.860533,5329.482782,8808.450710,3983.696590
531.860853,6217.729913,8734.430116,4060.306139
531.861174,6513.812290,8808.450710,4290.134789
531.861495,6365.771101,8142.265362,4903.011187
531.861815,6513.812290,7624.121203,5209.449386
531.862136,6661.853478,7179.997637,4826.401637
531.862456,7328.038826,6809.894666,4749.792088
531.862777,7846.182985,6957.935855,4903.011187
531.863098,7550.100608,7772.162391,5286.058936
531.863418,7772.162391,7772.162391,5515.887586
531.863739,8142.265362,7920.203579,5669.106685
531.864059,7402.059420,7179.997637,6358.592633
531.864380,7105.977043,6291.750507,6205.373534
531.864701,6809.894666,5625.565159,5898.935335
531.865021,6439.791695,4811.338623,5898.935335
531.865342,5995.668130,4515.256246,5975.544884
531.865662,6365.771101,5033.400406,5822.325785
531.865983,6587.832884,6365.771101,6435.202183
531.866304,6513.812290,7994.224174,6281.983084
531.866624,6069.688724,8586.388927,6281.983084
531.866945,5625.565159,8142.265362,6971.469032
531.867265,4885.359217,7328.038826,7967.393179
531.867586,4219.173869,6809.894666,8273.831378
531.867907,3330.926739,6365.771101,7890.783629
531.868227,2368.659014,6143.709319,6818.249932
531.868548,1924.535449,6143.709319,6818.249932
531.868868,2072.576638,5773.606348,6435.202183
531.869189,1998.556043,6217.729913,6128.763984
531.869509,2146.597232,6735.874072,6435.202183
531.869830,2368.659014,7328.038826,6281.983084
531.870151,2738.761985,7920.203579,7048.078582
531.870471,3849.070898,7920.203579,6894.859482
531.870792,4441.235652,9104.533087,7124.688131
531.871112,4367.215058,9178.553681,6052.154434
531.871433,4219.173869,8734.430116,5362.668486
531.871754,4663.297435,7994.224174,4596.572988
531.872074,4293.194464,6513.812290,4826.401637
531.872395,3849.070898,5107.421000,4596.572988
531.872715,3701.029710,4145.153275,4749.792088
531.873036,2886.803174,4441.235652,3830.477490
531.873357,3627.009116,5255.462188,2834.553343
531.873677,4959.379811,7254.018232,1838.629195
531.873998,5625.565159,8734.430116,2145.067394
531.874318,6217.729913,10214.842000,2068.457845
531.874639,7105.977043,11399.171507,2834.553343
531.874960,6735.874072,12139.377449,1838.629195
531.875280,6439.791695,10807.006753,3600.648841
531.875601,6735.874072,10214.842000,5515.887586
531.875921,5625.565159,10955.047942,5515.887586
531.876242,4959.379811,11473.192101,5822.325785
531.876563,4071.132681,9992.780217,5975.544884
531.876883,3478.967927,6661.853478,4826.401637
531.877204,2516.700203,3034.844362,4060.306139
531.877524,2664.741391,1036.288319,3677.258390
531.877845,3997.112087,3330.926739,2374.896044
531.878166,5625.565159,7402.059420,1302.362347
531.878486,7624.121203,12065.356855,0.000000
531.878807,10362.883188,15322.262999,-766.095498
531.879127,10955.047942,17172.777854,689.485948
531.879448,10362.883188,15840.407159,3294.210641
531.879769,9400.615463,12361.439231,4903.011187
531.880089,7624.121203,8734.430116,5515.887586
531.880410,6735.874072,7772.162391,6435.202183
531.880731,4293.194464,7254.018232,5439.278036
531.881051,3330.926739,7105.977043,4290.134789
531.881372,2516.700203,6809.894666,3140.991542
531.881693,3182.885551,5181.441594,2528.115143
531.882013,4219.173869,4219.173869,3294.210641
531.882334,5625.565159,5699.585753,4903.011187
531.882655,5329.482782,9326.594869,4903.011187
531.882975,4737.318029,12287.418637,3677.258390
531.883296,5255.462188,13841.851115,2604.724693
531.883617,7179.997637,14211.954086,2834.553343
531.883938,7402.059420,13175.665768,4443.353888
531.884258,5181.441594,9918.759623,6281.983084
531.884579,3701.029710,7179.997637,6588.421283
531.884900,888.247130,5625.565159,5975.544884
531.885220,1258.350101,4737.318029,5286.058936
531.885541,2886.803174,5033.400406,4903.011187
531.885862,3701.029710,5995.668130,5439.278036
531.886182,3997.112087,6291.750507,5822.325785
531.886503,5773.606348,7105.977043,8503.660028
531.886824,5625.565159,8882.471304,9499.584175
531.887144,4293.194464,10510.924376,8273.831378
531.887465,4071.132681,10658.965565,5515.887586
531.887786,4441.235652,8290.306550,3907.087040
531.888106,4811.338623,7031.956449,4749.792088
531.888427,5403.503377,6365.771101,8044.002729
531.888748,5921.647536,7550.100608,9499.584175
531.889068,2442.679609,8364.327145,6205.373534
531.889389,1776.494261,8290.306550,4979.620737
531.889710,2960.823768,6735.874072,5286.058936
531.890030,3552.988522,3997.112087,7431.126331
531.890351,3775.050304,2368.659014,7737.564530
531.890672,6587.832884,4885.359217,7354.516781
531.890992,6439.791695,9178.553681,5898.935335
531.891313,4145.153275,11325.150913,4596.572988
531.891634,4737.318029,9252.574275,3677.258390
531.891955,5847.626942,6587.832884,4366.744339
531.892275,3923.091493,4737.318029,7201.297681
531.892596,3775.050304,4589.276840,9882.631924
531.892917,5255.462188,7476.080014,10342.289223
531.893237,4219.173869,11103.089130,7584.345430
531.893558,3404.947333,11547.212695,4673.182538
531.893879,2664.741391,8068.244768,3217.601092
531.894199,3849.070898,5551.544565,3983.696590
531.894520,3997.112087,3404.947333,7124.688131
531.894841,4663.297435,3108.864956,7124.688131
531.895161,4737.318029,5255.462188,5056.230287
531.895482,4145.153275,8512.368333,4060.306139
531.895803,4663.297435,10658.965565,3907.087040
531.896123,5921.647536,11103.089130,4596.572988
531.896444,5625.565159,11547.212695,5975.544884
531.896765,4589.276840,12139.377449,6435.202183
531.897085,6291.750507,11251.130318,7048.078582
531.897406,5255.462188,9252.574275,5975.544884
531.897727,3997.112087,6439.791695,3447.429741
531.898047,3404.947333,3552.988522,1072.533697
531.898368,3182.885551,3256.906145,919.314598
531.898689,4515.256246,6661.853478,3983.696590
531.899010,5921.647536,10140.821405,6205.373534
531.899330,7920.203579,11177.109724,4903.011187
531.899651,8068.244768,11251.130318,2681.334243
531.899972,6957.935855,12509.480420,2681.334243
531.900292,6143.709319,11473.192101,3753.867940
531.900613,6513.812290,8660.409521,4903.011187
531.900934,6883.915261,7105.977043,4979.620737
531.901254,5255.462188,8142.265362,4136.915689
531.901575,4441.235652,9474.636058,3064.381992
531.901896,3552.988522,9696.697840,2451.505594
531.902216,3478.967927,9474.636058,3983.696590
531.902537,4441.235652,8068.244768,5898.935335
531.902858,5995.668130,7105.977043,5515.887586
531.903178,4367.215058,7920.203579,4136.915689
531.903499,1850.514855,9178.553681,3370.820191
531.903820,4293.194464,10214.842000,3064.381992
531.904140,6217.729913,9622.677246,2757.943793
531.904461,5403.503377,8586.388927,3294.210641
531.904782,4737.318029,7920.203579,4213.525239
531.905102,5033.400406,8290.306550,3294.210641
531.905423,3330.926739,8142.265362,2757.943793
531.905744,2442.679609,7846.182985,1225.752797
531.906065,3849.070898,6587.832884,229.828649
531.906385,5033.400406,5329.482782,919.314598
531.906706,5329.482782,6143.709319,3600.648841
531.907027,5921.647536,7920.203579,4443.353888
531.907347,4219.173869,9030.512492,1915.238745
531.907668,3923.091493,8512.368333,689.485948
531.907989,4367.215058,6439.791695,2145.067394
531.908309,4663.297435,4959.379811,2145.067394
531.908630,5181.441594,5033.400406,1378.971896
531.908951,3923.091493,7772.162391,0.000000
531.909271,2220.617826,8882.471304,229.828649
531.909592,2886.803174,7476.080014,919.314598
531.909913,5033.400406,5921.647536,995.924147
531.910233,5403.503377,5995.668130,306.438199
531.910554,3478.967927,7550.100608,0.000000
531.910875,3701.029710,9474.636058,-536.266849
531.911195,4737.318029,8438.347739,-306.438199
531.911516,6957.935855,6069.688724,0.000000
531.911837,8364.327145,5921.647536,76.609550
531.912157,8512.368333,11695.253884,2681.334243
531.912478,8586.388927,15692.365970,5515.887586
531.912799,7994.224174,15840.407159,4596.572988
531.913119,9770.718434,12657.521608,3294.210641
531.913440,8142.265362,9030.512492,5898.935335
531.913761,6069.688724,5699.585753,9499.584175
531.914082,3701.029710,3627.009116,9422.974625
531.914402,2590.720797,3997.112087,5745.716235
531.914723,2146.597232,3182.885551,1915.238745
531.915044,2812.782580,2738.761985,0.000000
531.915364,4293.194464,6587.832884,1532.190996
531.915685,5551.544565,12435.459826,4290.134789
531.916006,6661.853478,16358.551318,2451.505594
531.916326,7105.977043,15174.221811,-1532.190996
531.916647,4811.338623,12287.418637,-153.219100
531.916968,5773.606348,12583.501014,5362.668486
531.917288,6439.791695,12953.603985,6665.030833
531.917609,1702.473667,8882.471304,2681.334243
531.917930,1776.494261,5255.462188,-995.924147
531.918250,3034.844362,5773.606348,306.438199
531.918571,2960.823768,8068.244768,4596.572988
531.918892,1998.556043,7994.224174,4903.011187
531.919212,2590.720797,8216.285956,1991.848295
531.919533,1850.514855,7105.977043,153.219100
531.919854,2442.679609,5477.523971,3524.039291
531.920174,6069.688724,6957.935855,7048.078582
531.920495,5847.626942,8734.430116,5515.887586
531.920816,2368.659014,8882.471304,919.314598
531.921137,3552.988522,6809.894666,-2834.553343
531.921457,5551.544565,3182.885551,-1685.410096
531.921778,6661.853478,2220.617826,3370.820191
531.922099,6143.709319,4737.318029,3907.087040
531.922419,4663.297435,7105.977043,-1072.533697
531.922740,2294.638420,5477.523971,-3447.429741
531.923061,5699.585753,3923.091493,-2604.724693
531.923381,9474.636058,2072.576638,-995.924147
531.923702,5995.668130,1332.370696,-1608.800546
531.924023,3997.112087,2146.597232,-4443.353888
531.924343,5773.606348,4737.318029,-6128.763984
531.924664,6513.812290,5181.441594,-4749.792088
531.924985,6957.935855,5329.482782,-3217.601092
531.925305,7105.977043,7105.977043,-5439.278036
531.925626,3775.050304,8586.388927,-7431.126331
531.925947,2442.679609,8808.450710,-6128.763984
531.926267,6735.874072,9474.636058,-5592.497135
531.926588,6439.791695,9474.636058,-6665.030833
531.926909,3330.926739,9252.574275,-5209.449386
531.927229,2886.803174,9696.697840,-3753.867940
531.927550,2442.679609,9992.780217,-3064.381992
531.927871,2960.823768,9178.553681,-2451.505594
531.928192,4737.318029,8364.327145,-1915.238745
531.928512,5551.544565,9844.739029,-3217.601092
531.928833,2886.803174,10362.883188,-2757.943793
531.929154,3552.988522,10732.986159,-2298.286494
531.929474,6587.832884,11473.192101,-3064.381992
531.929795,6883.915261,12213.398043,-3217.601092
531.930116,6143.709319,12287.418637,-2451.505594
531.930436,7550.100608,12583.501014,-3217.601092
531.930757,8216.285956,12879.583391,-4366.744339
531.931078,7476.080014,11843.295072,-4366.744339
531.931398,8734.430116,11325.150913,-4136.915689
531.931719,9770.718434,11695.253884,-3677.258390
531.932040,9030.512492,13101.645173,-3600.648841
531.932360,9770.718434,14063.912898,-4136.915689
531.932681,10807.006753,14285.974681,-3140.991542
531.933002,10140.821405,13027.624579,-306.438199
531.933322,7920.203579,10436.903782,2374.896044
531.933643,7550.100608,7920.203579,1685.410096
531.933964,7179.997637,7920.203579,1378.971896
531.934284,5921.647536,9474.636058,2374.896044
531.934605,4145.153275,9178.553681,1838.629195
531.934926,5625.565159,8290.306550,1302.362347
531.935246,6217.729913,7772.162391,536.266849
531.935567,5181.441594,7698.141797,1532.190996
531.935888,4367.215058,8290.306550,3217.601092
531.936209,4071.132681,8512.368333,3983.696590
531.936529,2294.638420,7476.080014,2911.162892
531.936850,2220.617826,5995.668130,1685.410096
531.937171,4441.235652,6735.874072,2145.067394
531.937491,3849.070898,8142.265362,3370.820191
531.937812,1850.514855,6735.874072,3447.429741
531.938133,888.247130,3034.844362,1685.410096
531.938453,1480.411884,1628.453072,995.924147
531.938774,1480.411884,2516.700203,4060.306139
531.939095,1184.329507,3256.906145,3677.258390
531.939415,888.247130,2664.741391,306.438199
531.939736,1924.535449,3404.947333,-1378.971896
531.940057,4071.132681,4885.359217,1302.362347
531.940377,4441.235652,4663.297435,1915.238745
531.940698,2738.761985,4515.256246,536.266849
531.941019,3182.885551,4885.359217,-612.876398
531.941339,3997.112087,4737.318029,-1455.581446
531.941660,5995.668130,6587.832884,76.609550
531.941981,8216.285956,9030.512492,2451.505594
531.942301,6513.812290,9178.553681,3677.258390
531.942622,4589.276840,6217.729913,2451.505594
531.942943,4145.153275,2664.741391,2834.553343
531.943264,4441.235652,1406.391290,4903.011187
531.943584,3330.926739,1924.535449,5362.668486
531.943905,3256.906145,3108.864956,2604.724693
531.944226,2960.823768,3330.926739,-1685.410096
531.944546,4441.235652,3552.988522,-1378.971896
531.944867,7550.100608,7031.956449,1532.190996
531.945188,7624.121203,9178.553681,1991.848295
531.945508,4441.235652,9326.594869,-1991.848295
531.945829,5625.565159,8956.491898,-5362.668486
531.946150,7772.162391,9326.594869,-4290.134789
531.946470,7920.203579,10436.903782,-1149.143247
531.946791,7698.141797,11769.274478,-1149.143247
531.947112,6291.750507,11177.109724,-5669.106685
531.947432,4589.276840,10584.944971,-8350.440928
531.947753,5699.585753,10658.965565,-5745.716235
531.948074,5773.606348,9548.656652,-2987.772442
531.948394,5329.482782,9104.533087,-1532.190996
531.948715,5773.606348,9770.718434,-766.095498
531.949036,3775.050304,9992.780217,-2604.724693
531.949356,3552.988522,9770.718434,-3370.820191
531.949677,5995.668130,11177.109724,-1149.143247
531.949998,5847.626942,12139.377449,-1532.190996
531.950319,4441.235652,10881.027347,-4060.306139
531.950639,5699.585753,10510.924376,-5745.716235
531.950960,6439.791695,11843.295072,-5209.449386
531.951281,4959.379811,11399.171507,-2451.505594
531.951601,5847.626942,11991.336260,-2451.505594
531.951922,6957.935855,12731.542202,-5056.230287
531.952243,6217.729913,13915.871710,-5669.106685
531.952563,7254.018232,12287.418637,-3140.991542
531.952884,8512.368333,10288.862594,-2221.676944
531.953205,6809.894666,8290.306550,-1838.629195
531.953525,5699.585753,6735.874072,-2528.115143
531.953846,6735.874072,5699.585753,-4749.792088
531.954167,7476.080014,7698.141797,-4443.353888
531.954487,8586.388927,10140.821405,-2451.505594
531.954808,8808.450710,10955.047942,-1991.848295
531.955129,8586.388927,10140.821405,-2145.067394
531.955449,7772.162391,9696.697840,-995.924147
531.955770,7550.100608,9918.759623,229.828649
531.956091,5181.441594,7402.059420,-536.266849
531.956411,3701.029710,4441.235652,-1991.848295
531.956732,4441.235652,4737.318029,-2221.676944
531.957053,5181.441594,7846.182985,-612.876398
531.957373,4293.194464,9474.636058,919.314598
531.957694,3552.988522,8956.491898,689.485948
531.958015,2294.638420,5921.647536,-536.266849
531.958336,666.185348,4071.132681,919.314598
531.958656,2146.597232,4737.318029,3217.601092
531.958977,1702.473667,5625.565159,3907.087040
531.959298,962.267725,7105.977043,1838.629195
531.959618,2368.659014,7402.059420,-229.828649
531.959939,2442.679609,7476.080014,-1149.143247
531.960260,3182.885551,7846.182985,1532.190996
531.960580,4071.132681,9178.553681,3600.648841
531.960901,3775.050304,9252.574275,1685.410096
531.961222,2590.720797,7550.100608,536.266849
531.961542,3404.947333,6587.832884,2757.943793
531.961863,4885.359217,6513.812290,5362.668486
531.962184,5329.482782,7476.080014,5515.887586
531.962504,3256.906145,6883.915261,1915.238745
531.962825,2368.659014,4219.173869,-1838.629195
531.963146,6069.688724,4737.318029,0.000000
531.963466,6513.812290,5551.544565,4366.744339
531.963787,4885.359217,5255.462188,5209.449386
531.964108,5847.626942,5477.523971,2681.334243
531.964428,6069.688724,6809.894666,76.609550
531.964749,5255.462188,7179.997637,1685.410096
531.965070,7328.038826,8586.388927,4136.915689
531.965391,8290.306550,9178.553681,3600.648841
531.965711,6217.729913,6587.832884,1378.971896
531.966032,5995.668130,4441.235652,229.828649
531.966353,6513.812290,5107.421000,153.219100
531.966673,5255.462188,6217.729913,1838.629195
531.966994,4071.132681,6809.894666,2145.067394
531.967315,4885.359217,6587.832884,-383.047749
531.967635,4663.297435,7254.018232,-919.314598
531.967956,4885.359217,8068.244768,919.314598
531.968277,4071.132681,7402.059420,1378.971896
531.968597,2590.720797,6439.791695,-766.095498
531.968918,2146.597232,7328.038826,-2757.943793
531.969239,2664.741391,8142.265362,-3447.429741
531.969559,4071.132681,8512.368333,-2068.457845
531.969880,5329.482782,10510.924376,-383.047749
531.970201,5403.503377,12065.356855,-995.924147
531.970521,4145.153275,11251.130318,-2834.553343
531.970842,4515.256246,11251.130318,-2681.334243
531.971163,5625.565159,10066.800811,-153.219100
531.971483,5329.482782,9844.739029,842.705048
531.971804,4885.359217,7994.224174,-306.438199
531.972125,4441.235652,7254.018232,-2221.676944
531.972445,6143.709319,9104.533087,-1302.362347
531.972766,6365.771101,10510.924376,0.000000
531.973087,6513.812290,9400.615463,-1072.533697
531.973408,6661.853478,8290.306550,-2451.505594
531.973728,6883.915261,8290.306550,-1915.238745
531.974049,7105.977043,9252.574275,-766.095498
531.974370,7698.141797,10584.944971,-383.047749
531.974690,6587.832884,11399.171507,-1378.971896
531.975011,6809.894666,10510.924376,-3217.601092
531.975332,7328.038826,10066.800811,-2834.553343
531.975652,6883.915261,10658.965565,-1225.752797
531.975973,5773.606348,10658.965565,0.000000
531.976294,5477.523971,8512.368333,-1378.971896
531.976614,4293.194464,6439.791695,-2681.334243
531.976935,3627.009116,6809.894666,-1378.971896
531.977256,4071.132681,8956.491898,229.828649
531.977576,4293.194464,9992.780217,229.828649
531.977897,2738.761985,8512.368333,-1072.533697
531.978218,3552.988522,7994.224174,-1302.362347
531.978538,4219.173869,8216.285956,-995.924147
531.978859,3330.926739,7476.080014,229.828649
531.979180,3775.050304,8364.327145,-306.438199
531.979501,3997.112087,8586.388927,-1915.238745
531.979821,2146.597232,7179.997637,-3294.210641
531.980142,4589.276840,9696.697840,-1838.629195
531.980463,6217.729913,11843.295072,2145.067394
531.980784,4293.194464,11103.089130,3140.991542
531.981104,3775.050304,7328.038826,995.924147
531.981425,3478.967927,5033.400406,-1225.752797
531.981746,3034.844362,4737.318029,459.657299
531.982066,3997.112087,5625.565159,3447.429741
531.982387,4737.318029,6143.709319,2221.676944
531.982708,4737.318029,5921.647536,-383.047749
531.983029,6513.812290,7698.141797,536.266849
531.983349,6365.771101,8586.388927,995.924147
531.983670,3997.112087,7105.977043,2604.724693
531.983991,5995.668130,7624.121203,2757.943793
531.984312,6809.894666,8290.306550,153.219100
531.984632,4959.379811,6883.915261,-995.924147
531.984953,6069.688724,6291.750507,1072.533697
531.985274,7402.059420,8142.265362,2451.505594
531.985594,4589.276840,8142.265362,1072.533697
531.985915,3552.988522,6883.915261,-76.609550
531.986236,6069.688724,6957.935855,-76.609550
531.986557,5847.626942,7550.100608,3064.381992
531.986877,3775.050304,8364.327145,4979.620737
531.987198,3182.885551,7105.977043,2528.115143
531.987519,2664.741391,6439.791695,-229.828649
531.987840,3552.988522,8808.450710,1838.629195
531.988160,4515.256246,9474.636058,2911.162892
531.988481,3849.070898,8290.306550,2145.067394
531.988802,3552.988522,7476.080014,995.924147
531.989122,3627.009116,7476.080014,1991.848295
531.989443,3552.988522,7994.224174,2834.553343
531.989764,3775.050304,10140.821405,2604.724693
531.990085,2368.659014,10362.883188,1302.362347
531.990405,2886.803174,7179.997637,-383.047749
531.990726,4885.359217,7031.956449,1149.143247
531.991047,5181.441594,8364.327145,2374.896044
531.991367,3404.947333,8660.409521,1149.143247
531.991688,4367.215058,7994.224174,-995.924147
531.992009,4441.235652,5921.647536,-1915.238745
531.992330,4441.235652,5107.421000,-1072.533697
531.992650,6439.791695,7031.956449,1149.143247
531.992971,7105.977043,8882.471304,306.438199
531.993292,6069.688724,9992.780217,-2068.457845
531.993613,6365.771101,7846.182985,-2374.896044
531.993933,7105.977043,6587.832884,-1685.410096
531.994254,7179.997637,7031.956449,-459.657299
531.994575,5921.647536,7920.203579,612.876398
531.994895,5033.400406,6291.750507,-1915.238745
531.995216,5773.606348,5995.668130,-4136.915689
531.995537,7698.141797,8660.409521,-2145.067394
531.995858,7254.018232,9696.697840,383.047749
531.996178,5477.523971,9178.553681,0.000000
531.996499,6069.688724,9104.533087,-1072.533697
531.996820,4959.379811,7920.203579,-612.876398
531.997141,5551.544565,6957.935855,-689.485948
531.997461,6365.771101,8290.306550,229.828649
531.997782,4293.194464,9474.636058,0.000000
531.998103,3404.947333,8808.450710,-689.485948
531.998423,6291.750507,8882.471304,-1455.581446
531.998744,5107.421000,8216.285956,-1762.019645
531.999065,3478.967927,8068.244768,-229.828649
531.999386,4885.359217,9326.594869,153.219100
531.999706,4145.153275,9622.677246,-1838.629195
532.000027,4145.153275,10436.903782,-1838.629195
532.000348,6587.832884,10955.047942,-536.266849
532.000669,5921.647536,10362.883188,-1378.971896
532.000989,3701.029710,9474.636058,0.000000
532.001310,4145.153275,8956.491898,0.000000
532.001631,5255.462188,7920.203579,-1532.190996
532.001951,4293.194464,7624.121203,-1685.410096
532.002272,4071.132681,8512.368333,-306.438199
532.002593,4663.297435,7920.203579,-842.705048
532.002914,5329.482782,9030.512492,-919.314598
532.003234,6069.688724,9918.759623,306.438199
532.003555,4737.318029,9696.697840,-229.828649
532.003876,4737.318029,8586.388927,-689.485948
532.004197,5625.565159,7402.059420,-306.438199
532.004517,4737.318029,6143.709319,689.485948
532.004838,6291.750507,7031.956449,1455.581446
532.005159,6365.771101,9030.512492,689.485948
532.005479,3256.906145,8660.409521,-612.876398
532.005800,3108.864956,6661.853478,-153.219100
532.006121,5033.400406,5255.462188,153.219100
532.006442,5699.585753,5773.606348,536.266849
532.006762,4219.173869,7105.977043,766.095498
532.007083,4441.235652,8068.244768,-1378.971896
532.007404,4959.379811,7772.162391,-1838.629195
532.007725,4885.359217,7624.121203,536.266849
532.008045,5625.565159,7920.203579,2451.505594
532.008366,5995.668130,8956.491898,1838.629195
532.008687,4145.153275,8956.491898,153.219100
532.009007,2664.741391,7254.018232,-1302.362347
532.009328,4219.173869,5255.462188,-1455.581446
532.009649,5033.400406,6217.729913,1149.143247
532.009970,3330.926739,8142.265362,2374.896044
532.010290,2738.761985,7254.018232,-536.266849
532.010611,3404.947333,7254.018232,-2987.772442
532.010932,5329.482782,9104.533087,-536.266849
532.011253,5625.565159,9992.780217,3370.820191
532.011573,5403.503377,8734.430116,3370.820191
532.011894,4515.256246,7550.100608,689.485948
532.012215,3478.967927,7698.141797,-1532.190996
532.012535,4441.235652,7328.038826,-229.828649
532.012856,5625.565159,7994.224174,2374.896044
532.013177,5551.544565,8290.306550,2298.286494
532.013498,5625.565159,8808.450710,-766.095498
532.013818,5329.482782,7994.224174,-1302.362347
532.014139,5255.462188,7105.977043,383.047749
532.014460,5995.668130,7254.018232,2757.943793
532.014781,6143.709319,7994.224174,1915.238745
532.015101,4293.194464,7550.100608,-1685.410096
532.015422,5921.647536,8216.285956,-2987.772442
532.015743,7254.018232,9400.615463,306.438199
532.016063,5773.606348,8734.430116,995.924147
532.016384,5477.523971,7920.203579,-919.314598
532.016705,5847.626942,7920.203579,-2374.896044
532.017026,4885.359217,8290.306550,-1225.752797
532.017346,5477.523971,9104.533087,842.705048
532.017667,5551.544565,9992.780217,229.828649
532.017988,4737.318029,8068.244768,-612.876398
532.018308,5329.482782,6883.915261,-612.876398
532.018629,5847.626942,7624.121203,0.000000
532.018950,3701.029710,7624.121203,0.000000
532.019271,3552.988522,7179.997637,-383.047749
532.019591,5551.544565,7846.182985,-766.095498
532.019912,4367.215058,7994.224174,459.657299
532.020233,4663.297435,8216.285956,1302.362347
532.020554,5181.441594,8660.409521,-383.047749
532.020874,3404.947333,7698.141797,-2528.115143
532.021195,2664.741391,5847.626942,-2451.505594
532.021516,6143.709319,6735.874072,-1685.410096
532.021836,6069.688724,8586.388927,-1225.752797
532.022157,4219.173869,9400.615463,-1225.752797
532.022478,4811.338623,7846.182985,-2374.896044
532.022799,5699.585753,6735.874072,-3064.381992
532.023119,5107.421000,7698.141797,-1149.143247
532.023440,5477.523971,8512.368333,0.000000
532.023761,6365.771101,9178.553681,-1302.362347
532.024082,4737.318029,7994.224174,-2221.676944
532.024402,4811.338623,7328.038826,-1302.362347
532.024723,6513.812290,7550.100608,-536.266849
532.025044,5995.668130,8956.491898,0.000000
532.025364,4293.194464,9178.553681,-689.485948
532.025685,4293.194464,8216.285956,-2145.067394
532.026006,5625.565159,7402.059420,-1991.848295
532.026327,5995.668130,8808.450710,689.485948
532.026647,5107.421000,9474.636058,1455.581446
532.026968,4367.215058,9844.739029,-612.876398
532.027289,3849.070898,9104.533087,-2068.457845
532.027610,5033.400406,8290.306550,-1378.971896
532.027930,6217.729913,7624.121203,919.314598
532.028251,5181.441594,7994.224174,1608.800546
532.028572,4367.215058,8956.491898,-153.219100
532.028892,3997.112087,9474.636058,-1838.629195
532.029213,3775.050304,7846.182985,-919.314598
532.029534,6661.853478,8216.285956,1072.533697
532.029855,7476.080014,9622.677246,2145.067394
532.030175,3849.070898,9030.512492,459.657299
532.030496,2886.803174,5995.668130,-2298.286494
532.030817,5773.606348,5847.626942,-2757.943793
532.031138,6069.688724,7105.977043,0.000000
532.031458,5329.482782,8808.450710,229.828649
532.031779,6513.812290,9770.718434,-2068.457845
532.032100,4885.359217,9696.697840,-2374.896044
532.032420,3923.091493,7772.162391,-459.657299
532.032741,7105.977043,7994.224174,1532.190996
532.033062,5107.421000,8142.265362,1455.581446
532.033383,4293.194464,7328.038826,919.314598
532.033703,4737.318029,7105.977043,-229.828649
532.034024,5699.585753,7328.038826,-1225.752797
532.034345,4293.194464,7476.080014,1149.143247
532.034666,5033.400406,8290.306550,2604.724693
