#time,accel_x,accel_y,accel_z
574.124580,5107.421000,7994.224174,0.000000
574.124901,5033.400406,8364.327145,-459.657299
574.125221,4811.338623,8290.306550,-306.438199
574.125542,5107.421000,7994.224174,0.000000
574.125862,4885.359217,8290.306550,-153.219100
574.126183,4737.318029,8364.327145,-76.609550
574.126503,4959.379811,8068.244768,0.000000
574.126824,4737.318029,7846.182985,-306.438199
574.127144,5033.400406,7994.224174,0.000000
574.127465,4811.338623,8142.265362,153.219100
574.127785,5181.441594,8216.285956,0.000000
574.128106,5107.421000,8068.244768,0.000000
574.128426,5107.421000,8438.347739,-229.828649
574.128747,5107.421000,8068.244768,0.000000
574.129068,5255.462188,8142.265362,0.000000
574.129388,5033.400406,7994.224174,0.000000
574.129709,5107.421000,8068.244768,-229.828649
574.130029,5033.400406,7846.182985,-459.657299
574.130350,4885.359217,8142.265362,-306.438199
574.130670,5033.400406,8142.265362,-153.219100
574.130991,5403.503377,7920.203579,-306.438199
574.131311,4737.318029,8068.244768,-306.438199
574.131632,4811.338623,8142.265362,0.000000
574.131952,4959.379811,8068.244768,0.000000
574.132273,4811.338623,8068.244768,-306.438199
574.132593,5033.400406,7772.162391,0.000000
574.132914,5107.421000,7846.182985,-153.219100
574.133235,4959.379811,7994.224174,-229.828649
574.133555,5181.441594,7920.203579,0.000000
574.133876,4959.379811,8142.265362,0.000000
574.134196,4959.379811,7994.224174,-306.438199
574.134517,4959.379811,7920.203579,-459.657299
574.134837,4293.194464,7328.038826,-459.657299
574.135158,4441.235652,8142.265362,0.000000
574.135478,4367.215058,8290.306550,0.000000
574.135799,4515.256246,9400.615463,-612.876398
574.136119,4515.256246,9844.739029,-1149.143247
574.136440,4737.318029,9622.677246,-1378.971896
574.136760,4293.194464,9104.533087,-995.924147
574.137081,3478.967927,8586.388927,0.000000
574.137402,2812.782580,8882.471304,919.314598
574.137722,3034.844362,9696.697840,1072.533697
574.138043,2960.823768,9474.636058,76.609550
574.138363,2960.823768,8734.430116,0.000000
574.138684,2442.679609,8142.265362,-383.047749
574.139004,3256.906145,8808.450710,-306.438199
574.139325,3034.844362,9474.636058,229.828649
574.139645,2590.720797,9030.512492,0.000000
574.139966,2590.720797,8808.450710,0.000000
574.140286,2368.659014,9326.594869,0.000000
574.140607,2294.638420,10732.986159,-536.266849
574.140928,1998.556043,11917.315666,-1149.143247
574.141248,1628.453072,12139.377449,-536.266849
574.141569,1036.288319,11621.233289,-1302.362347
574.141889,444.123565,11029.068536,-1302.362347
574.142210,-222.061783,10881.027347,-1455.581446
574.142530,-888.247130,11991.336260,-306.438199
574.142851,-1480.411884,12879.583391,153.219100
574.143171,-2294.638420,12435.459826,842.705048
574.143492,-1184.329507,11843.295072,1072.533697
574.143812,-592.164754,11843.295072,1762.019645
574.144133,-1332.370696,12287.418637,1915.238745
574.144453,-2146.597232,11843.295072,919.314598
574.144774,-1776.494261,10362.883188,-689.485948
574.145095,-1332.370696,9918.759623,-919.314598
574.145415,-1036.288319,9696.697840,612.876398
574.145736,-222.061783,10362.883188,919.314598
574.146056,222.061783,10955.047942,229.828649
574.146377,296.082377,11843.295072,-1455.581446
574.146697,1258.350101,11473.192101,-1838.629195
574.147018,2146.597232,10510.924376,-689.485948
574.147338,2368.659014,10584.944971,536.266849
574.147659,3108.864956,11029.068536,229.828649
574.147979,2368.659014,10140.821405,-1685.410096
574.148300,1924.535449,9474.636058,-2604.724693
574.148620,1702.473667,9474.636058,-1302.362347
574.148941,2368.659014,9770.718434,-153.219100
574.149262,1998.556043,9474.636058,229.828649
574.149582,1406.391290,9992.780217,-306.438199
574.149903,814.226536,10732.986159,-766.095498
574.150223,148.041188,11103.089130,153.219100
574.150544,0.000000,10807.006753,1072.533697
574.150864,-74.020594,9844.739029,919.314598
574.151185,148.041188,10214.842000,842.705048
574.151505,-222.061783,10436.903782,995.924147
574.151826,-1332.370696,10955.047942,1072.533697
574.152146,-518.144159,11547.212695,1149.143247
574.152467,148.041188,11547.212695,1149.143247
574.152787,888.247130,11325.150913,612.876398
574.153108,1110.308913,11103.089130,-306.438199
574.153429,1110.308913,10510.924376,-1149.143247
574.153749,1110.308913,9696.697840,-1378.971896
574.154070,1406.391290,9104.533087,0.000000
574.154390,1924.535449,8660.409521,995.924147
574.154711,1998.556043,8956.491898,919.314598
574.155031,2220.617826,9622.677246,612.876398
574.155352,2590.720797,10584.944971,-459.657299
574.155672,2294.638420,10288.862594,-1072.533697
574.155993,2886.803174,9548.656652,-1225.752797
574.156313,3182.885551,9178.553681,-1762.019645
574.156634,3256.906145,9326.594869,-1685.410096
574.156954,3182.885551,10066.800811,-1225.752797
574.157275,2368.659014,11177.109724,-383.047749
574.157596,2220.617826,11695.253884,0.000000
574.157916,1776.494261,11843.295072,0.000000
574.158237,1332.370696,11547.212695,-766.095498
574.158557,296.082377,10807.006753,-1608.800546
574.158878,-1110.308913,9400.615463,-1915.238745
574.159198,-1776.494261,8586.388927,-1072.533697
574.159519,-1850.514855,8364.327145,306.438199
574.159839,-1628.453072,9844.739029,2068.457845
574.160160,-962.267725,11695.253884,2221.676944
574.160480,148.041188,13915.871710,1608.800546
574.160801,296.082377,15026.180623,1149.143247
574.161121,666.185348,14211.954086,306.438199
574.161442,1628.453072,11695.253884,-306.438199
574.161763,1850.514855,9622.677246,-306.438199
574.162083,888.247130,9400.615463,-995.924147
574.162404,-370.102971,9474.636058,-1685.410096
574.162724,-1036.288319,9992.780217,-2221.676944
574.163045,-1184.329507,10732.986159,-2374.896044
574.163365,-1406.391290,11325.150913,-919.314598
574.163686,-296.082377,11991.336260,306.438199
574.164006,962.267725,13175.665768,76.609550
574.164327,518.144159,13397.727550,0.000000
574.164647,148.041188,13101.645173,0.000000
574.164968,814.226536,12213.398043,-76.609550
574.165289,1406.391290,10584.944971,-766.095498
574.165609,1480.411884,8808.450710,-306.438199
574.165930,1776.494261,7994.224174,-612.876398
574.166250,1850.514855,8216.285956,-536.266849
574.166571,888.247130,10214.842000,766.095498
574.166891,888.247130,10955.047942,842.705048
574.167212,888.247130,10362.883188,383.047749
574.167532,962.267725,9548.656652,76.609550
574.167853,1036.288319,9474.636058,0.000000
574.168173,1110.308913,10214.842000,0.000000
574.168494,1036.288319,11473.192101,-612.876398
574.168814,592.164754,12435.459826,-1302.362347
574.169135,740.205942,12879.583391,-2145.067394
574.169456,888.247130,12731.542202,-1378.971896
574.169776,0.000000,12509.480420,-689.485948
574.170097,-444.123565,11473.192101,689.485948
574.170417,444.123565,10584.944971,2068.457845
574.170738,518.144159,10807.006753,2298.286494
574.171058,-962.267725,9400.615463,1149.143247
574.171379,-1406.391290,8956.491898,689.485948
574.171699,-1702.473667,8364.327145,229.828649
574.172020,-1184.329507,8660.409521,689.485948
574.172340,592.164754,9400.615463,1149.143247
574.172661,1924.535449,11177.109724,459.657299
574.172981,1998.556043,12805.562797,-229.828649
574.173302,1998.556043,12583.501014,-689.485948
574.173623,1480.411884,10436.903782,-2298.286494
574.173943,2294.638420,8512.368333,-2604.724693
574.174264,3034.844362,7920.203579,-689.485948
574.174584,2812.782580,9992.780217,1149.143247
574.174905,962.267725,11991.336260,536.266849
574.175225,814.226536,12731.542202,-842.705048
574.175546,296.082377,12509.480420,-1991.848295
574.175866,0.000000,9400.615463,-1991.848295
574.176187,222.061783,6957.935855,-1378.971896
574.176507,-962.267725,7624.121203,-459.657299
574.176828,-222.061783,11325.150913,153.219100
574.177148,-666.185348,14656.077652,383.047749
574.177469,-1776.494261,15174.221811,-383.047749
574.177790,-1036.288319,14211.954086,-306.438199
574.178110,0.000000,14285.974681,0.000000
574.178431,-1628.453072,12509.480420,459.657299
574.178751,-1480.411884,10807.006753,766.095498
574.179072,-1406.391290,10584.944971,1225.752797
574.179392,-740.205942,10732.986159,1608.800546
574.179713,-962.267725,9622.677246,1225.752797
574.180033,-444.123565,9474.636058,0.000000
574.180354,0.000000,9474.636058,0.000000
574.180674,1332.370696,9104.533087,1685.410096
574.180995,3923.091493,9770.718434,1302.362347
574.181315,5477.523971,11177.109724,-383.047749
574.181636,5107.421000,11917.315666,-2068.457845
574.181957,4441.235652,12065.356855,-2987.772442
574.182277,2590.720797,9548.656652,-3983.696590
574.182598,1554.432478,6587.832884,-2528.115143
574.182918,2886.803174,6365.771101,-536.266849
574.183239,3775.050304,9992.780217,995.924147
574.183559,1628.453072,14137.933492,0.000000
574.183880,592.164754,14656.077652,-1915.238745
574.184200,0.000000,11621.233289,-2528.115143
574.184521,-814.226536,9400.615463,-383.047749
574.184842,-1776.494261,8142.265362,2528.115143
574.185162,-1258.350101,9326.594869,2145.067394
574.185483,-370.102971,11621.233289,0.000000
574.185803,-1332.370696,13915.871710,-1455.581446
574.186124,-2664.741391,13693.809927,-995.924147
574.186445,-1480.411884,11917.315666,842.705048
574.186765,-222.061783,10584.944971,3524.039291
574.187086,0.000000,11473.192101,4443.353888
574.187406,-814.226536,10955.047942,2221.676944
574.187727,-1258.350101,9992.780217,-995.924147
574.188048,-962.267725,8364.327145,-383.047749
574.188368,1258.350101,7920.203579,1302.362347
574.188689,2516.700203,6957.935855,1455.581446
574.189009,2664.741391,7698.141797,-1072.533697
574.189330,4515.256246,10214.842000,-1455.581446
574.189651,4367.215058,13175.665768,-1838.629195
574.189971,3997.112087,12805.562797,-1991.848295
574.190292,5403.503377,10955.047942,-1915.238745
574.190612,5477.523971,9474.636058,-1838.629195
574.190933,2664.741391,7105.977043,-1072.533697
574.191254,444.123565,6069.688724,-995.924147
574.191574,1554.432478,9030.512492,-995.924147
574.191895,444.123565,13101.645173,-1149.143247
574.192215,-370.102971,14063.912898,-2068.457845
574.192536,962.267725,11473.192101,-2145.067394
574.192857,222.061783,9770.718434,0.000000
574.193177,-1480.411884,10436.903782,3217.601092
574.193498,-3478.967927,11695.253884,3217.601092
574.193818,-3478.967927,12879.583391,1302.362347
574.194139,-3034.844362,12657.521608,0.000000
574.194460,-1776.494261,12213.398043,0.000000
574.194780,0.000000,11843.295072,-229.828649
574.195101,-740.205942,13397.727550,919.314598
574.195422,-1258.350101,14434.015869,1378.971896
574.195742,-2516.700203,12287.418637,459.657299
574.196063,-1406.391290,10066.800811,383.047749
574.196383,2072.576638,10436.903782,2298.286494
574.196704,1184.329507,11695.253884,2528.115143
574.197025,-444.123565,9992.780217,-612.876398
574.197345,3478.967927,8956.491898,-1532.190996
574.197666,3775.050304,8290.306550,-689.485948
574.197986,4293.194464,8734.430116,-536.266849
574.198307,5403.503377,9548.656652,-612.876398
574.198628,4219.173869,10584.944971,-1685.410096
574.198948,2220.617826,9770.718434,-3600.648841
574.199269,3108.864956,6735.874072,-2681.334243
574.199589,4515.256246,7031.956449,-2451.505594
574.199910,3034.844362,11325.150913,-689.485948
574.200231,1258.350101,15470.304188,-76.609550
574.200551,592.164754,14804.118840,-3677.258390
574.200872,0.000000,11103.089130,-4903.011187
574.201192,-1184.329507,10214.842000,-1302.362347
574.201513,-3034.844362,10881.027347,2451.505594
574.201834,-3997.112087,11325.150913,3830.477490
574.202154,-2664.741391,12731.542202,2528.115143
574.202475,-3552.988522,13545.768739,1302.362347
574.202795,-3182.885551,11769.274478,1532.190996
574.203116,-2516.700203,10732.986159,3830.477490
574.203437,-3108.864956,11917.315666,4060.306139
574.203757,-3923.091493,11473.192101,2528.115143
574.204078,-814.226536,10362.883188,995.924147
574.204398,1036.288319,9622.677246,536.266849
574.204719,222.061783,10288.862594,0.000000
574.205040,222.061783,10584.944971,-842.705048
574.205360,2960.823768,11325.150913,-1608.800546
574.205681,3404.947333,10732.986159,-229.828649
574.206001,5255.462188,9326.594869,766.095498
574.206322,7624.121203,9400.615463,-459.657299
574.206643,5033.400406,9622.677246,-3140.991542
574.206963,3627.009116,9474.636058,-4443.353888
574.207284,5551.544565,8364.327145,-2221.676944
574.207604,5921.647536,7328.038826,-536.266849
574.207925,4219.173869,7179.997637,383.047749
574.208246,3627.009116,8364.327145,-229.828649
574.208566,1480.411884,10214.842000,-1838.629195
574.208887,1184.329507,11325.150913,-1762.019645
574.209207,1776.494261,11177.109724,-1072.533697
574.209528,1702.473667,8586.388927,0.000000
574.209849,740.205942,8586.388927,2068.457845
574.210169,-888.247130,10436.903782,3140.991542
574.210490,-2368.659014,10214.842000,1532.190996
574.210810,-2442.679609,10955.047942,-229.828649
574.211131,0.000000,11695.253884,0.000000
574.211452,592.164754,14211.954086,1608.800546
574.211772,-1332.370696,14434.015869,1915.238745
574.212093,-1628.453072,12731.542202,-383.047749
574.212413,74.020594,9474.636058,-1225.752797
574.212734,-2220.617826,7476.080014,0.000000
574.213055,-1554.432478,7476.080014,689.485948
574.213375,888.247130,9548.656652,766.095498
574.213696,148.041188,11547.212695,1149.143247
574.214016,1332.370696,10807.006753,842.705048
574.214337,4515.256246,11177.109724,-1072.533697
574.214658,2516.700203,9474.636058,-3294.210641
574.214978,2664.741391,9992.780217,-3983.696590
574.215299,5255.462188,10362.883188,-2221.676944
574.215619,6143.709319,10140.821405,-1685.410096
574.215940,4663.297435,6587.832884,-1225.752797
574.216261,4811.338623,6735.874072,-1455.581446
574.216581,2442.679609,10732.986159,-3064.381992
574.216902,2590.720797,15174.221811,-2145.067394
574.217223,3849.070898,15322.262999,-2221.676944
574.217543,4737.318029,10732.986159,-3600.648841
574.217864,3034.844362,7994.224174,-229.828649
574.218184,1258.350101,8068.244768,1685.410096
574.218505,-2368.659014,6291.750507,1685.410096
574.218826,-1258.350101,9178.553681,2298.286494
574.219146,1776.494261,9252.574275,1302.362347
574.219467,3256.906145,9992.780217,1838.629195
574.219787,3627.009116,9770.718434,2987.772442
574.220108,3330.926739,12139.377449,2451.505594
574.220429,2442.679609,11547.212695,1532.190996
574.220749,2368.659014,7476.080014,-1378.971896
574.221070,4737.318029,4145.153275,-2681.334243
574.221390,5625.565159,4071.132681,-2604.724693
574.221711,6883.915261,9326.594869,76.609550
574.222032,5477.523971,13175.665768,-229.828649
574.222352,5403.503377,13397.727550,-3140.991542
574.222673,7920.203579,11177.109724,-2221.676944
574.222993,8586.388927,6883.915261,1838.629195
574.223314,5847.626942,3182.885551,2834.553343
574.223635,4737.318029,3182.885551,2528.115143
574.223955,4293.194464,6069.688724,-306.438199
574.224276,5181.441594,6661.853478,-1532.190996
574.224596,6439.791695,4367.215058,-536.266849
574.224917,10807.006753,4293.194464,1302.362347
574.225238,8512.368333,6735.874072,1302.362347
574.225558,3923.091493,7105.977043,-459.657299
574.225879,5477.523971,7624.121203,-1991.848295
574.226199,6291.750507,5625.565159,-1149.143247
574.226520,7994.224174,6217.729913,612.876398
574.226841,9474.636058,9030.512492,0.000000
574.227161,3701.029710,8956.491898,-4060.306139
574.227482,1480.411884,9918.759623,-6205.373534
574.227802,3849.070898,9992.780217,-2298.286494
574.228123,3034.844362,8734.430116,1685.410096
574.228444,4515.256246,7328.038826,5056.230287
574.228764,2738.761985,8734.430116,5592.497135
574.229085,1258.350101,11325.150913,1378.971896
574.229405,666.185348,10140.821405,689.485948
574.229726,592.164754,7105.977043,306.438199
574.230047,4145.153275,4737.318029,1378.971896
574.230367,5921.647536,5255.462188,4366.744339
574.230688,3330.926739,5033.400406,2681.334243
574.231008,3997.112087,6069.688724,-2374.896044
574.231329,6291.750507,8290.306550,-3677.258390
574.231650,5699.585753,11029.068536,-2451.505594
574.231970,9326.594869,11695.253884,0.000000
574.232291,9252.574275,9548.656652,0.000000
574.232611,9326.594869,8882.471304,-1915.238745
574.232932,8956.491898,7994.224174,-1762.019645
574.233253,6809.894666,7772.162391,-2834.553343
574.233573,5329.482782,6809.894666,-3907.087040
574.233894,7624.121203,7476.080014,-1225.752797
574.234214,7254.018232,6957.935855,1685.410096
574.234535,6957.935855,6661.853478,2528.115143
574.234856,6587.832884,5773.606348,1608.800546
574.235176,3775.050304,6365.771101,0.000000
574.235497,2960.823768,6735.874072,612.876398
574.235817,4959.379811,6735.874072,459.657299
574.236138,5107.421000,7031.956449,-536.266849
574.236459,6143.709319,8216.285956,-383.047749
574.236779,4737.318029,10362.883188,-995.924147
574.237100,2368.659014,11399.171507,-2528.115143
574.237421,2368.659014,11917.315666,-2528.115143
574.237741,3034.844362,12287.418637,-919.314598
574.238062,3108.864956,10140.821405,229.828649
574.238382,4071.132681,9844.739029,995.924147
574.238703,-222.061783,9326.594869,689.485948
574.239024,-814.226536,10362.883188,-1915.238745
574.239344,2368.659014,11029.068536,459.657299
574.239665,3404.947333,8660.409521,3294.210641
574.239985,3701.029710,6365.771101,4136.915689
574.240306,4441.235652,6217.729913,2451.505594
574.240627,2368.659014,6587.832884,0.000000
574.240947,3256.906145,7105.977043,76.609550
574.241268,6513.812290,7994.224174,459.657299
574.241588,7550.100608,5995.668130,-2145.067394
574.241909,8586.388927,5033.400406,-2528.115143
574.242230,7476.080014,7105.977043,-2834.553343
574.242550,5773.606348,9696.697840,-2451.505594
574.242871,6735.874072,11177.109724,-1608.800546
574.243191,8956.491898,8586.388927,-2757.943793
574.243512,8586.388927,6143.709319,-3524.039291
574.243833,9548.656652,6365.771101,-1762.019645
574.244153,7698.141797,10362.883188,306.438199
574.244474,4219.173869,9030.512492,-383.047749
574.244794,4589.276840,5033.400406,-689.485948
574.245115,8512.368333,3404.947333,2221.676944
574.245436,6661.853478,2738.761985,3677.258390
574.245756,4737.318029,5329.482782,3294.210641
574.246077,4885.359217,8586.388927,919.314598
574.246397,3775.050304,9252.574275,-2451.505594
574.246718,4959.379811,6883.915261,-306.438199
574.247039,8734.430116,3775.050304,1838.629195
574.247359,6365.771101,5403.503377,995.924147
574.247680,2590.720797,10807.006753,153.219100
574.248000,3849.070898,14582.057057,-1532.190996
574.248321,3627.009116,12879.583391,-3677.258390
574.248642,6291.750507,9474.636058,-2221.676944
574.248962,7624.121203,7550.100608,766.095498
574.249283,4515.256246,7698.141797,995.924147
574.249603,2516.700203,8586.388927,1149.143247
574.249924,3108.864956,8364.327145,2451.505594
574.250245,3849.070898,5181.441594,1991.848295
574.250565,6957.935855,5255.462188,2221.676944
574.250886,6661.853478,9474.636058,2757.943793
574.251206,3330.926739,10732.986159,-995.924147
574.251527,3256.906145,9030.512492,-2834.553343
574.251848,4589.276840,6365.771101,-2374.896044
574.252168,5921.647536,5773.606348,-995.924147
574.252489,5329.482782,7772.162391,1455.581446
574.252809,3775.050304,12435.459826,-383.047749
574.253130,2220.617826,13545.768739,-3600.648841
574.253451,2812.782580,11177.109724,-3140.991542
574.253771,4367.215058,8882.471304,-1149.143247
574.254092,5995.668130,8586.388927,1532.190996
574.254412,3849.070898,9400.615463,3217.601092
574.254733,3108.864956,8808.450710,689.485948
574.255054,3256.906145,5477.523971,-689.485948
574.255374,2516.700203,2516.700203,995.924147
574.255695,5921.647536,4959.379811,3294.210641
574.256015,6809.894666,8586.388927,4443.353888
574.256336,4515.256246,8586.388927,306.438199
574.256657,6513.812290,6513.812290,-2604.724693
574.256977,7846.182985,4441.235652,-2911.162892
574.257298,4959.379811,5699.585753,-1302.362347
574.257618,5403.503377,8734.430116,612.876398
574.257939,6587.832884,11547.212695,-1149.143247
574.258260,6439.791695,11991.336260,-3064.381992
574.258580,6735.874072,9474.636058,-2145.067394
574.258901,5773.606348,7105.977043,-612.876398
574.259222,6291.750507,8290.306550,1225.752797
574.259542,4959.379811,7772.162391,1991.848295
574.259863,4219.173869,5403.503377,842.705048
574.260183,5329.482782,3108.864956,76.609550
574.260504,6661.853478,4737.318029,2451.505594
574.260825,3849.070898,5847.626942,2834.553343
574.261145,5921.647536,6439.791695,842.705048
574.261466,7624.121203,5699.585753,-689.485948
574.261786,6735.874072,6143.709319,-1838.629195
574.262107,6957.935855,6217.729913,-1455.581446
574.262428,6735.874072,8956.491898,-919.314598
574.262748,5255.462188,10140.821405,-1532.190996
574.263069,7105.977043,11325.150913,-2604.724693
574.263389,7254.018232,8882.471304,-3600.648841
574.263710,4589.276840,9400.615463,-3753.867940
574.264031,5181.441594,11473.192101,-612.876398
574.264351,3775.050304,11991.336260,2068.457845
574.264672,4219.173869,9474.636058,1378.971896
574.264992,4441.235652,5625.565159,689.485948
574.265313,3775.050304,5329.482782,0.000000
574.265634,1702.473667,7476.080014,1302.362347
574.265954,1850.514855,10436.903782,3370.820191
574.266275,3997.112087,9474.636058,2757.943793
574.266595,4737.318029,6513.812290,383.047749
574.266916,5477.523971,5403.503377,-612.876398
574.267237,4071.132681,7772.162391,-1608.800546
574.267557,2294.638420,11325.150913,-1378.971896
574.267878,3923.091493,11843.295072,-842.705048
574.268198,6365.771101,9548.656652,-842.705048
574.268519,7105.977043,7328.038826,-1915.238745
574.268840,6587.832884,10066.800811,-842.705048
574.269160,4293.194464,12065.356855,-689.485948
574.269481,3552.988522,10807.006753,-1378.971896
574.269801,5995.668130,8438.347739,-766.095498
574.270122,6883.915261,4737.318029,0.000000
574.270443,6439.791695,4219.173869,459.657299
574.270763,5477.523971,6957.935855,1838.629195
574.271084,3256.906145,9400.615463,306.438199
574.271404,3923.091493,7328.038826,306.438199
574.271725,5551.544565,3478.967927,0.000000
574.272046,5921.647536,3256.906145,-306.438199
574.272366,6069.688724,10584.944971,1455.581446
574.272687,4071.132681,13619.789333,-229.828649
574.273007,2072.576638,11325.150913,-4596.572988
574.273328,6143.709319,7105.977043,-3294.210641
574.273649,6809.894666,6217.729913,689.485948
574.273969,4441.235652,8660.409521,2757.943793
574.274290,3256.906145,11325.150913,1302.362347
574.274610,2220.617826,9992.780217,-1378.971896
574.274931,4959.379811,6735.874072,-689.485948
574.275252,8142.265362,4737.318029,1608.800546
574.275572,6513.812290,3627.009116,1991.848295
574.275893,4145.153275,5921.647536,1072.533697
574.276213,5033.400406,9252.574275,1149.143247
574.276534,4811.338623,6809.894666,383.047749
574.276855,7179.997637,3849.070898,612.876398
574.277175,7254.018232,5033.400406,383.047749
574.277496,5551.544565,9844.739029,-536.266849
574.277816,4367.215058,12657.521608,-536.266849
574.278137,4885.359217,9844.739029,-2528.115143
574.278458,5921.647536,5995.668130,-3677.258390
574.278778,7402.059420,5699.585753,-459.657299
574.279099,5773.606348,9696.697840,2374.896044
574.279419,2812.782580,13027.624579,306.438199
574.279740,3404.947333,11029.068536,-1072.533697
574.280061,6883.915261,8290.306550,-1225.752797
574.280381,6365.771101,4589.276840,766.095498
574.280702,4885.359217,5625.565159,3370.820191
574.281023,3997.112087,7698.141797,2911.162892
574.281343,2590.720797,8364.327145,-459.657299
574.281664,3330.926739,6513.812290,-766.095498
574.281984,5255.462188,5625.565159,76.609550
574.282305,6143.709319,8290.306550,1762.019645
574.282626,3775.050304,11695.253884,1685.410096
574.282946,4885.359217,12361.439231,-1378.971896
574.283267,4737.318029,9252.574275,-4136.915689
574.283587,3034.844362,4737.318029,-2911.162892
574.283908,4737.318029,7254.018232,1838.629195
574.284228,5551.544565,11325.150913,2604.724693
574.284549,1924.535449,10807.006753,-536.266849
574.284869,6735.874072,8438.347739,-2604.724693
574.285190,7402.059420,6069.688724,-1915.238745
574.285510,5255.462188,5921.647536,0.000000
574.285831,5625.565159,7105.977043,919.314598
574.286152,5107.421000,7179.997637,-612.876398
574.286472,5477.523971,5847.626942,-1455.581446
574.286793,8290.306550,6883.915261,766.095498
574.287113,5847.626942,6513.812290,-1455.581446
574.287434,4367.215058,9992.780217,-3524.039291
574.287754,3997.112087,12657.521608,-1608.800546
574.288075,4737.318029,12435.459826,76.609550
574.288395,4959.379811,8512.368333,-1149.143247
574.288716,4145.153275,6069.688724,-689.485948
574.289036,1998.556043,9474.636058,-383.047749
574.289357,1628.453072,13175.665768,1762.019645
574.289677,1406.391290,11917.315666,2068.457845
574.289998,5107.421000,6661.853478,612.876398
574.290318,6513.812290,4367.215058,229.828649
574.290639,5551.544565,5477.523971,2604.724693
574.290960,3478.967927,8586.388927,2374.896044
574.291280,3034.844362,8882.471304,-153.219100
574.291601,4145.153275,6365.771101,-2451.505594
574.291921,9548.656652,5033.400406,-2374.896044
574.292242,8142.265362,7031.956449,76.609550
574.292562,5625.565159,10436.903782,842.705048
574.292883,4737.318029,11917.315666,-1072.533697
574.293203,5921.647536,10955.047942,-2987.772442
574.293524,7105.977043,7994.224174,-1378.971896
574.293844,7550.100608,7179.997637,1685.410096
574.294165,6365.771101,8512.368333,153.219100
574.294485,3182.885551,8956.491898,-1991.848295
574.294806,2368.659014,7402.059420,-1149.143247
574.295126,5181.441594,5625.565159,0.000000
574.295447,6365.771101,4811.338623,3140.991542
574.295767,3849.070898,5921.647536,4213.525239
574.296088,3849.070898,8808.450710,2298.286494
574.296409,3330.926739,8956.491898,0.000000
574.296729,3404.947333,6365.771101,-612.876398
574.297050,4811.338623,6365.771101,0.000000
574.297370,5551.544565,8068.244768,0.000000
574.297691,2664.741391,9992.780217,-306.438199
574.298011,3997.112087,9474.636058,-612.876398
574.298332,3627.009116,7994.224174,-2298.286494
574.298652,4885.359217,8068.244768,-1838.629195
574.298973,5255.462188,8290.306550,-76.609550
574.299293,4515.256246,10510.924376,459.657299
574.299614,4515.256246,10584.944971,1991.848295
574.299934,5847.626942,8068.244768,2374.896044
574.300255,5181.441594,4959.379811,383.047749
574.300575,3034.844362,3627.009116,-1302.362347
574.300896,4145.153275,5847.626942,0.000000
574.301217,5255.462188,8882.471304,1455.581446
574.301537,5847.626942,8364.327145,0.000000
574.301858,6513.812290,6439.791695,-2451.505594
574.302178,7105.977043,6661.853478,-2681.334243
574.302499,5181.441594,8364.327145,-689.485948
574.302819,3256.906145,10584.944971,1149.143247
574.303140,4145.153275,11103.089130,-689.485948
574.303460,5551.544565,10066.800811,-919.314598
574.303781,5403.503377,8956.491898,1532.190996
574.304101,3404.947333,9474.636058,2145.067394
574.304422,1776.494261,9326.594869,-383.047749
574.304742,740.205942,8586.388927,-2987.772442
574.305063,3404.947333,7105.977043,-2374.896044
574.305383,5773.606348,6735.874072,1149.143247
574.305704,5625.565159,7550.100608,4136.915689
574.306025,4145.153275,8882.471304,3064.381992
574.306345,2886.803174,10288.862594,306.438199
574.306666,3997.112087,11029.068536,-1072.533697
574.306986,6217.729913,9770.718434,-689.485948
574.307307,5921.647536,6957.935855,-536.266849
574.307627,6809.894666,4959.379811,-383.047749
574.307948,7328.038826,6587.832884,-766.095498
574.308268,3997.112087,8142.265362,-1378.971896
574.308589,3849.070898,8734.430116,-2528.115143
574.308909,6809.894666,9992.780217,-2451.505594
574.309230,7994.224174,9548.656652,76.609550
574.309550,6957.935855,7031.956449,1991.848295
574.309871,7846.182985,5921.647536,1991.848295
574.310191,5625.565159,6365.771101,-919.314598
574.310512,3256.906145,5551.544565,-3140.991542
574.310833,5033.400406,3775.050304,-2911.162892
574.311153,7179.997637,5773.606348,-1378.971896
574.311474,8882.471304,9918.759623,229.828649
574.311794,6809.894666,12213.398043,229.828649
574.312115,4589.276840,11399.171507,-3753.867940
574.312435,3627.009116,9474.636058,-3217.601092
574.312756,3552.988522,7994.224174,1455.581446
574.313076,5329.482782,6439.791695,3370.820191
574.313397,3034.844362,6291.750507,1532.190996
574.313717,592.164754,7105.977043,-1455.581446
574.314038,2368.659014,8882.471304,-842.705048
574.314358,3627.009116,9030.512492,766.095498
574.314679,4515.256246,7624.121203,1378.971896
574.314999,6365.771101,7254.018232,1149.143247
574.315320,5699.585753,8068.244768,-383.047749
574.315640,3182.885551,8216.285956,-1225.752797
574.315961,5033.400406,7994.224174,76.609550
574.316282,6735.874072,7994.224174,-153.219100
574.316602,7105.977043,9696.697840,-2145.067394
574.316923,7179.997637,10510.924376,-2298.286494
574.317243,6291.750507,10807.006753,-2451.505594
574.317564,4737.318029,8216.285956,-2298.286494
574.317884,5773.606348,6217.729913,229.828649
574.318205,5181.441594,7772.162391,842.705048
574.318525,3849.070898,8290.306550,612.876398
574.318846,3330.926739,9548.656652,306.438199
574.319166,4293.194464,9844.739029,689.485948
574.319487,2664.741391,8512.368333,995.924147
574.319807,4219.173869,7402.059420,2451.505594
574.320128,3997.112087,6957.935855,919.314598
574.320448,1998.556043,7105.977043,-1532.190996
574.320769,3552.988522,8956.491898,-1378.971896
574.321090,4145.153275,8956.491898,-612.876398
574.321410,3256.906145,8068.244768,76.609550
574.321731,5773.606348,8734.430116,1532.190996
574.322051,5921.647536,9696.697840,-536.266849
574.322372,4367.215058,9696.697840,-3140.991542
574.322692,5255.462188,9844.739029,-1762.019645
574.323013,5329.482782,6883.915261,-536.266849
574.323333,7476.080014,6809.894666,383.047749
574.323654,8142.265362,6587.832884,1685.410096
574.323974,4293.194464,5699.585753,-766.095498
574.324295,4959.379811,6661.853478,-1608.800546
574.324615,6587.832884,8068.244768,1532.190996
574.324936,5403.503377,6587.832884,2068.457845
574.325256,6291.750507,3478.967927,689.485948
574.325577,7476.080014,3404.947333,-766.095498
574.325898,6439.791695,6513.812290,-2528.115143
574.326218,4959.379811,7179.997637,-1991.848295
574.326539,7254.018232,7846.182985,-3524.039291
574.326859,8142.265362,8364.327145,-3140.991542
574.327180,6513.812290,8512.368333,-1149.143247
574.327500,6661.853478,9030.512492,-76.609550
574.327821,4219.173869,8882.471304,-1225.752797
574.328141,4145.153275,10066.800811,-1149.143247
574.328462,4663.297435,10510.924376,-919.314598
574.328782,3478.967927,8290.306550,-1149.143247
574.329103,4219.173869,7105.977043,-306.438199
574.329423,4737.318029,8290.306550,2604.724693
574.329744,3256.906145,8142.265362,2451.505594
574.330064,1776.494261,8438.347739,1685.410096
574.330385,2590.720797,8364.327145,536.266849
574.330706,3034.844362,8734.430116,0.000000
574.331026,4367.215058,9252.574275,1149.143247
574.331347,6365.771101,9548.656652,229.828649
574.331667,5847.626942,10658.965565,-1302.362347
574.331988,5181.441594,10288.862594,-689.485948
574.332308,4515.256246,10288.862594,-1532.190996
574.332629,5625.565159,9992.780217,-1532.190996
574.332949,5477.523971,8660.409521,153.219100
574.333270,7105.977043,8734.430116,766.095498
574.333590,6291.750507,7624.121203,536.266849
574.333911,5847.626942,7920.203579,0.000000
574.334231,5477.523971,7994.224174,612.876398
574.334552,4737.318029,5255.462188,1225.752797
574.334872,5773.606348,4589.276840,1838.629195
574.335193,6735.874072,6809.894666,2221.676944
574.335513,3849.070898,6291.750507,-766.095498
574.335834,3701.029710,5921.647536,-2987.772442
574.336155,5699.585753,7846.182985,-919.314598
574.336475,4959.379811,9548.656652,-459.657299
574.336796,5847.626942,9474.636058,-306.438199
574.337116,5033.400406,9844.739029,-1685.410096
574.337437,4293.194464,11177.109724,-3294.210641
574.337757,2886.803174,9844.739029,-689.485948
574.338078,3923.091493,8734.430116,689.485948
574.338398,3478.967927,7920.203579,1378.971896
574.338719,2664.741391,7105.977043,2911.162892
574.339039,2812.782580,7105.977043,2221.676944
574.339360,4663.297435,7328.038826,612.876398
574.339680,1480.411884,5403.503377,153.219100
574.340001,3775.050304,4663.297435,766.095498
574.340321,5773.606348,5551.544565,919.314598
574.340642,3552.988522,3849.070898,612.876398
574.340963,4145.153275,5033.400406,459.657299
574.341283,8882.471304,6735.874072,-536.266849
574.341604,5995.668130,8808.450710,-2145.067394
574.341924,7698.141797,11029.068536,-3294.210641
574.342245,9178.553681,10807.006753,-4060.306139
574.342565,8512.368333,10362.883188,-3753.867940
574.342886,8808.450710,8142.265362,-689.485948
574.343206,8586.388927,6365.771101,459.657299
574.343527,5033.400406,5181.441594,-459.657299
574.343847,4219.173869,7105.977043,-995.924147
574.344168,3404.947333,8438.347739,536.266849
574.344488,4737.318029,8364.327145,842.705048
574.344809,4589.276840,6365.771101,1762.019645
574.345129,6365.771101,5551.544565,1608.800546
574.345450,4737.318029,6439.791695,-842.705048
574.345771,592.164754,5699.585753,-1532.190996
574.346091,2072.576638,7550.100608,-1455.581446
574.346412,4441.235652,11473.192101,-229.828649
574.346732,4885.359217,13249.686362,383.047749
574.347053,7846.182985,14285.974681,-1072.533697
574.347373,6069.688724,13915.871710,-3064.381992
574.347694,3034.844362,11251.130318,-3064.381992
574.348014,4959.379811,9104.533087,0.000000
574.348335,4441.235652,6661.853478,1685.410096
574.348655,4589.276840,6587.832884,1762.019645
574.348976,4811.338623,9030.512492,2374.896044
574.349296,2590.720797,9548.656652,153.219100
574.349617,4441.235652,8512.368333,-919.314598
574.349937,6291.750507,6809.894666,1838.629195
574.350258,5773.606348,5329.482782,1915.238745
574.350579,6291.750507,4811.338623,1532.190996
574.350899,5107.421000,6217.729913,306.438199
574.351220,4589.276840,8734.430116,-1838.629195
574.351540,5699.585753,10140.821405,-919.314598
574.351861,5995.668130,9844.739029,-2451.505594
574.352181,6957.935855,8808.450710,-4596.572988
574.352502,7105.977043,8142.265362,-2451.505594
574.352822,5699.585753,7772.162391,-919.314598
574.353143,5847.626942,7402.059420,-1225.752797
574.353463,6143.709319,7772.162391,-1149.143247
574.353784,4737.318029,7476.080014,-1455.581446
574.354104,3923.091493,7105.977043,-459.657299
574.354425,4589.276840,6143.709319,2374.896044
574.354745,4737.318029,6957.935855,4060.306139
574.355066,4663.297435,5551.544565,3294.210641
574.355386,3923.091493,6291.750507,383.047749
574.355707,3330.926739,5773.606348,-1762.019645
574.356028,4219.173869,7105.977043,-995.924147
574.356348,5699.585753,9104.533087,612.876398
574.356669,5625.565159,8660.409521,1762.019645
574.356989,7550.100608,9030.512492,1532.190996
574.357310,6513.812290,8734.430116,-459.657299
574.357630,2812.782580,9104.533087,-1455.581446
574.357951,4367.215058,10362.883188,-995.924147
574.358271,4367.215058,9622.677246,-1225.752797
574.358592,5033.400406,6735.874072,-306.438199
574.358912,7772.162391,5255.462188,1762.019645
574.359233,5107.421000,5255.462188,842.705048
574.359553,2442.679609,5847.626942,689.485948
574.359874,3182.885551,7402.059420,2145.067394
574.360194,5107.421000,7920.203579,1455.581446
574.360515,6957.935855,7550.100608,536.266849
574.360836,6735.874072,7179.997637,842.705048
574.361156,6735.874072,8142.265362,-1225.752797
574.361477,6365.771101,9918.759623,-1225.752797
574.361797,4515.256246,9696.697840,-1072.533697
574.362118,5847.626942,9474.636058,-2374.896044
574.362438,7624.121203,8586.388927,-1685.410096
574.362759,4737.318029,9030.512492,-612.876398
574.363079,4441.235652,10066.800811,766.095498
574.363400,3701.029710,11177.109724,689.485948
574.363720,2812.782580,8808.450710,919.314598
574.364041,4959.379811,7031.956449,2221.676944
574.364361,5329.482782,6439.791695,2681.334243
574.364682,3182.885551,7402.059420,2221.676944
574.365002,2664.741391,7550.100608,2604.724693
574.365323,2442.679609,6217.729913,536.266849
574.365644,4367.215058,5921.647536,766.095498
574.365964,6069.688724,7402.059420,1225.752797
574.366285,5625.565159,9252.574275,-306.438199
574.366605,5181.441594,11695.253884,-1685.410096
574.366926,4811.338623,10658.965565,-1991.848295
574.367246,4145.153275,8808.450710,-1838.629195
574.367567,5625.565159,7994.224174,-1378.971896
574.367887,6957.935855,8364.327145,459.657299
574.368208,4441.235652,9178.553681,-1149.143247
574.368528,5551.544565,8808.450710,-1225.752797
574.368849,4663.297435,6439.791695,-536.266849
574.369169,3997.112087,4071.132681,1072.533697
574.369490,5625.565159,6069.688724,2298.286494
574.369810,5773.606348,7254.018232,2068.457845
574.370131,4071.132681,6291.750507,-766.095498
574.370452,7031.956449,4959.379811,-2298.286494
574.370772,7254.018232,5699.585753,-1991.848295
574.371093,6513.812290,7328.038826,-1302.362347
574.371413,5995.668130,9770.718434,-76.609550
574.371734,6069.688724,11325.150913,-919.314598
574.372054,7550.100608,11399.171507,-2068.457845
574.372375,7031.956449,10584.944971,-995.924147
574.372695,3404.947333,7994.224174,-3064.381992
574.373016,4145.153275,7550.100608,-2987.772442
574.373336,3034.844362,8438.347739,919.314598
574.373657,1776.494261,7772.162391,1991.848295
574.373977,3849.070898,7105.977043,2681.334243
574.374298,3108.864956,7772.162391,919.314598
574.374618,2368.659014,9844.739029,459.657299
574.374939,3849.070898,9992.780217,1991.848295
574.375259,4219.173869,8142.265362,383.047749
574.375580,4811.338623,5921.647536,-383.047749
574.375901,6069.688724,5995.668130,1072.533697
574.376221,5107.421000,8660.409521,536.266849
574.376542,4663.297435,10288.862594,-1685.410096
574.376862,6365.771101,10362.883188,-2911.162892
574.377183,7105.977043,10362.883188,-3753.867940
574.377503,8512.368333,9178.553681,-2374.896044
574.377824,7254.018232,8882.471304,995.924147
574.378144,6143.709319,9252.574275,1072.533697
574.378465,4367.215058,7402.059420,-459.657299
574.378785,5033.400406,7698.141797,-1225.752797
574.379106,4959.379811,6365.771101,0.000000
574.379426,5033.400406,6587.832884,919.314598
574.379747,5033.400406,6735.874072,2911.162892
574.380067,6661.853478,7920.203579,2451.505594
574.380388,4441.235652,6883.915261,383.047749
574.380709,2812.782580,5699.585753,-536.266849
574.381029,5033.400406,7328.038826,0.000000
574.381350,4737.318029,9400.615463,-536.266849
574.381670,3849.070898,10288.862594,-766.095498
574.381991,7550.100608,10288.862594,-689.485948
574.382311,6439.791695,9918.759623,-1762.019645
574.382632,2886.803174,8142.265362,-1762.019645
574.382952,3627.009116,6809.894666,76.609550
574.383273,4293.194464,7402.059420,919.314598
574.383594,3997.112087,8734.430116,2145.067394
574.383914,4737.318029,9252.574275,3294.210641
574.384235,3849.070898,7624.121203,-383.047749
574.384556,3775.050304,6809.894666,-842.705048
574.384876,3034.844362,6587.832884,2451.505594
574.385197,3404.947333,4737.318029,2068.457845
574.385518,5107.421000,4071.132681,-76.609550
574.385838,4441.235652,5847.626942,-1072.533697
574.386159,4663.297435,9918.759623,-1532.190996
574.386480,5699.585753,12065.356855,-689.485948
574.386800,6957.935855,12435.459826,229.828649
574.387121,6735.874072,9770.718434,-1072.533697
574.387442,5625.565159,6735.874072,-1915.238745
574.387762,4589.276840,5255.462188,-1991.848295
574.388083,4885.359217,7105.977043,-766.095498
574.388404,4589.276840,7402.059420,153.219100
574.388724,5033.400406,8586.388927,76.609550
574.389045,7105.977043,8586.388927,0.000000
574.389366,6291.750507,8142.265362,842.705048
574.389686,5329.482782,7328.038826,1991.848295
574.390007,3627.009116,5551.544565,1532.190996
574.390328,4589.276840,4663.297435,-229.828649
574.390648,7031.956449,5403.503377,-306.438199
574.390969,7624.121203,8216.285956,-536.266849
574.391290,6809.894666,11177.109724,-1455.581446
574.391611,5181.441594,12435.459826,-1762.019645
574.391931,6883.915261,12879.583391,0.000000
574.392252,4959.379811,9400.615463,-1149.143247
574.392573,4219.173869,5329.482782,-1685.410096
574.392893,5699.585753,6587.832884,-459.657299
574.393214,4145.153275,9992.780217,-153.219100
574.393535,1628.453072,9326.594869,766.095498
574.393855,5773.606348,8142.265362,766.095498
574.394176,6809.894666,7772.162391,612.876398
574.394497,4441.235652,7402.059420,2528.115143
574.394817,4441.235652,7179.997637,2145.067394
574.395138,4885.359217,6365.771101,0.000000
574.395459,3997.112087,5181.441594,-689.485948
574.395779,6883.915261,6439.791695,612.876398
574.396100,7402.059420,6587.832884,-1302.362347
574.396421,5403.503377,9696.697840,-3983.696590
574.396741,5181.441594,12879.583391,-2068.457845
574.397062,5329.482782,12361.439231,-2604.724693
574.397383,6957.935855,9326.594869,-1685.410096
574.397703,4219.173869,6439.791695,229.828649
574.398024,4737.318029,8216.285956,153.219100
574.398345,2294.638420,10732.986159,842.705048
574.398665,0.000000,9400.615463,0.000000
574.398986,3182.885551,7698.141797,-459.657299
574.399307,4959.379811,6513.812290,1532.190996
574.399627,3034.844362,5181.441594,2298.286494
574.399948,3404.947333,8290.306550,2604.724693
574.400269,2220.617826,8734.430116,153.219100
574.400589,1702.473667,8142.265362,-2298.286494
574.400910,5403.503377,6809.894666,-919.314598
574.401231,6365.771101,7550.100608,0.000000
574.401551,5403.503377,9844.739029,0.000000
574.401872,5033.400406,10955.047942,-995.924147
574.402193,6439.791695,11843.295072,-3447.429741
574.402513,6217.729913,10066.800811,-3447.429741
574.402834,4663.297435,7550.100608,-1455.581446
574.403155,5847.626942,8290.306550,306.438199
574.403475,3923.091493,8438.347739,2221.676944
574.403796,4441.235652,9030.512492,3064.381992
574.404117,5699.585753,7476.080014,1072.533697
574.404437,3404.947333,3775.050304,995.924147
574.404758,3627.009116,5477.523971,1685.410096
574.405079,3478.967927,7698.141797,2451.505594
574.405399,1924.535449,6439.791695,0.000000
574.405720,7698.141797,4959.379811,-536.266849
574.406041,8808.450710,5995.668130,-1608.800546
574.406361,4737.318029,8808.450710,-2451.505594
574.406682,5181.441594,10732.986159,-1532.190996
574.407003,6587.832884,10881.027347,-1302.362347
574.407323,7994.224174,9474.636058,-2374.896044
574.407644,8438.347739,7994.224174,-459.657299
574.407965,6513.812290,6661.853478,-1685.410096
574.408285,4811.338623,7772.162391,-2298.286494
574.408606,4663.297435,9178.553681,919.314598
574.408927,5181.441594,7328.038826,1685.410096
574.409247,6809.894666,5773.606348,1685.410096
574.409568,4589.276840,4515.256246,3140.991542
574.409889,2812.782580,6587.832884,1532.190996
574.410209,3701.029710,7846.182985,536.266849
574.410530,3923.091493,7105.977043,0.000000
574.410851,5625.565159,4737.318029,-2451.505594
574.411171,6587.832884,5181.441594,-1685.410096
574.411492,6143.709319,9622.677246,-689.485948
574.411813,3182.885551,12953.603985,-1455.581446
574.412133,3997.112087,12731.542202,-2451.505594
574.412454,7624.121203,11399.171507,-3294.210641
574.412775,6291.750507,8438.347739,-2681.334243
574.413095,3849.070898,7105.977043,-1378.971896
574.413416,4367.215058,8586.388927,536.266849
574.413737,2812.782580,8586.388927,1915.238745
574.414057,4071.132681,7994.224174,1302.362347
574.414378,5033.400406,7105.977043,0.000000
574.414699,4959.379811,7105.977043,-689.485948
574.415019,4737.318029,9474.636058,383.047749
574.415340,3701.029710,9474.636058,1991.848295
574.415661,4885.359217,6513.812290,306.438199
574.415981,6439.791695,5403.503377,0.000000
574.416302,5181.441594,6513.812290,-689.485948
574.416623,5995.668130,9918.759623,-1455.581446
574.416943,4737.318029,11843.295072,-2528.115143
574.417264,4663.297435,11917.315666,-3370.820191
574.417585,7698.141797,11399.171507,-1532.190996
574.417905,6735.874072,9400.615463,-536.266849
574.418226,3552.988522,8290.306550,-153.219100
574.418547,3775.050304,7105.977043,383.047749
574.418868,2294.638420,7550.100608,766.095498
574.419188,2516.700203,8142.265362,766.095498
574.419509,4293.194464,6513.812290,1072.533697
574.419830,4145.153275,6291.750507,153.219100
574.420150,4885.359217,8586.388927,842.705048
574.420471,3701.029710,9326.594869,1685.410096
574.420792,3034.844362,6957.935855,-383.047749
574.421112,5921.647536,6957.935855,-1378.971896
574.421433,4737.318029,7476.080014,0.000000
574.421754,5107.421000,9178.553681,229.828649
574.422074,8290.306550,9178.553681,689.485948
574.422395,5477.523971,8586.388927,-2221.676944
574.422716,5255.462188,8808.450710,-3064.381992
574.423036,6069.688724,7920.203579,-1532.190996
574.423357,3627.009116,6809.894666,-1225.752797
574.423678,4145.153275,7105.977043,766.095498
574.423998,5921.647536,7328.038826,2451.505594
574.424319,4367.215058,8882.471304,-919.314598
574.424640,1998.556043,8734.430116,-1532.190996
574.424960,2812.782580,7328.038826,229.828649
574.425281,4663.297435,6661.853478,689.485948
574.425602,4145.153275,5921.647536,2068.457845
574.425922,4885.359217,7402.059420,1762.019645
574.426243,5551.544565,9918.759623,-76.609550
574.426564,5551.544565,10955.047942,-1225.752797
574.426884,6291.750507,9400.615463,229.828649
574.427205,7846.182985,7031.956449,306.438199
574.427526,7624.121203,6365.771101,1149.143247
574.427846,6513.812290,7105.977043,459.657299
574.428167,5181.441594,6957.935855,-1608.800546
574.428488,5773.606348,5847.626942,-2068.457845
574.428808,6143.709319,6809.894666,-766.095498
574.429129,7476.080014,9252.574275,612.876398
574.429450,4959.379811,9474.636058,383.047749
574.429770,3701.029710,9178.553681,-1532.190996
574.430091,7105.977043,8216.285956,-766.095498
574.430412,5477.523971,7105.977043,612.876398
574.430732,4071.132681,6069.688724,919.314598
574.431053,5773.606348,7846.182985,383.047749
574.431374,5551.544565,9252.574275,-536.266849
574.431694,4737.318029,10510.924376,0.000000
574.432015,6957.935855,9622.677246,919.314598
574.432336,5625.565159,7105.977043,-842.705048
574.432656,4367.215058,7846.182985,-459.657299
574.432977,3552.988522,8216.285956,1762.019645
574.433298,3627.009116,6365.771101,459.657299
574.433618,4737.318029,5551.544565,689.485948
574.433939,7031.956449,6587.832884,0.000000
574.434260,4737.318029,9548.656652,-1915.238745
574.434580,3627.009116,9474.636058,-1991.848295
574.434901,5995.668130,10510.924376,-1608.800546
574.435222,6735.874072,9326.594869,-536.266849
574.435542,7105.977043,6513.812290,1685.410096
574.435863,8364.327145,6957.935855,1149.143247
574.436184,3256.906145,7698.141797,-1072.533697
574.436504,3478.967927,8068.244768,-1149.143247
574.436825,6439.791695,7105.977043,1072.533697
574.437146,7105.977043,5773.606348,1225.752797
574.437466,7105.977043,6143.709319,459.657299
574.437787,5403.503377,8068.244768,0.000000
574.438108,2516.700203,8660.409521,-3217.601092
574.438428,2886.803174,8438.347739,-2451.505594
574.438749,5551.544565,7624.121203,766.095498
574.439070,7402.059420,9622.677246,153.219100
574.439390,4367.215058,11547.212695,-459.657299
574.439711,518.144159,11103.089130,-1915.238745
574.440032,2220.617826,11473.192101,-2374.896044
574.440352,4589.276840,9178.553681,612.876398
574.440673,3330.926739,6735.874072,1685.410096
574.440994,3997.112087,5107.421000,306.438199
574.441314,2886.803174,8882.471304,612.876398
574.441635,2368.659014,12213.398043,2987.772442
574.441956,3034.844362,11325.150913,2834.553343
574.442276,6365.771101,8068.244768,383.047749
574.442597,6291.750507,6365.771101,-919.314598
574.442918,3404.947333,4441.235652,0.000000
574.443238,3552.988522,5255.462188,919.314598
574.443559,4515.256246,6291.750507,383.047749
574.443880,6291.750507,7994.224174,-766.095498
574.444200,7772.162391,10510.924376,-1915.238745
574.444521,6661.853478,10510.924376,-2757.943793
574.444842,5995.668130,9474.636058,-1532.190996
574.445162,5773.606348,8586.388927,1072.533697
574.445483,6365.771101,7328.038826,0.000000
574.445804,7254.018232,5847.626942,0.000000
574.446125,5329.482782,5699.585753,0.000000
574.446445,4515.256246,7105.977043,-1225.752797
574.446766,3552.988522,7698.141797,-306.438199
574.447087,4811.338623,8808.450710,383.047749
574.447407,5033.400406,6957.935855,536.266849
574.447728,3775.050304,4515.256246,383.047749
574.448049,5033.400406,5033.400406,0.000000
574.448369,3849.070898,7698.141797,0.000000
574.448690,2220.617826,8438.347739,-153.219100
574.449011,4737.318029,8586.388927,-1072.533697
574.449331,8660.409521,8290.306550,-1455.581446
574.449652,7254.018232,8586.388927,-536.266849
574.449973,6587.832884,9326.594869,306.438199
574.450293,6809.894666,8734.430116,612.876398
574.450614,6217.729913,7624.121203,-995.924147
574.450935,6365.771101,7105.977043,-995.924147
574.451255,6809.894666,5551.544565,-459.657299
574.451576,6587.832884,5107.421000,76.609550
574.451897,6735.874072,7105.977043,2298.286494
574.452217,5847.626942,9252.574275,1532.190996
574.452538,7105.977043,8438.347739,-1225.752797
574.452859,5033.400406,5995.668130,-2604.724693
574.453179,4219.173869,5995.668130,-1149.143247
574.453500,4441.235652,9918.759623,766.095498
574.453821,3404.947333,11621.233289,1685.410096
574.454141,2664.741391,10066.800811,-842.705048
574.454462,5921.647536,8290.306550,-2221.676944
574.454783,3478.967927,8512.368333,-995.924147
574.455103,1406.391290,9104.533087,0.000000
574.455424,1406.391290,10362.883188,-383.047749
574.455745,2960.823768,10881.027347,-536.266849
574.456065,5551.544565,11621.233289,0.000000
574.456386,5033.400406,10658.965565,0.000000
574.456707,3034.844362,8068.244768,-1149.143247
574.457027,4219.173869,9474.636058,229.828649
574.457348,2294.638420,9770.718434,1838.629195
574.457669,2220.617826,7328.038826,1685.410096
574.457989,5773.606348,5033.400406,1762.019645
574.458310,5181.441594,5625.565159,919.314598
574.458631,3775.050304,7105.977043,459.657299
574.458951,3404.947333,7402.059420,-383.047749
574.459272,5625.565159,7846.182985,-2528.115143
574.459593,7550.100608,6439.791695,-919.314598
574.459913,9104.533087,7624.121203,1149.143247
574.460234,9696.697840,9770.718434,-153.219100
574.460555,5403.503377,9844.739029,-2681.334243
574.460875,4811.338623,8068.244768,-2987.772442
574.461196,7328.038826,5995.668130,-2221.676944
574.461517,7328.038826,5403.503377,-766.095498
574.461837,5551.544565,7402.059420,766.095498
574.462158,4589.276840,9400.615463,229.828649
574.462479,3256.906145,8068.244768,-1762.019645
574.462799,3256.906145,6661.853478,-1072.533697
574.463120,5181.441594,5329.482782,1455.581446
574.463441,4737.318029,6365.771101,2451.505594
574.463761,2960.823768,8734.430116,3524.039291
574.464082,2590.720797,9622.677246,2298.286494
574.464403,3182.885551,8586.388927,-459.657299
574.464723,4737.318029,7179.997637,-1378.971896
574.465044,5403.503377,5625.565159,-1302.362347
574.465365,4367.215058,4959.379811,-1532.190996
574.465685,5625.565159,8290.306550,-306.438199
574.466006,7994.224174,11695.253884,1072.533697
574.466327,6217.729913,9844.739029,-842.705048
574.466647,8068.244768,8068.244768,-919.314598
574.466968,8882.471304,8586.388927,0.000000
574.467289,5551.544565,7179.997637,842.705048
574.467609,6143.709319,6143.709319,2451.505594
574.467930,7179.997637,3552.988522,1991.848295
574.468251,6735.874072,3404.947333,-919.314598
574.468571,6513.812290,5847.626942,-1149.143247
574.468892,4441.235652,7624.121203,-2374.896044
574.469213,5181.441594,8882.471304,-2145.067394
574.469533,5329.482782,9548.656652,1685.410096
574.469854,4811.338623,9474.636058,1302.362347
574.470175,4663.297435,8068.244768,1378.971896
574.470495,2738.761985,7550.100608,383.047749
574.470816,1554.432478,10066.800811,-2987.772442
574.471137,2886.803174,11695.253884,-3983.696590
574.471457,3256.906145,11695.253884,-3140.991542
574.471778,5551.544565,11103.089130,-842.705048
574.472099,3478.967927,10584.944971,2604.724693
574.472419,1258.350101,9548.656652,1608.800546
574.472740,740.205942,8512.368333,842.705048
574.473061,1628.453072,7328.038826,842.705048
574.473382,1776.494261,5699.585753,1225.752797
574.473702,4737.318029,5181.441594,2068.457845
574.474023,6217.729913,7402.059420,536.266849
574.474344,4737.318029,10732.986159,-842.705048
574.474664,5033.400406,10066.800811,-1149.143247
574.474985,7254.018232,8734.430116,-2757.943793
574.475306,7328.038826,8882.471304,-2681.334243
574.475626,6587.832884,8882.471304,76.609550
574.475947,5921.647536,9104.533087,1072.533697
574.476268,7698.141797,9104.533087,-229.828649
574.476588,7994.224174,7920.203579,-842.705048
574.476909,6069.688724,6587.832884,-1915.238745
574.477230,4885.359217,5995.668130,-1915.238745
574.477550,5255.462188,7846.182985,-306.438199
574.477871,3404.947333,6735.874072,1762.019645
574.478192,6735.874072,6217.729913,1762.019645
574.478512,7920.203579,6365.771101,0.000000
574.478833,3627.009116,6587.832884,-1225.752797
574.479154,2516.700203,7105.977043,-766.095498
574.479474,4441.235652,7920.203579,229.828649
574.479795,5699.585753,7476.080014,0.000000
574.480116,7698.141797,9992.780217,153.219100
574.480436,5773.606348,11251.130318,-1608.800546
574.480757,3256.906145,10658.965565,-3983.696590
574.481078,4145.153275,9548.656652,-842.705048
574.481398,4441.235652,9326.594869,1072.533697
574.481719,5995.668130,7476.080014,1915.238745
574.482040,7105.977043,6809.894666,2834.553343
574.482360,3701.029710,7698.141797,306.438199
574.482681,3034.844362,7846.182985,689.485948
574.483002,5033.400406,7105.977043,2987.772442
574.483322,6513.812290,6143.709319,1991.848295
574.483643,5033.400406,3849.070898,1991.848295
574.483964,5773.606348,4071.132681,1685.410096
574.484284,5847.626942,6069.688724,-459.657299
574.484605,4663.297435,7105.977043,-1378.971896
574.484926,6957.935855,7698.141797,-2374.896044
574.485246,8216.285956,8660.409521,-3447.429741
574.485567,8068.244768,9622.677246,-2604.724693
574.485887,7105.977043,11251.130318,-612.876398
574.486208,5847.626942,11103.089130,-689.485948
574.486528,4589.276840,9770.718434,-1991.848295
574.486849,4885.359217,9326.594869,-1149.143247
574.487170,3108.864956,7624.121203,-536.266849
574.487490,2368.659014,5921.647536,-306.438199
574.487811,2664.741391,5699.585753,1149.143247
574.488131,3849.070898,8068.244768,1838.629195
574.488452,1406.391290,8882.471304,2298.286494
574.488772,1628.453072,8142.265362,1532.190996
574.489093,2812.782580,7179.997637,0.000000
574.489413,3034.844362,7328.038826,1455.581446
574.489734,3552.988522,10066.800811,2374.896044
574.490054,4663.297435,11399.171507,-153.219100
574.490375,2590.720797,9474.636058,-3830.477490
574.490695,5625.565159,9252.574275,-3370.820191
574.491016,7179.997637,9548.656652,-612.876398
574.491336,5625.565159,10807.006753,0.000000
574.491657,5477.523971,10881.027347,842.705048
574.491978,5107.421000,9770.718434,229.828649
574.492298,4885.359217,7550.100608,-1532.190996
574.492619,6291.750507,6957.935855,1072.533697
574.492939,3701.029710,5329.482782,306.438199
574.493260,4293.194464,7328.038826,-1149.143247
574.493580,4219.173869,8216.285956,1225.752797
574.493901,2738.761985,7772.162391,459.657299
574.494221,5107.421000,7328.038826,1149.143247
574.494542,5551.544565,7254.018232,919.314598
574.494862,3997.112087,8956.491898,-2451.505594
574.495183,3775.050304,10658.965565,-3370.820191
574.495503,5477.523971,9474.636058,-3370.820191
574.495824,8364.327145,8290.306550,-1149.143247
574.496145,9104.533087,9104.533087,919.314598
574.496465,6809.894666,10732.986159,153.219100
574.496786,4663.297435,10658.965565,-3064.381992
574.497106,4219.173869,7328.038826,-1532.190996
574.497427,4515.256246,5625.565159,689.485948
574.497747,5921.647536,4293.194464,2987.772442
574.498068,6069.688724,5921.647536,3907.087040
574.498388,4885.359217,6809.894666,1915.238745
574.498709,3552.988522,6661.853478,0.000000
574.499029,5033.400406,6439.791695,383.047749
574.499350,5181.441594,5773.606348,612.876398
574.499670,5995.668130,6809.894666,1378.971896
574.499991,6735.874072,7772.162391,459.657299
574.500312,5699.585753,8734.430116,-2911.162892
574.500632,4515.256246,8586.388927,-3983.696590
574.500953,5403.503377,8586.388927,-3677.258390
574.501273,5773.606348,9474.636058,-2068.457845
574.501594,5995.668130,9474.636058,0.000000
574.501914,5477.523971,10658.965565,-842.705048
574.502235,6143.709319,9400.615463,-689.485948
574.502555,3849.070898,5033.400406,-229.828649
574.502876,3108.864956,3404.947333,1225.752797
574.503196,3849.070898,6809.894666,2604.724693
574.503517,3182.885551,9178.553681,1532.190996
574.503837,2072.576638,8512.368333,-383.047749
574.504158,7550.100608,9178.553681,-383.047749
574.504478,5773.606348,10510.924376,153.219100
574.504799,1036.288319,8660.409521,-919.314598
574.505120,2886.803174,6217.729913,-995.924147
574.505440,4367.215058,6143.709319,-766.095498
574.505761,4515.256246,8586.388927,-306.438199
574.506081,5773.606348,11769.274478,306.438199
574.506402,5699.585753,11325.150913,-3140.991542
574.506722,5995.668130,14063.912898,-2834.553343
574.507043,6069.688724,12065.356855,995.924147
574.507363,4219.173869,5995.668130,-229.828649
574.507684,7105.977043,2516.700203,2221.676944
574.508004,4885.359217,3775.050304,4826.401637
574.508325,1702.473667,7105.977043,1532.190996
574.508645,2442.679609,7698.141797,-1302.362347
574.508966,5551.544565,8364.327145,-3294.210641
574.509287,6513.812290,8734.430116,-1762.019645
574.509607,7846.182985,6661.853478,1608.800546
574.509928,7105.977043,6143.709319,-76.609550
574.510248,4441.235652,6291.750507,-2298.286494
574.510569,5255.462188,7698.141797,-536.266849
574.510889,7994.224174,9104.533087,-766.095498
574.511210,9326.594869,8956.491898,-2145.067394
574.511530,8142.265362,9252.574275,-1685.410096
574.511851,7846.182985,8882.471304,-1455.581446
574.512171,7105.977043,6661.853478,-1072.533697
574.512492,5921.647536,4071.132681,-1149.143247
574.512812,5995.668130,4959.379811,-919.314598
574.513133,6883.915261,5329.482782,-306.438199
574.513453,5625.565159,7179.997637,459.657299
574.513774,6587.832884,9104.533087,2145.067394
574.514095,6809.894666,8512.368333,2221.676944
574.514415,5551.544565,6661.853478,842.705048
574.514736,5625.565159,6143.709319,-689.485948
574.515056,5181.441594,7698.141797,-1225.752797
574.515377,4219.173869,6291.750507,-1532.190996
574.515697,8364.327145,5773.606348,-689.485948
574.516018,12065.356855,7550.100608,766.095498
574.516338,9178.553681,9252.574275,1072.533697
574.516659,9696.697840,7846.182985,766.095498
574.516979,9474.636058,4663.297435,306.438199
574.517300,9474.636058,2368.659014,153.219100
574.517620,11251.130318,2220.617826,1685.410096
574.517941,11473.192101,2664.741391,-995.924147
574.518262,8956.491898,3034.844362,-4979.620737
574.518582,10584.944971,5625.565159,-3600.648841
574.518903,12361.439231,6883.915261,-842.705048
574.519223,11251.130318,7698.141797,0.000000
574.519544,9178.553681,6883.915261,1532.190996
574.519864,7698.141797,6217.729913,1302.362347
574.520185,7772.162391,5403.503377,689.485948
574.520505,7698.141797,3849.070898,1302.362347
574.520826,7846.182985,4441.235652,459.657299
574.521146,9548.656652,4737.318029,-536.266849
574.521467,8364.327145,5181.441594,-766.095498
574.521787,8216.285956,3923.091493,-229.828649
574.522108,9474.636058,4219.173869,229.828649
574.522428,10436.903782,5255.462188,1072.533697
574.522749,9696.697840,6069.688724,0.000000
574.523070,8290.306550,4663.297435,-995.924147
574.523390,10140.821405,3404.947333,-842.705048
574.523711,12213.398043,4959.379811,459.657299
574.524031,8808.450710,6365.771101,0.000000
574.524352,8142.265362,8068.244768,-1762.019645
574.524672,8734.430116,8808.450710,-1915.238745
574.524993,9844.739029,7105.977043,-459.657299
574.525313,9992.780217,4811.338623,2451.505594
574.525634,9400.615463,3775.050304,2145.067394
574.525954,6735.874072,5107.421000,153.219100
574.526275,5403.503377,6439.791695,0.000000
574.526595,7994.224174,4737.318029,-229.828649
574.526916,11695.253884,3849.070898,842.705048
574.527237,11843.295072,4737.318029,2298.286494
574.527557,8808.450710,6809.894666,1685.410096
574.527878,8586.388927,8586.388927,-995.924147
574.528198,9104.533087,5921.647536,-1762.019645
574.528519,12139.377449,2590.720797,-306.438199
574.528839,14211.954086,1554.432478,306.438199
574.529160,11473.192101,3775.050304,-1455.581446
574.529480,9696.697840,7179.997637,-2528.115143
574.529801,10881.027347,8586.388927,-1072.533697
574.530121,12287.418637,6143.709319,689.485948
574.530442,14137.933492,5181.441594,2451.505594
574.530762,9918.759623,4145.153275,1685.410096
574.531083,7328.038826,4293.194464,-919.314598
574.531403,6661.853478,3923.091493,0.000000
574.531724,6809.894666,1998.556043,229.828649
574.532045,8734.430116,2738.761985,383.047749
574.532365,9400.615463,5847.626942,229.828649
574.532686,4219.173869,7994.224174,-2681.334243
574.533006,4959.379811,8512.368333,-1608.800546
574.533327,7476.080014,7550.100608,842.705048
574.533647,8586.388927,7920.203579,536.266849
574.533968,6735.874072,6883.915261,459.657299
574.534288,4885.359217,7624.121203,-995.924147
574.534609,5107.421000,8142.265362,-1838.629195
574.534929,6587.832884,7105.977043,-153.219100
574.535250,7698.141797,4589.276840,-612.876398
574.535570,10436.903782,5181.441594,-1302.362347
574.535891,8882.471304,7328.038826,229.828649
574.536212,7179.997637,9400.615463,2145.067394
574.536532,8808.450710,5995.668130,3064.381992
574.536853,10362.883188,1924.535449,2451.505594
574.537173,11251.130318,1332.370696,1072.533697
574.537494,9918.759623,2886.803174,0.000000
574.537814,9992.780217,4071.132681,-1991.848295
574.538135,11843.295072,3849.070898,-2604.724693
574.538455,14063.912898,3182.885551,-1225.752797
574.538776,14508.036463,4293.194464,383.047749
574.539096,11917.315666,6439.791695,-2374.896044
574.539417,10066.800811,6587.832884,-4136.915689
574.539737,12065.356855,6957.935855,-3217.601092
574.540058,13693.809927,5403.503377,153.219100
574.540378,11843.295072,4441.235652,1532.190996
574.540699,9992.780217,4663.297435,153.219100
574.541020,8364.327145,6439.791695,-2221.676944
574.541340,5921.647536,7402.059420,-1608.800546
574.541661,7031.956449,6587.832884,766.095498
574.541981,8068.244768,4885.359217,3064.381992
574.542302,7920.203579,5033.400406,2681.334243
574.542622,5625.565159,5921.647536,2374.896044
574.542943,3478.967927,6661.853478,1378.971896
574.543263,5329.482782,7179.997637,1149.143247
574.543584,7920.203579,7031.956449,1378.971896
574.543904,8364.327145,5995.668130,153.219100
574.544225,8216.285956,5181.441594,-1149.143247
574.544545,9918.759623,6513.812290,-383.047749
574.544866,9474.636058,6883.915261,842.705048
574.545187,9918.759623,4885.359217,383.047749
574.545507,13619.789333,1924.535449,-1072.533697
574.545828,13397.727550,1702.473667,-2145.067394
574.546148,11695.253884,2368.659014,-1225.752797
574.546469,13323.706956,3552.988522,76.609550
574.546789,14137.933492,3182.885551,0.000000
574.547110,14211.954086,1628.453072,-919.314598
574.547430,15544.324782,2812.782580,-1225.752797
574.547751,13027.624579,4737.318029,-2987.772442
574.548071,10066.800811,6143.709319,-3447.429741
574.548392,9104.533087,7031.956449,-1302.362347
574.548712,10066.800811,5773.606348,-383.047749
574.549033,10510.924376,4515.256246,919.314598
574.549353,8734.430116,5107.421000,766.095498
574.549674,6439.791695,7105.977043,-1149.143247
574.549995,3108.864956,7624.121203,-995.924147
574.550315,3034.844362,6809.894666,536.266849
574.550636,6439.791695,5847.626942,1685.410096
574.550956,6957.935855,6587.832884,2757.943793
574.551277,5773.606348,8956.491898,1608.800546
574.551597,4367.215058,9252.574275,76.609550
574.551918,3849.070898,7994.224174,0.000000
574.552238,6439.791695,6069.688724,1762.019645
574.552559,9104.533087,4959.379811,3064.381992
574.552879,9770.718434,6587.832884,1455.581446
574.553200,9178.553681,7179.997637,153.219100
574.553520,8216.285956,5773.606348,-1225.752797
574.553841,11103.089130,3034.844362,-1149.143247
574.554162,13249.686362,444.123565,306.438199
574.554482,14582.057057,1480.411884,-383.047749
574.554803,15174.221811,4663.297435,-1838.629195
574.555123,13989.892304,6069.688724,-2987.772442
574.555444,14434.015869,5181.441594,-2374.896044
574.555764,15470.304188,3775.050304,-766.095498
574.556085,14804.118840,3182.885551,0.000000
574.556405,12879.583391,4663.297435,-842.705048
574.556726,10584.944971,5329.482782,-1838.629195
574.557046,9104.533087,4737.318029,-2145.067394
574.557367,8882.471304,3849.070898,-306.438199
574.557687,7920.203579,3923.091493,1225.752797
574.558008,6809.894666,5699.585753,1072.533697
574.558329,4959.379811,5921.647536,0.000000
574.558649,4885.359217,6809.894666,-1149.143247
574.558970,5699.585753,7476.080014,536.266849
574.559290,5699.585753,7550.100608,2298.286494
574.559611,5181.441594,8586.388927,2681.334243
574.559931,5033.400406,9400.615463,1149.143247
574.560252,4515.256246,8586.388927,689.485948
574.560572,4367.215058,6365.771101,536.266849
574.560893,5773.606348,4145.153275,612.876398
574.561213,8512.368333,4737.318029,536.266849
574.561534,8808.450710,6587.832884,76.609550
574.561854,10288.862594,7328.038826,-536.266849
574.562175,11917.315666,5699.585753,0.000000
574.562495,12657.521608,2886.803174,842.705048
574.562816,13027.624579,0.000000,1225.752797
574.563137,14211.954086,-370.102971,-306.438199
574.563457,15100.201217,1036.288319,-2834.553343
574.563778,16062.468941,4367.215058,-3524.039291
574.564098,16580.613101,6587.832884,-3064.381992
574.564419,15544.324782,6365.771101,-2374.896044
574.564739,14359.995275,5699.585753,-842.705048
574.565060,11695.253884,4441.235652,-612.876398
574.565380,8734.430116,3108.864956,-1149.143247
574.565701,7402.059420,2590.720797,-1225.752797
574.566021,7105.977043,2886.803174,-1225.752797
574.566342,7031.956449,5255.462188,-459.657299
574.566662,6883.915261,8808.450710,766.095498
574.566983,5847.626942,11177.109724,536.266849
574.567304,4219.173869,10510.924376,0.000000
574.567624,4219.173869,7994.224174,1378.971896
574.567945,3775.050304,5181.441594,3524.039291
574.568265,3034.844362,4737.318029,3677.258390
574.568586,3478.967927,5847.626942,2834.553343
574.568906,5329.482782,7772.162391,383.047749
574.569227,7105.977043,8882.471304,-536.266849
574.569547,8956.491898,8660.409521,-536.266849
574.569868,10807.006753,7105.977043,153.219100
574.570188,10881.027347,5255.462188,842.705048
574.570509,11029.068536,3034.844362,1072.533697
574.570829,11843.295072,2368.659014,76.609550
574.571150,12065.356855,2220.617826,-766.095498
574.571470,12361.439231,2590.720797,-1685.410096
574.571791,13841.851115,4145.153275,-2374.896044
574.572112,13915.871710,5995.668130,-2911.162892
574.572432,13397.727550,6735.874072,-3217.601092
574.572753,12731.542202,6587.832884,-2298.286494
574.573073,11843.295072,5329.482782,-766.095498
574.573394,10436.903782,3849.070898,1225.752797
574.573714,8438.347739,4145.153275,1225.752797
574.574035,7402.059420,5551.544565,0.000000
574.574355,7179.997637,6661.853478,-1149.143247
574.574676,7105.977043,6439.791695,-766.095498
574.574996,7031.956449,5255.462188,0.000000
574.575317,7031.956449,4441.235652,153.219100
574.575637,6143.709319,4663.297435,1149.143247
574.575958,5329.482782,5995.668130,1532.190996
574.576279,5477.523971,7254.018232,2145.067394
574.576599,7402.059420,7105.977043,1225.752797
574.576920,8068.244768,6661.853478,1225.752797
574.577240,8364.327145,6513.812290,1302.362347
574.577561,8438.347739,7254.018232,-229.828649
574.577881,8734.430116,7328.038826,-1608.800546
574.578202,9696.697840,6661.853478,-1455.581446
574.578522,10658.965565,5477.523971,0.000000
574.578843,11251.130318,4367.215058,919.314598
574.579163,10288.862594,3478.967927,919.314598
574.579484,9696.697840,2516.700203,459.657299
574.579804,10881.027347,1184.329507,0.000000
574.580125,12361.439231,1406.391290,0.000000
574.580445,12435.459826,1628.453072,-919.314598
574.580766,12287.418637,3256.906145,-1991.848295
574.581087,12213.398043,5255.462188,-2681.334243
574.581407,12583.501014,6661.853478,-3370.820191
574.581728,12509.480420,7328.038826,-2681.334243
574.582048,11917.315666,7476.080014,-2451.505594
574.582369,10881.027347,7624.121203,-1991.848295
574.582689,8882.471304,7105.977043,-689.485948
574.583010,7772.162391,6217.729913,842.705048
574.583330,7105.977043,6143.709319,1991.848295
574.583651,5921.647536,5551.544565,2298.286494
574.583971,5255.462188,5477.523971,2145.067394
574.584292,4663.297435,5329.482782,1915.238745
574.584612,4219.173869,5181.441594,1838.629195
574.584933,5329.482782,4515.256246,2145.067394
574.585254,6439.791695,5403.503377,1378.971896
574.585574,7105.977043,7328.038826,842.705048
574.585895,8068.244768,8956.491898,0.000000
574.586216,9104.533087,9400.615463,229.828649
574.586536,10066.800811,8734.430116,0.000000
574.586857,10066.800811,7624.121203,76.609550
574.587178,10140.821405,6513.812290,-383.047749
574.587498,10066.800811,5181.441594,-842.705048
574.587819,9770.718434,3849.070898,-1072.533697
574.588139,10362.883188,2738.761985,-1225.752797
574.588460,11251.130318,2146.597232,-766.095498
574.588781,11103.089130,3256.906145,-383.047749
574.589101,10955.047942,4737.318029,-383.047749
574.589422,11177.109724,6809.894666,-306.438199
574.589743,10658.965565,7698.141797,536.266849
574.590063,9474.636058,7920.203579,1225.752797
574.590384,7624.121203,7402.059420,842.705048
574.590705,5995.668130,7624.121203,842.705048
574.591025,4441.235652,7328.038826,153.219100
574.591346,4441.235652,6513.812290,-306.438199
574.591666,4737.318029,6735.874072,-459.657299
574.591987,4293.194464,7105.977043,229.828649
574.592308,3404.947333,8586.388927,1455.581446
574.592628,3552.988522,10288.862594,2911.162892
574.592949,3997.112087,10658.965565,3600.648841
574.593270,5477.523971,10066.800811,4673.182538
574.593590,5699.585753,9178.553681,5056.230287
574.593911,5033.400406,8142.265362,4443.353888
574.594232,4663.297435,7402.059420,3753.867940
574.594552,5107.421000,7105.977043,3677.258390
574.594873,5773.606348,7920.203579,3677.258390
574.595193,7031.956449,9030.512492,3600.648841
574.595514,6957.935855,9326.594869,3524.039291
574.595835,6957.935855,8512.368333,3524.039291
574.596155,7254.018232,7476.080014,4826.401637
574.596476,7846.182985,7402.059420,5056.230287
574.596797,7846.182985,7476.080014,3983.696590
574.597117,7772.162391,7476.080014,3983.696590
574.597438,7402.059420,7624.121203,3447.429741
574.597759,7994.224174,8438.347739,4519.963438
574.598079,8142.265362,8956.491898,6281.983084
574.598400,7254.018232,8660.409521,6971.469032
574.598720,6513.812290,8216.285956,6818.249932
574.599041,5773.606348,7402.059420,7124.688131
574.599362,4885.359217,6365.771101,6741.640382
574.599682,4737.318029,5403.503377,6741.640382
574.600003,4589.276840,5625.565159,7124.688131
574.600324,4515.256246,7105.977043,7048.078582
574.600644,4219.173869,8364.327145,6358.592633
574.600965,3923.091493,8808.450710,6052.154434
574.601286,3775.050304,8364.327145,6971.469032
574.601606,3552.988522,7994.224174,7890.783629
574.601927,2886.803174,7550.100608,7660.954980
574.602247,2590.720797,7105.977043,7277.907231
574.602568,2442.679609,6809.894666,7201.297681
574.602889,2516.700203,7328.038826,6971.469032
574.603209,2368.659014,7105.977043,6665.030833
574.603530,2442.679609,7105.977043,5898.935335
574.603851,2886.803174,6957.935855,6052.154434
574.604171,4071.132681,7254.018232,6511.811733
574.604492,4441.235652,7105.977043,7201.297681
574.604813,3849.070898,6809.894666,7048.078582
574.605133,4145.153275,6291.750507,6281.983084
574.605454,4515.256246,6143.709319,5362.668486
574.605775,5107.421000,6143.709319,4443.353888
574.606095,4737.318029,5181.441594,3753.867940
574.606416,4811.338623,4959.379811,2834.553343
574.606736,4589.276840,4737.318029,3064.381992
574.607057,4293.194464,5255.462188,2987.772442
574.607378,4589.276840,5847.626942,2451.505594
574.607698,5329.482782,7254.018232,2068.457845
574.608019,6143.709319,8882.471304,2528.115143
574.608340,6365.771101,10732.986159,2987.772442
574.608660,6069.688724,11325.150913,2757.943793
574.608981,6513.812290,10658.965565,3677.258390
574.609302,6143.709319,10362.883188,4903.011187
574.609622,5329.482782,10288.862594,7048.078582
574.609943,4145.153275,9696.697840,6894.859482
574.610263,3552.988522,9030.512492,6435.202183
574.610584,2886.803174,7402.059420,6741.640382
574.610905,2368.659014,5995.668130,5822.325785
574.611225,2368.659014,3849.070898,4213.525239
574.611546,3478.967927,2368.659014,2604.724693
574.611867,3923.091493,4441.235652,1455.581446
574.612187,5699.585753,7772.162391,0.000000
574.612508,8068.244768,11695.253884,-1302.362347
574.612829,9992.780217,15988.448347,-2068.457845
574.613149,10807.006753,18061.024985,-919.314598
574.613470,11473.192101,18209.066173,1455.581446
574.613790,10066.800811,16210.510130,3907.087040
574.614111,7920.203579,11547.212695,6052.154434
574.614432,6587.832884,8068.244768,7584.345430
574.614752,4219.173869,6143.709319,7354.516781
574.615073,814.226536,5033.400406,6358.592633
574.615394,518.144159,4219.173869,4673.182538
574.615714,2812.782580,4071.132681,4903.011187
574.616035,3478.967927,3923.091493,4596.572988
574.616356,4293.194464,5477.523971,4136.915689
574.616676,6069.688724,8660.409521,3140.991542
574.616997,6661.853478,12731.542202,2681.334243
574.617317,6069.688724,14952.160028,2528.115143
574.617638,7994.224174,15470.304188,2374.896044
574.617959,10140.821405,15322.262999,2604.724693
574.618279,7254.018232,12805.562797,3830.477490
574.618600,4441.235652,7105.977043,5439.278036
574.618921,5033.400406,3182.885551,6435.202183
574.619241,1998.556043,2516.700203,7201.297681
574.619562,740.205942,3701.029710,5975.544884
574.619883,3404.947333,4959.379811,4749.792088
574.620203,5551.544565,6809.894666,4596.572988
574.620524,4293.194464,6957.935855,6818.249932
574.620844,5107.421000,6143.709319,9269.755526
574.621165,7179.997637,8142.265362,9576.193725
574.621486,5329.482782,11843.295072,8580.269578
574.621806,1776.494261,11843.295072,6205.373534
574.622127,3552.988522,8660.409521,3064.381992
574.622448,5329.482782,4811.338623,3370.820191
574.622768,4441.235652,4367.215058,7967.393179
574.623089,5847.626942,7846.182985,9576.193725
574.623410,2072.576638,9178.553681,5898.935335
574.623730,888.247130,8660.409521,3140.991542
574.624051,2516.700203,6439.791695,5132.839837
574.624371,5033.400406,3034.844362,7201.297681
574.624692,5107.421000,2368.659014,7431.126331
574.625013,6735.874072,5699.585753,7737.564530
574.625333,6513.812290,10510.924376,6281.983084
574.625654,4441.235652,10807.006753,5286.058936
574.625975,4145.153275,7698.141797,5362.668486
574.626295,4663.297435,4811.338623,5822.325785
574.626616,2516.700203,4515.256246,6818.249932
574.626937,2442.679609,4071.132681,8963.317327
574.627257,6439.791695,7402.059420,9269.755526
574.627578,4441.235652,11769.274478,7737.564530
574.627898,4367.215058,13249.686362,4979.620737
574.628219,4219.173869,11843.295072,2987.772442
574.628540,5033.400406,9548.656652,2987.772442
574.628860,2886.803174,5403.503377,5745.716235
574.629181,5403.503377,2738.761985,8120.612279
574.629502,6513.812290,3478.967927,7354.516781
574.629822,4071.132681,6661.853478,6588.421283
574.630143,2590.720797,7698.141797,4443.353888
574.630464,5773.606348,9326.594869,2834.553343
574.630784,5773.606348,10584.944971,4060.306139
574.631105,4959.379811,10881.027347,6511.811733
574.631425,7624.121203,10510.924376,7048.078582
574.631746,8808.450710,9474.636058,4519.963438
574.632067,4219.173869,7476.080014,689.485948
574.632387,3849.070898,5773.606348,-919.314598
574.632708,6587.832884,6661.853478,2068.457845
574.633029,6143.709319,8586.388927,5822.325785
574.633349,5699.585753,9992.780217,6971.469032
574.633670,6735.874072,10436.903782,4519.963438
574.633991,6291.750507,10807.006753,2451.505594
574.634311,4441.235652,10362.883188,3524.039291
574.634632,4663.297435,8586.388927,4749.792088
574.634953,5477.523971,7920.203579,4673.182538
574.635273,5329.482782,8956.491898,5362.668486
574.635594,4441.235652,9400.615463,5362.668486
574.635914,5107.421000,9918.759623,4903.011187
574.636235,4959.379811,10807.006753,4213.525239
574.636556,4219.173869,10584.944971,3983.696590
574.636876,4737.318029,7994.224174,4596.572988
574.637197,6513.812290,7105.977043,5975.544884
574.637518,6217.729913,8142.265362,5975.544884
574.637838,3849.070898,8438.347739,3983.696590
574.638159,4737.318029,8956.491898,1991.848295
574.638480,6513.812290,8660.409521,2987.772442
574.638800,6217.729913,7846.182985,5745.716235
574.639121,7402.059420,7772.162391,5822.325785
574.639441,6735.874072,7698.141797,3294.210641
574.639762,3775.050304,8290.306550,2451.505594
574.640083,4589.276840,8438.347739,3830.477490
574.640403,6513.812290,7254.018232,4826.401637
574.640724,6069.688724,6069.688724,4979.620737
574.641045,5329.482782,7179.997637,5515.887586
574.641365,4737.318029,9696.697840,6281.983084
574.641686,2516.700203,9622.677246,6435.202183
574.642007,2294.638420,7624.121203,5898.935335
574.642327,4293.194464,5551.544565,5209.449386
574.642648,5403.503377,6217.729913,4673.182538
574.642968,4441.235652,8882.471304,4903.011187
574.643289,2368.659014,9992.780217,4903.011187
574.643610,2590.720797,9548.656652,4749.792088
574.643930,4589.276840,7994.224174,5822.325785
574.644251,4959.379811,6735.874072,7048.078582
574.644572,5625.565159,8364.327145,7584.345430
574.644892,5181.441594,11843.295072,7048.078582
574.645213,3701.029710,10732.986159,5592.497135
574.645534,3923.091493,6217.729913,5592.497135
574.645854,6513.812290,3552.988522,7660.954980
574.646175,6365.771101,4367.215058,9269.755526
574.646495,3627.009116,5403.503377,7737.564530
574.646816,3701.029710,6661.853478,3907.087040
574.647137,4737.318029,5699.585753,2298.286494
574.647457,5995.668130,4293.194464,4826.401637
574.647778,8882.471304,6365.771101,6588.421283
574.648099,7031.956449,9030.512492,4060.306139
574.648419,3552.988522,9178.553681,919.314598
574.648740,5625.565159,8512.368333,1532.190996
574.649061,7328.038826,8438.347739,3983.696590
574.649381,7031.956449,9178.553681,5669.106685
574.649702,3923.091493,9548.656652,5592.497135
574.650022,2886.803174,8882.471304,3600.648841
574.650343,3108.864956,7772.162391,4443.353888
574.650664,2812.782580,7328.038826,7201.297681
574.650984,3256.906145,6883.915261,6511.811733
574.651305,2294.638420,6217.729913,4903.011187
574.651626,1554.432478,8142.265362,4519.963438
574.651946,2072.576638,8512.368333,5132.839837
574.652267,4441.235652,9918.759623,5132.839837
574.652588,5477.523971,10658.965565,4213.525239
574.652908,2886.803174,10658.965565,4366.744339
574.653229,4145.153275,10288.862594,4903.011187
574.653549,6439.791695,11769.274478,4826.401637
574.653870,4959.379811,11029.068536,4749.792088
574.654191,4293.194464,7476.080014,4290.134789
574.654511,7550.100608,8216.285956,4366.744339
574.654832,5329.482782,8438.347739,4596.572988
574.655153,4071.132681,5551.544565,4903.011187
574.655473,7920.203579,3849.070898,4826.401637
574.655794,9770.718434,6439.791695,3677.258390
574.656115,6735.874072,9326.594869,4596.572988
574.656435,7402.059420,9474.636058,2911.162892
574.656756,9474.636058,7846.182985,459.657299
574.657076,9326.594869,6661.853478,2681.334243
574.657397,8438.347739,8956.491898,5745.716235
574.657718,7105.977043,9622.677246,4366.744339
574.658038,4885.359217,9030.512492,1838.629195
574.658359,3404.947333,8216.285956,1915.238745
574.658680,5181.441594,7550.100608,2834.553343
574.659000,4441.235652,6291.750507,3830.477490
574.659321,3478.967927,7994.224174,4596.572988
574.659642,3923.091493,10066.800811,3753.867940
574.659962,3701.029710,10288.862594,2528.115143
574.660283,1850.514855,8142.265362,5132.839837
574.660603,3034.844362,6365.771101,6741.640382
574.660924,4885.359217,7846.182985,7660.954980
574.661245,3404.947333,9696.697840,6052.154434
574.661565,2368.659014,9548.656652,3524.039291
574.661886,4145.153275,8364.327145,3140.991542
574.662207,5847.626942,6809.894666,4596.572988
574.662527,4737.318029,5329.482782,4596.572988
574.662848,3997.112087,5403.503377,2987.772442
574.663169,6291.750507,8068.244768,2145.067394
574.663489,7772.162391,9400.615463,3753.867940
574.663810,8512.368333,9252.574275,5439.278036
574.664130,9252.574275,8142.265362,5362.668486
574.664451,7476.080014,6587.832884,4903.011187
574.664772,4959.379811,5255.462188,4519.963438
574.665092,6439.791695,5625.565159,4519.963438
574.665413,7328.038826,6069.688724,2987.772442
574.665734,6439.791695,6217.729913,919.314598
574.666054,5773.606348,6957.935855,1455.581446
574.666375,4737.318029,8512.368333,2834.553343
574.666696,4293.194464,8438.347739,4596.572988
574.667016,2368.659014,8068.244768,4903.011187
574.667337,2442.679609,9474.636058,3907.087040
574.667658,3034.844362,11547.212695,3753.867940
574.667978,2368.659014,12805.562797,4826.401637
574.668299,2294.638420,11843.295072,4443.353888
574.668619,3404.947333,11547.212695,4826.401637
574.668940,1924.535449,10140.821405,5745.716235
574.669261,296.082377,8364.327145,5822.325785
574.669581,-518.144159,6661.853478,4979.620737
574.669902,1998.556043,6513.812290,5592.497135
574.670223,4293.194464,5699.585753,6128.763984
574.670543,4663.297435,5181.441594,4749.792088
574.670864,5625.565159,6661.853478,2681.334243
574.671185,5255.462188,7624.121203,1685.410096
574.671505,6957.935855,7994.224174,1608.800546
574.671826,8364.327145,7031.956449,766.095498
574.672146,7846.182985,6513.812290,-995.924147
574.672467,7328.038826,6513.812290,-1302.362347
574.672788,7031.956449,6809.894666,-229.828649
574.673108,7994.224174,7476.080014,-153.219100
574.673429,5699.585753,6069.688724,-919.314598
574.673750,4737.318029,5847.626942,-1608.800546
574.674070,6439.791695,6957.935855,-766.095498
574.674391,4293.194464,7105.977043,612.876398
574.674712,4811.338623,6439.791695,153.219100
574.675032,5773.606348,7624.121203,-1302.362347
574.675353,4293.194464,8068.244768,-1302.362347
574.675673,2886.803174,6217.729913,0.000000
574.675994,4737.318029,5995.668130,1378.971896
574.676315,3552.988522,8290.306550,-383.047749
574.676635,2516.700203,10955.047942,-766.095498
574.676956,3182.885551,11473.192101,-842.705048
574.677277,5107.421000,10288.862594,-919.314598
574.677597,5107.421000,9622.677246,1149.143247
574.677918,5181.441594,8956.491898,1072.533697
574.678239,4811.338623,8512.368333,0.000000
574.678559,3849.070898,8512.368333,229.828649
574.678880,4663.297435,8438.347739,-612.876398
574.679200,7031.956449,8438.347739,-1225.752797
574.679521,7550.100608,8882.471304,-1225.752797
574.679842,7105.977043,9030.512492,-306.438199
574.680162,7772.162391,9104.533087,689.485948
574.680483,7105.977043,9992.780217,0.000000
574.680804,7105.977043,12435.459826,-612.876398
574.681124,6291.750507,11251.130318,-766.095498
574.681445,6143.709319,8956.491898,-1378.971896
574.681766,6735.874072,7698.141797,-689.485948
574.682086,6217.729913,8438.347739,-1455.581446
574.682407,5699.585753,9548.656652,-3447.429741
574.682727,4293.194464,10658.965565,-1762.019645
574.683048,4515.256246,12509.480420,0.000000
574.683369,5699.585753,11991.336260,2145.067394
574.683689,4515.256246,8512.368333,2451.505594
574.684010,2960.823768,6735.874072,383.047749
574.684331,3182.885551,8734.430116,1762.019645
574.684651,1850.514855,8142.265362,2681.334243
574.684972,5033.400406,7772.162391,383.047749
574.685293,5773.606348,8142.265362,0.000000
574.685613,3701.029710,8512.368333,306.438199
574.685934,2886.803174,6217.729913,1838.629195
574.686254,4145.153275,5033.400406,1685.410096
574.686575,3997.112087,3330.926739,-536.266849
574.686896,3997.112087,2812.782580,-2221.676944
574.687216,6587.832884,4589.276840,-3064.381992
574.687537,5255.462188,8142.265362,-3677.258390
574.687858,4145.153275,9992.780217,-2604.724693
574.688178,8142.265362,10955.047942,-3064.381992
574.688499,7550.100608,9696.697840,-3064.381992
574.688820,4219.173869,4811.338623,229.828649
574.689140,4959.379811,3775.050304,1838.629195
574.689461,5403.503377,5255.462188,-689.485948
574.689782,1110.308913,5551.544565,-2451.505594
574.690102,2886.803174,6217.729913,-2451.505594
574.690423,7698.141797,8512.368333,-612.876398
574.690744,6143.709319,8142.265362,2451.505594
574.691064,4959.379811,6883.915261,2681.334243
574.691385,4589.276840,6069.688724,-459.657299
574.691706,2368.659014,6291.750507,-1378.971896
574.692026,2664.741391,5921.647536,766.095498
574.692347,7402.059420,6957.935855,995.924147
574.692668,6587.832884,8586.388927,-1685.410096
574.692988,5329.482782,11547.212695,-2681.334243
574.693309,3478.967927,13397.727550,-689.485948
574.693630,5255.462188,12287.418637,842.705048
574.693951,5255.462188,10362.883188,2145.067394
574.694271,5625.565159,8216.285956,2374.896044
574.694592,2886.803174,7105.977043,995.924147
574.694913,1036.288319,8512.368333,1915.238745
574.695233,3256.906145,8956.491898,1915.238745
574.695554,6661.853478,9252.574275,-612.876398
574.695875,4737.318029,7772.162391,-3217.601092
574.696195,4589.276840,7920.203579,-2987.772442
574.696516,6587.832884,9400.615463,0.000000
574.696837,4663.297435,9030.512492,995.924147
574.697157,7994.224174,11695.253884,0.000000
574.697478,7698.141797,11325.150913,-842.705048
574.697799,7031.956449,11621.233289,-2451.505594
574.698119,5847.626942,10436.903782,-1762.019645
574.698440,6143.709319,10066.800811,-1225.752797
574.698761,6217.729913,6661.853478,-229.828649
574.699081,5921.647536,5847.626942,1915.238745
574.699402,4811.338623,6513.812290,1838.629195
574.699723,2368.659014,6069.688724,1149.143247
574.700043,3330.926739,5403.503377,153.219100
574.700364,3997.112087,6069.688724,-153.219100
574.700685,6069.688724,9104.533087,2374.896044
574.701005,7105.977043,11029.068536,2757.943793
574.701326,5403.503377,9770.718434,-1072.533697
574.701647,2294.638420,4219.173869,-1378.971896
574.701967,4145.153275,4811.338623,1685.410096
574.702288,4959.379811,5847.626942,1915.238745
574.702609,1480.411884,6735.874072,-2987.772442
574.702929,3775.050304,9030.512492,-5515.887586
574.703250,6957.935855,10807.006753,-2987.772442
574.703571,5847.626942,9696.697840,919.314598
574.703891,3330.926739,7179.997637,1685.410096
574.704212,3034.844362,5699.585753,-1225.752797
574.704533,2960.823768,6439.791695,-2834.553343
574.704853,3997.112087,7698.141797,0.000000
574.705174,6069.688724,7772.162391,1455.581446
574.705495,6143.709319,6883.915261,153.219100
574.705815,4441.235652,7105.977043,1685.410096
574.706136,4737.318029,7476.080014,0.000000
574.706457,4071.132681,8290.306550,-1532.190996
574.706777,4367.215058,6809.894666,0.000000
574.707098,6957.935855,6291.750507,1072.533697
574.707419,7476.080014,8438.347739,689.485948
574.707739,4589.276840,8290.306550,612.876398
574.708060,3478.967927,7994.224174,-2451.505594
574.708381,7402.059420,10436.903782,-2834.553343
574.708701,6365.771101,9548.656652,-612.876398
574.709022,4145.153275,5773.606348,-842.705048
574.709343,6661.853478,5181.441594,-2068.457845
574.709663,7105.977043,8734.430116,-306.438199
574.709984,4811.338623,11251.130318,1455.581446
574.710305,6143.709319,10214.842000,612.876398
574.710625,4959.379811,8882.471304,-2374.896044
574.710946,4737.318029,7994.224174,-383.047749
574.711267,5329.482782,6439.791695,2145.067394
574.711588,4959.379811,5921.647536,-689.485948
574.711908,1998.556043,6883.915261,-2757.943793
574.712229,4959.379811,10066.800811,-1302.362347
574.712550,5847.626942,11695.253884,-2528.115143
574.712870,3404.947333,9400.615463,-2068.457845
574.713191,2812.782580,8586.388927,0.000000
574.713512,6143.709319,11695.253884,-1149.143247
574.713832,3182.885551,11917.315666,-1532.190996
574.714153,592.164754,8068.244768,-1991.848295
574.714474,5847.626942,7624.121203,-536.266849
574.714794,6883.915261,9252.574275,1838.629195
574.715115,3256.906145,10140.821405,2374.896044
574.715436,2812.782580,9992.780217,-153.219100
574.715756,3256.906145,7179.997637,-1762.019645
574.716077,4145.153275,4885.359217,1225.752797
574.716398,7550.100608,4589.276840,3217.601092
574.716718,8290.306550,8216.285956,766.095498
574.717039,4367.215058,10362.883188,-689.485948
574.717360,4515.256246,10584.944971,-612.876398
574.717680,6957.935855,8068.244768,-536.266849
574.718001,7105.977043,4589.276840,-1072.533697
574.718322,7402.059420,5329.482782,-995.924147
574.718642,8290.306550,8142.265362,-2451.505594
574.718963,5255.462188,9918.759623,-4366.744339
574.719284,6143.709319,9252.574275,-2834.553343
574.719604,7920.203579,7994.224174,-842.705048
574.719925,8586.388927,7476.080014,2604.724693
574.720246,6069.688724,8956.491898,4903.011187
574.720566,3997.112087,9104.533087,383.047749
574.720887,3182.885551,6883.915261,-1685.410096
574.721208,5033.400406,4367.215058,919.314598
574.721528,5403.503377,3256.906145,3217.601092
574.721849,2294.638420,4515.256246,2528.115143
574.722170,2294.638420,9178.553681,-153.219100
574.722490,592.164754,8512.368333,-3140.991542
574.722811,2590.720797,6439.791695,-1608.800546
574.723132,7105.977043,7105.977043,2068.457845
574.723452,5403.503377,9770.718434,995.924147
574.723773,2812.782580,11843.295072,-2298.286494
574.724094,3182.885551,11695.253884,-3370.820191
574.724414,2738.761985,8364.327145,-2451.505594
574.724735,4959.379811,5847.626942,689.485948
574.725056,5699.585753,6587.832884,2068.457845
574.725376,3849.070898,7624.121203,-842.705048
574.725697,740.205942,6439.791695,-1915.238745
574.726018,3775.050304,8142.265362,-689.485948
574.726338,7031.956449,7994.224174,1225.752797
574.726659,6217.729913,7550.100608,3140.991542
574.726980,4737.318029,7476.080014,3064.381992
574.727300,4441.235652,7550.100608,1072.533697
574.727621,3997.112087,6143.709319,-1302.362347
574.727942,6439.791695,5995.668130,-1915.238745
574.728262,7920.203579,7920.203579,-2681.334243
574.728583,7179.997637,9992.780217,-1838.629195
574.728904,6587.832884,11769.274478,-689.485948
574.729224,5699.585753,9400.615463,-1991.848295
574.729545,5625.565159,6957.935855,-1685.410096
574.729866,6809.894666,7254.018232,919.314598
574.730187,5699.585753,7624.121203,1378.971896
574.730507,5477.523971,9844.739029,-1532.190996
574.730828,6809.894666,11177.109724,-1072.533697
574.731149,7105.977043,8956.491898,689.485948
574.731469,5773.606348,5921.647536,2068.457845
574.731790,5699.585753,6217.729913,2068.457845
574.732111,3256.906145,8216.285956,-1225.752797
574.732431,1998.556043,6735.874072,-1302.362347
574.732752,4515.256246,5995.668130,229.828649
574.733073,7698.141797,8660.409521,1762.019645
574.733393,5773.606348,13397.727550,1455.581446
574.733714,3997.112087,14211.954086,-1991.848295
574.734035,3775.050304,10732.986159,-4366.744339
574.734355,4811.338623,7254.018232,-1302.362347
574.734676,4811.338623,5847.626942,2145.067394
574.734997,6217.729913,6661.853478,1072.533697
574.735317,3182.885551,8438.347739,-842.705048
574.735638,2294.638420,9770.718434,-766.095498
574.735959,4811.338623,10288.862594,-229.828649
574.736279,6513.812290,9178.553681,995.924147
574.736600,4885.359217,7105.977043,1455.581446
574.736921,3330.926739,4589.276840,2451.505594
574.737241,3256.906145,4441.235652,2068.457845
574.737562,3552.988522,5329.482782,536.266849
574.737883,5403.503377,5847.626942,-1378.971896
574.738203,7105.977043,7476.080014,-2757.943793
574.738524,4737.318029,8808.450710,-2987.772442
574.738845,4811.338623,9548.656652,-383.047749
574.739165,7179.997637,9252.574275,-229.828649
574.739486,5699.585753,5699.585753,-2451.505594
574.739807,4959.379811,6883.915261,-2145.067394
574.740127,6661.853478,11399.171507,689.485948
574.740448,3775.050304,10955.047942,1838.629195
574.740769,4441.235652,8290.306550,919.314598
574.741089,6365.771101,7624.121203,689.485948
574.741410,2664.741391,5403.503377,1455.581446
574.741731,1258.350101,3923.091493,1532.190996
574.742051,4293.194464,4071.132681,0.000000
574.742372,3182.885551,5107.421000,-536.266849
574.742693,3997.112087,7105.977043,612.876398
574.743013,7772.162391,12435.459826,1072.533697
574.743334,6661.853478,15470.304188,1762.019645
574.743655,5107.421000,14063.912898,2068.457845
574.743975,6365.771101,10362.883188,-689.485948
574.744296,4589.276840,5699.585753,-2145.067394
574.744617,1628.453072,2590.720797,995.924147
574.744937,6513.812290,6957.935855,2757.943793
574.745258,7550.100608,10955.047942,383.047749
574.745579,3478.967927,11473.192101,-2451.505594
574.745899,4219.173869,10214.842000,-1608.800546
574.746220,7698.141797,8438.347739,2068.457845
574.746541,5551.544565,6069.688724,5745.716235
574.746861,5181.441594,4811.338623,4903.011187
574.747182,5625.565159,5403.503377,-612.876398
574.747503,2886.803174,6291.750507,-4060.306139
574.747824,5403.503377,8512.368333,-1532.190996
574.748144,8512.368333,10288.862594,-536.266849
574.748465,6809.894666,11399.171507,-1762.019645
574.748786,5551.544565,11473.192101,-766.095498
574.749106,4441.235652,7920.203579,-919.314598
574.749427,1554.432478,2886.803174,-1532.190996
574.749748,3034.844362,3256.906145,153.219100
574.750068,5773.606348,7920.203579,0.000000
574.750389,3552.988522,11325.150913,-2757.943793
574.750710,4219.173869,11473.192101,-2834.553343
574.751030,4589.276840,10140.821405,-2145.067394
574.751351,5773.606348,6069.688724,1685.410096
574.751672,5329.482782,4145.153275,4596.572988
574.751992,3775.050304,4219.173869,2298.286494
574.752313,1332.370696,4663.297435,-1838.629195
574.752634,3256.906145,5995.668130,-2298.286494
574.752954,8734.430116,8956.491898,-536.266849
574.753275,8068.244768,10584.944971,1915.238745
574.753596,6365.771101,12731.542202,0.000000
574.753916,5551.544565,11917.315666,-4749.792088
574.754237,5033.400406,7402.059420,-4979.620737
574.754558,4885.359217,3478.967927,-995.924147
574.754878,8290.306550,5403.503377,2451.505594
574.755199,7920.203579,10881.027347,842.705048
574.755520,3478.967927,13545.768739,-1991.848295
574.755840,4515.256246,12805.562797,-2145.067394
574.756161,7328.038826,9474.636058,919.314598
574.756482,5107.421000,6661.853478,5286.058936
574.756802,3997.112087,4219.173869,6435.202183
574.757123,2812.782580,4737.318029,1378.971896
574.757444,296.082377,6513.812290,-2451.505594
574.757764,4071.132681,7994.224174,-689.485948
574.758085,7846.182985,9622.677246,0.000000
574.758406,7105.977043,11399.171507,536.266849
574.758726,5329.482782,12139.377449,383.047749
574.759047,4885.359217,11325.150913,-1915.238745
574.759368,4663.297435,8438.347739,-2451.505594
574.759688,4219.173869,6143.709319,-153.219100
574.760009,6809.894666,7994.224174,1991.848295
574.760330,6365.771101,10955.047942,1991.848295
574.760650,3478.967927,11177.109724,0.000000
574.760971,3256.906145,9178.553681,-995.924147
574.761292,5181.441594,5181.441594,995.924147
574.761612,4663.297435,1702.473667,2757.943793
574.761933,3849.070898,2738.761985,1762.019645
574.762254,3627.009116,4367.215058,-306.438199
574.762574,3182.885551,5551.544565,-1225.752797
574.762895,6809.894666,7476.080014,383.047749
574.763216,8660.409521,10362.883188,1302.362347
574.763536,6143.709319,11177.109724,-383.047749
574.763857,5625.565159,11029.068536,-2681.334243
574.764178,6809.894666,8512.368333,-3447.429741
574.764498,5181.441594,4293.194464,-1225.752797
574.764819,5625.565159,4145.153275,995.924147
574.765140,6513.812290,5773.606348,-536.266849
574.765461,2664.741391,8364.327145,-2528.115143
574.765781,3330.926739,9178.553681,-1762.019645
574.766102,5551.544565,8290.306550,-766.095498
574.766423,6291.750507,6291.750507,1608.800546
574.766743,5329.482782,5773.606348,5056.230287
574.767064,4145.153275,7624.121203,2987.772442
574.767385,370.102971,6661.853478,-766.095498
574.767705,2664.741391,6809.894666,-2145.067394
574.768026,5995.668130,7994.224174,-1608.800546
574.768347,4885.359217,9178.553681,-612.876398
574.768667,4737.318029,11695.253884,-459.657299
574.768988,4737.318029,12509.480420,-1762.019645
574.769309,3256.906145,9918.759623,-2068.457845
574.769629,3404.947333,7328.038826,-1225.752797
574.769950,5033.400406,8512.368333,-153.219100
574.770271,3849.070898,8142.265362,383.047749
574.770591,3849.070898,10140.821405,0.000000
574.770912,5255.462188,10881.027347,-842.705048
574.771233,5255.462188,9844.739029,-76.609550
574.771553,5921.647536,7920.203579,1302.362347
574.771874,6069.688724,6957.935855,1685.410096
574.772195,4071.132681,7254.018232,612.876398
574.772515,4071.132681,7031.956449,842.705048
574.772836,6883.915261,8734.430116,-306.438199
574.773157,9030.512492,10436.903782,-153.219100
574.773477,6069.688724,11769.274478,306.438199
574.773798,6809.894666,10584.944971,-1378.971896
574.774119,6513.812290,7328.038826,-3753.867940
574.774439,5255.462188,5699.585753,-1378.971896
574.774760,6365.771101,6661.853478,1532.190996
574.775081,8660.409521,9770.718434,766.095498
574.775401,5329.482782,10584.944971,-612.876398
574.775722,4737.318029,9326.594869,229.828649
574.776043,7179.997637,9178.553681,1532.190996
574.776363,6143.709319,7328.038826,3370.820191
574.776684,2368.659014,4811.338623,3983.696590
574.777005,4737.318029,5255.462188,766.095498
574.777325,3701.029710,5699.585753,-1608.800546
574.777646,2072.576638,4663.297435,-1608.800546
574.777967,5255.462188,5625.565159,-1225.752797
574.778287,6735.874072,8956.491898,-1149.143247
574.778608,2220.617826,9178.553681,-1225.752797
574.778929,2812.782580,8512.368333,-1149.143247
574.779249,6513.812290,7846.182985,-1455.581446
574.779570,4145.153275,6365.771101,-1302.362347
574.779891,3034.844362,6143.709319,-1532.190996
574.780211,4811.338623,9178.553681,-3524.039291
574.780532,1776.494261,9844.739029,-2451.505594
574.780853,2812.782580,9400.615463,1532.190996
574.781173,7179.997637,7698.141797,1762.019645
574.781494,3552.988522,6069.688724,0.000000
574.781815,888.247130,3997.112087,-1149.143247
574.782135,2442.679609,4885.359217,-1762.019645
574.782456,3478.967927,5699.585753,0.000000
574.782777,3923.091493,6217.729913,2451.505594
574.783098,9474.636058,10362.883188,842.705048
574.783418,6365.771101,13027.624579,-2451.505594
574.783739,2368.659014,11695.253884,-2374.896044
574.784060,6587.832884,9326.594869,-2221.676944
574.784380,8438.347739,6661.853478,-2451.505594
574.784701,5995.668130,5477.523971,0.000000
574.785022,7402.059420,9104.533087,612.876398
574.785342,6661.853478,11843.295072,-1455.581446
574.785663,4737.318029,11325.150913,-536.266849
574.785984,5773.606348,9696.697840,1685.410096
574.786304,8290.306550,9252.574275,1838.629195
574.786625,4663.297435,6661.853478,2451.505594
574.786945,4515.256246,7179.997637,2987.772442
574.787266,4589.276840,6957.935855,766.095498
574.787587,2516.700203,6513.812290,-766.095498
574.787907,3849.070898,7328.038826,-306.438199
574.788228,7179.997637,10214.842000,-1838.629195
574.788548,4737.318029,12361.439231,-3140.991542
574.788869,4367.215058,12509.480420,-1532.190996
574.789190,6957.935855,10881.027347,-1455.581446
574.789510,4293.194464,6809.894666,-1685.410096
574.789831,2812.782580,5033.400406,-536.266849
574.790151,6439.791695,8660.409521,-2145.067394
574.790472,4293.194464,11621.233289,-3217.601092
574.790792,3627.009116,10288.862594,-2221.676944
574.791113,7105.977043,7105.977043,153.219100
574.791434,7179.997637,6883.915261,2298.286494
574.791754,3701.029710,4071.132681,4443.353888
574.792075,2590.720797,3330.926739,1072.533697
574.792395,2886.803174,4515.256246,-2757.943793
574.792716,2368.659014,5773.606348,-1915.238745
574.793036,6069.688724,8216.285956,-229.828649
574.793357,8142.265362,8808.450710,-306.438199
574.793678,5699.585753,9548.656652,-1762.019645
574.793998,4071.132681,10584.944971,-2987.772442
574.794319,3997.112087,9696.697840,-3830.477490
574.794639,3330.926739,7402.059420,-766.095498
574.794960,7031.956449,9622.677246,1915.238745
574.795281,7105.977043,10955.047942,995.924147
574.795601,2220.617826,8290.306550,-383.047749
574.795922,2960.823768,7772.162391,-612.876398
574.796242,6365.771101,7328.038826,2528.115143
574.796563,4811.338623,5403.503377,4826.401637
574.796883,5477.523971,5921.647536,3907.087040
574.797204,5995.668130,8512.368333,383.047749
574.797525,1998.556043,7179.997637,536.266849
574.797845,5477.523971,5699.585753,2911.162892
574.798166,10362.883188,7698.141797,1685.410096
574.798486,5107.421000,8956.491898,-1455.581446
574.798807,3849.070898,8586.388927,-2145.067394
574.799127,7179.997637,9030.512492,-2528.115143
574.799448,6217.729913,9696.697840,-612.876398
574.799769,5181.441594,7920.203579,2068.457845
574.800089,7328.038826,7550.100608,-612.876398
574.800410,4737.318029,9548.656652,-2681.334243
574.800730,2368.659014,8660.409521,1072.533697
574.801051,2738.761985,5181.441594,2451.505594
574.801371,5033.400406,3108.864956,306.438199
574.801692,3108.864956,4811.338623,842.705048
574.802013,3552.988522,9474.636058,-153.219100
574.802333,2220.617826,9696.697840,-3370.820191
574.802654,4071.132681,8290.306550,-2374.896044
574.802974,5255.462188,8512.368333,1762.019645
574.803295,7105.977043,8660.409521,2834.553343
574.803616,2516.700203,7920.203579,-536.266849
574.803936,3330.926739,11103.089130,-3140.991542
574.804257,5403.503377,11399.171507,-2987.772442
574.804577,5255.462188,7624.121203,-1608.800546
574.804898,5921.647536,4589.276840,689.485948
574.805218,5773.606348,4885.359217,1072.533697
574.805539,4737.318029,7402.059420,-229.828649
574.805860,4663.297435,8364.327145,-2528.115143
574.806180,6069.688724,7624.121203,-2757.943793
574.806501,7328.038826,7550.100608,1608.800546
574.806821,10066.800811,10436.903782,6128.763984
574.807142,7031.956449,10510.924376,3753.867940
574.807462,2072.576638,9030.512492,229.828649
574.807783,3997.112087,6513.812290,-1072.533697
574.808104,5699.585753,5921.647536,-1762.019645
574.808424,4219.173869,6587.832884,-459.657299
574.808745,4737.318029,9474.636058,-995.924147
574.809065,4071.132681,11473.192101,-4213.525239
574.809386,2960.823768,10807.006753,-2298.286494
574.809706,5477.523971,9992.780217,1762.019645
574.810027,6735.874072,9918.759623,1532.190996
574.810348,4219.173869,10288.862594,306.438199
574.810668,2664.741391,10807.006753,383.047749
574.810989,5107.421000,10140.821405,536.266849
574.811309,6217.729913,6365.771101,1225.752797
574.811630,5403.503377,3404.947333,1608.800546
574.811951,5625.565159,5033.400406,-842.705048
574.812271,3330.926739,7105.977043,-3140.991542
574.812592,2442.679609,6439.791695,-2374.896044
574.812912,6587.832884,5995.668130,306.438199
574.813233,11991.336260,7994.224174,2987.772442
574.813553,7402.059420,9844.739029,2987.772442
574.813874,4071.132681,10214.842000,-1532.190996
574.814195,5181.441594,9474.636058,-3524.039291
574.814515,5773.606348,7328.038826,-1915.238745
574.814836,6735.874072,4293.194464,995.924147
574.815156,7550.100608,5329.482782,-306.438199
574.815477,3552.988522,7179.997637,-2221.676944
574.815797,1406.391290,7698.141797,-1685.410096
574.816118,5255.462188,7846.182985,-1072.533697
574.816439,5551.544565,7476.080014,689.485948
574.816759,4293.194464,7772.162391,2528.115143
574.817080,3404.947333,9178.553681,1685.410096
574.817400,1924.535449,9474.636058,-76.609550
574.817721,1776.494261,6957.935855,-842.705048
574.818042,4145.153275,4959.379811,-2221.676944
574.818362,4515.256246,6217.729913,-2451.505594
574.818683,3627.009116,9326.594869,-1532.190996
574.819003,3552.988522,11917.315666,-1302.362347
574.819324,4811.338623,10436.903782,-919.314598
574.819644,5107.421000,8142.265362,689.485948
574.819965,6069.688724,8290.306550,1302.362347
574.820286,4441.235652,9622.677246,689.485948
574.820606,2368.659014,8586.388927,-76.609550
574.820927,4219.173869,7105.977043,-919.314598
574.821247,7254.018232,6957.935855,229.828649
574.821568,7105.977043,9030.512492,2298.286494
574.821888,4441.235652,9104.533087,1302.362347
574.822209,2146.597232,6439.791695,-2451.505594
574.822530,4441.235652,5625.565159,-1685.410096
574.822850,7105.977043,5995.668130,3064.381992
574.823171,7550.100608,7550.100608,2604.724693
574.823491,7179.997637,10955.047942,-2298.286494
574.823812,6735.874072,15174.221811,-4443.353888
574.824132,6735.874072,14137.933492,-4366.744339
574.824453,8734.430116,9474.636058,-1302.362347
574.824774,10881.027347,7476.080014,1838.629195
574.825094,7550.100608,7179.997637,2068.457845
574.825415,3923.091493,6587.832884,-383.047749
574.825735,2886.803174,5995.668130,-1532.190996
574.826056,5625.565159,6439.791695,1838.629195
574.826377,8290.306550,8734.430116,6052.154434
574.826697,7105.977043,10066.800811,3983.696590
574.827018,2368.659014,9178.553681,-919.314598
574.827338,2442.679609,6883.915261,0.000000
574.827659,3775.050304,3849.070898,1991.848295
574.827979,4589.276840,2960.823768,2374.896044
574.828300,4145.153275,4737.318029,76.609550
574.828621,3478.967927,9918.759623,-3677.258390
574.828941,2442.679609,11991.336260,-4290.134789
574.829262,4071.132681,11325.150913,-306.438199
574.829582,6957.935855,11547.212695,2221.676944
574.829903,4219.173869,10214.842000,229.828649
574.830223,296.082377,7550.100608,-2145.067394
574.830544,1480.411884,4737.318029,-1838.629195
574.830865,3923.091493,4293.194464,306.438199
574.831185,3478.967927,5329.482782,1915.238745
574.831506,3478.967927,7105.977043,229.828649
574.831826,2442.679609,7698.141797,-1378.971896
574.832147,4071.132681,7920.203579,-842.705048
574.832468,5033.400406,5921.647536,2987.772442
574.832788,7476.080014,5921.647536,3447.429741
574.833109,7772.162391,7920.203579,2145.067394
574.833429,4737.318029,9696.697840,612.876398
574.833750,5181.441594,9104.533087,-1685.410096
574.834070,8142.265362,8216.285956,-1685.410096
574.834391,7328.038826,6439.791695,919.314598
574.834712,6069.688724,4663.297435,766.095498
574.835032,6069.688724,6587.832884,-1685.410096
574.835353,5921.647536,7920.203579,-3370.820191
574.835673,5403.503377,7994.224174,-2221.676944
574.835994,9696.697840,9178.553681,766.095498
574.836314,9622.677246,12139.377449,2374.896044
574.836635,4959.379811,11177.109724,919.314598
574.836956,4663.297435,8142.265362,-995.924147
574.837276,6439.791695,6439.791695,-612.876398
574.837597,2368.659014,4219.173869,1149.143247
574.837917,3997.112087,6069.688724,2451.505594
574.838238,6513.812290,10807.006753,229.828649
574.838558,3182.885551,12805.562797,-2757.943793
574.838879,2664.741391,10584.944971,-1532.190996
574.839200,5995.668130,7402.059420,153.219100
574.839520,5921.647536,6513.812290,2374.896044
574.839841,3108.864956,6735.874072,2987.772442
574.840161,4071.132681,7920.203579,-1762.019645
574.840482,4885.359217,10214.842000,-4826.401637
574.840803,3775.050304,10066.800811,-1685.410096
574.841123,5551.544565,9696.697840,1532.190996
574.841444,8068.244768,9400.615463,1532.190996
574.841764,2368.659014,7254.018232,-689.485948
574.842085,0.000000,4737.318029,-2451.505594
574.842405,2812.782580,4071.132681,-2221.676944
574.842726,4959.379811,6069.688724,-766.095498
574.843047,4885.359217,8734.430116,-1072.533697
574.843367,4885.359217,12065.356855,-3064.381992
574.843688,5181.441594,13545.768739,-1915.238745
574.844008,4589.276840,11769.274478,1302.362347
574.844329,5551.544565,8216.285956,2757.943793
574.844649,4737.318029,5329.482782,459.657299
574.844970,3034.844362,7179.997637,-1225.752797
574.845291,3849.070898,7994.224174,-612.876398
574.845611,4885.359217,8142.265362,-995.924147
574.845932,6809.894666,8216.285956,842.705048
574.846252,7550.100608,9326.594869,995.924147
574.846573,5477.523971,9030.512492,383.047749
574.846894,3849.070898,7476.080014,1225.752797
574.847214,5255.462188,4811.338623,-306.438199
574.847535,6291.750507,4737.318029,-306.438199
574.847855,7105.977043,8216.285956,1225.752797
574.848176,7031.956449,10807.006753,153.219100
574.848496,7254.018232,13323.706956,-1302.362347
574.848817,6439.791695,10955.047942,-766.095498
574.849138,3552.988522,5551.544565,76.609550
574.849458,5551.544565,4293.194464,2604.724693
574.849779,4441.235652,6365.771101,5056.230287
574.850099,1850.514855,8512.368333,2681.334243
574.850420,4589.276840,9770.718434,-1072.533697
574.850740,6587.832884,9770.718434,-3370.820191
574.851061,3849.070898,6883.915261,-842.705048
574.851382,5625.565159,6883.915261,3753.867940
574.851702,5773.606348,7624.121203,2451.505594
574.852023,2368.659014,6957.935855,-1838.629195
574.852343,3404.947333,6217.729913,-1532.190996
574.852664,7031.956449,7402.059420,-459.657299
574.852984,5255.462188,8956.491898,1455.581446
574.853305,4737.318029,9326.594869,2374.896044
574.853626,4737.318029,9622.677246,-1302.362347
574.853946,3108.864956,8512.368333,-2068.457845
574.854267,4441.235652,7328.038826,1762.019645
574.854587,4737.318029,4737.318029,1455.581446
574.854908,3256.906145,3701.029710,-383.047749
574.855229,3182.885551,5995.668130,-1072.533697
574.855549,3404.947333,8290.306550,-919.314598
574.855870,4219.173869,9104.533087,612.876398
574.856190,6439.791695,9622.677246,1608.800546
574.856511,6217.729913,10362.883188,-536.266849
574.856831,3849.070898,7105.977043,-1225.752797
574.857152,3997.112087,5847.626942,-383.047749
574.857473,3923.091493,5033.400406,-306.438199
574.857793,5477.523971,6291.750507,0.000000
574.858114,6365.771101,8068.244768,-1455.581446
574.858434,5995.668130,10436.903782,-3983.696590
574.858755,4737.318029,10510.924376,-2374.896044
574.859075,6143.709319,9178.553681,76.609550
574.859396,7328.038826,6957.935855,1685.410096
574.859717,5403.503377,6883.915261,1455.581446
574.860037,3182.885551,7328.038826,0.000000
574.860358,5403.503377,8660.409521,-2528.115143
574.860678,6661.853478,9918.759623,-4290.134789
574.860999,4145.153275,8512.368333,-2221.676944
574.861320,6217.729913,8438.347739,536.266849
574.861640,7328.038826,9696.697840,995.924147
574.861961,3775.050304,10584.944971,689.485948
574.862281,4071.132681,9400.615463,766.095498
574.862602,7550.100608,9770.718434,-995.924147
574.862922,6217.729913,9326.594869,-842.705048
574.863243,4737.318029,8586.388927,919.314598
574.863564,5921.647536,9178.553681,-689.485948
574.863884,6217.729913,9474.636058,-2298.286494
574.864205,4811.338623,8956.491898,-1149.143247
574.864525,5329.482782,8142.265362,-306.438199
574.864846,6069.688724,8586.388927,0.000000
574.865166,5181.441594,8882.471304,1532.190996
574.865487,4441.235652,7698.141797,995.924147
574.865808,6809.894666,8216.285956,-153.219100
574.866128,5181.441594,9770.718434,-306.438199
574.866449,3627.009116,9918.759623,459.657299
574.866769,4885.359217,8364.327145,-383.047749
574.867090,5477.523971,6143.709319,-842.705048
574.867410,3256.906145,4811.338623,-536.266849
574.867731,4811.338623,7328.038826,919.314598
574.868052,2960.823768,8808.450710,995.924147
574.868372,2368.659014,7920.203579,-919.314598
574.868693,3997.112087,8882.471304,-2145.067394
574.869013,4959.379811,7920.203579,-995.924147
574.869334,3552.988522,5403.503377,76.609550
574.869655,4515.256246,6069.688724,1072.533697
574.869975,3849.070898,7624.121203,-1302.362347
574.870296,2812.782580,7179.997637,-3524.039291
574.870616,5033.400406,6587.832884,-3983.696590
574.870937,7105.977043,7031.956449,-153.219100
574.871257,7846.182985,9548.656652,3447.429741
574.871578,4959.379811,10658.965565,1608.800546
574.871899,2738.761985,7328.038826,-1915.238745
574.872219,3701.029710,3923.091493,-383.047749
574.872540,6291.750507,5255.462188,2068.457845
574.872860,4737.318029,5625.565159,1378.971896
574.873181,2738.761985,5625.565159,-1225.752797
574.873501,3627.009116,6883.915261,-2374.896044
574.873822,5995.668130,8882.471304,-612.876398
574.874143,5181.441594,8512.368333,1532.190996
574.874463,4737.318029,8882.471304,0.000000
574.874784,6513.812290,10955.047942,-2145.067394
574.875104,5107.421000,11029.068536,-1532.190996
574.875425,4219.173869,8290.306550,-842.705048
574.875746,7698.141797,7624.121203,-229.828649
574.876066,7328.038826,9992.780217,536.266849
574.876387,4367.215058,10436.903782,1072.533697
574.876707,3627.009116,9030.512492,0.000000
574.877028,4663.297435,7031.956449,-995.924147
574.877348,4589.276840,4071.132681,1072.533697
574.877669,7402.059420,6291.750507,3524.039291
574.877990,5551.544565,9104.533087,1838.629195
574.878310,3923.091493,9622.677246,-1991.848295
574.878631,5477.523971,9030.512492,-4903.011187
574.878951,8142.265362,9252.574275,-4136.915689
574.879272,7328.038826,8808.450710,76.609550
574.879592,7698.141797,11251.130318,1532.190996
574.879913,6587.832884,12731.542202,-842.705048
574.880234,3849.070898,11103.089130,-2374.896044
574.880554,4219.173869,8438.347739,-612.876398
574.880875,3997.112087,5255.462188,1838.629195
574.881195,4145.153275,6735.874072,2834.553343
574.881516,3997.112087,10214.842000,1072.533697
574.881836,2368.659014,9030.512492,-2451.505594
574.882157,3108.864956,6143.709319,-1915.238745
574.882478,5995.668130,6439.791695,4366.744339
574.882798,4663.297435,6439.791695,6052.154434
574.883119,3256.906145,7624.121203,2221.676944
574.883439,2812.782580,9400.615463,-2145.067394
574.883760,4071.132681,9992.780217,-3447.429741
574.884081,6217.729913,9992.780217,76.609550
574.884401,7846.182985,9474.636058,2528.115143
574.884722,5847.626942,10362.883188,-153.219100
574.885042,3108.864956,10807.006753,-1838.629195
574.885363,2368.659014,7920.203579,-1072.533697
574.885683,4441.235652,5033.400406,689.485948
574.886004,5699.585753,5847.626942,3140.991542
574.886325,4885.359217,6513.812290,3524.039291
574.886645,3997.112087,7031.956449,689.485948
574.886966,5773.606348,7994.224174,842.705048
574.887286,4811.338623,4515.256246,1685.410096
574.887607,4441.235652,1998.556043,306.438199
574.887927,6217.729913,4663.297435,1149.143247
574.888248,6957.935855,8734.430116,1455.581446
574.888569,5107.421000,8808.450710,-1149.143247
574.888889,7772.162391,8290.306550,-3064.381992
574.889210,7772.162391,8290.306550,-1838.629195
574.889530,4811.338623,6957.935855,-383.047749
574.889851,5773.606348,7179.997637,76.609550
574.890172,4441.235652,5477.523971,-3677.258390
574.890492,3256.906145,5181.441594,-5669.106685
574.890813,6513.812290,5699.585753,-2757.943793
574.891133,5773.606348,7994.224174,842.705048
574.891454,3849.070898,10881.027347,3524.039291
574.891775,3775.050304,10807.006753,995.924147
574.892095,3552.988522,7550.100608,-3294.210641
574.892416,1850.514855,4811.338623,-383.047749
574.892736,3330.926739,5329.482782,3830.477490
574.893057,3404.947333,7772.162391,2451.505594
574.893378,1036.288319,8216.285956,-1762.019645
574.893698,1628.453072,7994.224174,-5209.449386
574.894019,5403.503377,9844.739029,-4213.525239
574.894340,4441.235652,10362.883188,306.438199
574.894660,4515.256246,11029.068536,0.000000
574.894981,5403.503377,11399.171507,-3830.477490
574.895301,5847.626942,10881.027347,-4673.182538
574.895622,5995.668130,9400.615463,-1302.362347
574.895943,7550.100608,9400.615463,1532.190996
574.896263,6365.771101,10288.862594,1149.143247
574.896584,3849.070898,9696.697840,-1225.752797
574.896904,5699.585753,7846.182985,-1608.800546
574.897225,7698.141797,6365.771101,-383.047749
574.897546,5625.565159,5181.441594,229.828649
574.897866,6587.832884,6513.812290,0.000000
574.898187,7328.038826,8438.347739,-919.314598
574.898508,5033.400406,10807.006753,-2298.286494
574.898828,8216.285956,13027.624579,-2298.286494
574.899149,9548.656652,13545.768739,-2451.505594
574.899469,7105.977043,11917.315666,-1838.629195
574.899790,6957.935855,11473.192101,766.095498
574.900111,4811.338623,10214.842000,-766.095498
574.900431,2516.700203,7772.162391,-1915.238745
574.900752,4367.215058,6957.935855,-536.266849
574.901072,4441.235652,8660.409521,1302.362347
574.901393,2960.823768,10955.047942,4519.963438
574.901714,2368.659014,9622.677246,3370.820191
574.902034,4145.153275,8216.285956,-689.485948
574.902355,3404.947333,6809.894666,1991.848295
574.902675,2368.659014,5107.421000,5209.449386
574.902996,4367.215058,7772.162391,3830.477490
574.903317,4367.215058,8438.347739,1838.629195
574.903637,1406.391290,6439.791695,0.000000
574.903958,5551.544565,5625.565159,-1762.019645
574.904279,7698.141797,7031.956449,-306.438199
574.904599,5181.441594,9844.739029,153.219100
574.904920,5033.400406,9104.533087,-2374.896044
574.905240,5625.565159,6143.709319,-3830.477490
574.905561,5699.585753,4589.276840,0.000000
574.905882,7994.224174,4737.318029,4749.792088
574.906202,7920.203579,6957.935855,3447.429741
574.906523,2368.659014,6513.812290,-995.924147
574.906843,3849.070898,5403.503377,-2298.286494
574.907164,7550.100608,3701.029710,919.314598
574.907485,4811.338623,1184.329507,4366.744339
574.907805,2590.720797,-148.041188,3524.039291
574.908126,5255.462188,4885.359217,-842.705048
574.908446,3034.844362,8586.388927,-2068.457845
574.908767,3034.844362,8068.244768,-76.609550
574.909088,8512.368333,8882.471304,0.000000
574.909408,9770.718434,11177.109724,995.924147
574.909729,3478.967927,10658.965565,995.924147
574.910050,3034.844362,9548.656652,-2374.896044
574.910370,4515.256246,7254.018232,-3217.601092
574.910691,3552.988522,5181.441594,-229.828649
574.911011,5773.606348,5847.626942,2221.676944
574.911332,5107.421000,8142.265362,1455.581446
574.911653,962.267725,9622.677246,689.485948
574.911973,3108.864956,9622.677246,612.876398
574.912294,6661.853478,7105.977043,612.876398
574.912614,3404.947333,4145.153275,1225.752797
574.912935,3108.864956,5107.421000,1685.410096
574.913256,5551.544565,8364.327145,-1608.800546
574.913576,4441.235652,10436.903782,-4366.744339
574.913897,6439.791695,13101.645173,-2834.553343
574.914217,9252.574275,15322.262999,-1915.238745
574.914538,6809.894666,15026.180623,-919.314598
574.914859,2960.823768,11991.336260,-1149.143247
574.915179,3404.947333,9030.512492,-2757.943793
574.915500,3404.947333,6513.812290,-1302.362347
574.915821,4515.256246,7624.121203,1149.143247
574.916141,4515.256246,10510.924376,229.828649
574.916462,814.226536,10288.862594,-2834.553343
574.916782,1776.494261,9178.553681,-919.314598
574.917103,6143.709319,8068.244768,1762.019645
574.917424,6513.812290,6513.812290,2681.334243
574.917744,4737.318029,5625.565159,1378.971896
574.918065,5699.585753,8438.347739,-2451.505594
574.918385,8290.306550,13397.727550,-2987.772442
574.918706,8586.388927,11547.212695,0.000000
574.919027,9474.636058,9918.759623,0.000000
574.919347,9918.759623,9918.759623,-1762.019645
574.919668,6735.874072,9474.636058,-1915.238745
574.919989,4737.318029,7105.977043,-2298.286494
574.920309,8142.265362,4589.276840,-2145.067394
574.920630,7402.059420,4589.276840,-306.438199
574.920950,7105.977043,5773.606348,459.657299
574.921271,6809.894666,7994.224174,-306.438199
574.921592,3552.988522,8216.285956,-459.657299
574.921912,5329.482782,7994.224174,2145.067394
574.922233,7105.977043,5625.565159,3447.429741
574.922553,5181.441594,3182.885551,383.047749
574.922874,3404.947333,5329.482782,-153.219100
574.923195,3552.988522,10436.903782,-459.657299
574.923515,2294.638420,11325.150913,-536.266849
574.923836,3256.906145,8364.327145,153.219100
574.924156,4737.318029,6661.853478,-612.876398
574.924477,2812.782580,7624.121203,-229.828649
574.924798,444.123565,8216.285956,689.485948
574.925118,1332.370696,7698.141797,-1455.581446
574.925439,1406.391290,5921.647536,-1762.019645
574.925760,2368.659014,5033.400406,919.314598
574.926080,4589.276840,7476.080014,2374.896044
574.926401,3330.926739,9474.636058,2068.457845
574.926721,888.247130,9474.636058,612.876398
574.927042,4293.194464,9030.512492,-306.438199
574.927363,4071.132681,5773.606348,0.000000
574.927683,3627.009116,4515.256246,1302.362347
574.928004,4071.132681,6957.935855,1455.581446
574.928324,2738.761985,7994.224174,0.000000
574.928645,2960.823768,9696.697840,-1225.752797
574.928966,5403.503377,6809.894666,-153.219100
574.929286,9770.718434,8808.450710,-1991.848295
574.929607,6735.874072,11325.150913,-995.924147
574.929927,5477.523971,12509.480420,153.219100
574.930248,5403.503377,7624.121203,-689.485948
574.930569,8512.368333,5329.482782,-383.047749
574.930889,7402.059420,5181.441594,1608.800546
574.931210,6809.894666,7476.080014,1149.143247
574.931531,7254.018232,11177.109724,-919.314598
574.931851,5847.626942,11843.295072,-459.657299
574.932172,6661.853478,8438.347739,1225.752797
574.932492,8364.327145,4071.132681,2528.115143
574.932813,5773.606348,3775.050304,2911.162892
574.933134,2738.761985,6069.688724,1302.362347
574.933454,2664.741391,8956.491898,-1685.410096
574.933775,5921.647536,9104.533087,-4060.306139
574.934095,7105.977043,9474.636058,-3677.258390
574.934416,7846.182985,11621.233289,-153.219100
574.934737,6957.935855,13027.624579,459.657299
574.935057,2590.720797,11917.315666,-1532.190996
574.935378,1406.391290,7698.141797,-1915.238745
574.935698,4885.359217,5255.462188,-919.314598
574.936019,4589.276840,4885.359217,0.000000
574.936340,2368.659014,8586.388927,459.657299
574.936660,2220.617826,12213.398043,689.485948
574.936981,4811.338623,12361.439231,-306.438199
574.937302,3701.029710,5403.503377,-306.438199
574.937622,3552.988522,814.226536,0.000000
574.937943,5255.462188,3478.967927,1685.410096
574.938263,2886.803174,7328.038826,842.705048
574.938584,3404.947333,9326.594869,-3064.381992
574.938905,8660.409521,11103.089130,-4979.620737
574.939225,10288.862594,12361.439231,-2528.115143
574.939546,7179.997637,12213.398043,306.438199
574.939866,6069.688724,10436.903782,-612.876398
