#time,accel_x,accel_y,accel_z
172.607964,4959.379811,7772.162391,0.000000
172.608284,4737.318029,7994.224174,-383.047749
172.608605,4811.338623,8216.285956,-153.219100
172.608925,5181.441594,7920.203579,-536.266849
172.609246,4959.379811,8142.265362,0.000000
172.609567,5033.400406,7994.224174,0.000000
172.609887,4959.379811,7846.182985,0.000000
172.610208,5033.400406,7994.224174,-459.657299
172.610528,4885.359217,7920.203579,0.000000
172.610849,4959.379811,7994.224174,-229.828649
172.611169,4811.338623,8290.306550,-536.266849
172.611490,4737.318029,8216.285956,-76.609550
172.611811,4959.379811,8290.306550,-306.438199
172.612131,4959.379811,7994.224174,-383.047749
172.612452,4959.379811,7920.203579,-153.219100
172.612772,5033.400406,7994.224174,-153.219100
172.613093,4959.379811,7994.224174,76.609550
172.613414,5033.400406,8068.244768,0.000000
172.613734,4959.379811,7846.182985,0.000000
172.614055,5255.462188,8068.244768,0.000000
172.614375,5107.421000,8142.265362,0.000000
172.614696,4885.359217,8068.244768,0.000000
172.615016,4959.379811,8290.306550,-306.438199
172.615337,4737.318029,8216.285956,-229.828649
172.615658,4959.379811,7994.224174,-153.219100
172.615978,5033.400406,8142.265362,0.000000
172.616299,5181.441594,8142.265362,-459.657299
172.616619,5033.400406,8438.347739,-306.438199
172.616940,5033.400406,8068.244768,0.000000
172.617261,4663.297435,8068.244768,-153.219100
172.617581,4737.318029,7402.059420,-612.876398
172.617902,4441.235652,7402.059420,-229.828649
172.618222,4441.235652,7772.162391,0.000000
172.618543,4515.256246,9178.553681,-306.438199
172.618864,4737.318029,9918.759623,-1149.143247
172.619184,4737.318029,10288.862594,-1378.971896
172.619505,4811.338623,9770.718434,-842.705048
172.619825,3923.091493,8660.409521,0.000000
172.620146,3182.885551,8586.388927,766.095498
172.620466,2886.803174,8808.450710,689.485948
172.620787,2664.741391,8956.491898,76.609550
172.621108,2738.761985,8216.285956,-383.047749
172.621428,3034.844362,8734.430116,-766.095498
172.621749,3182.885551,9030.512492,0.000000
172.622069,3108.864956,9548.656652,536.266849
172.622390,2738.761985,9326.594869,689.485948
172.622711,2368.659014,9178.553681,153.219100
172.623031,2294.638420,9252.574275,-153.219100
172.623352,1998.556043,10140.821405,-612.876398
172.623672,1850.514855,11325.150913,-1455.581446
172.623993,1406.391290,12657.521608,-1378.971896
172.624313,1184.329507,11769.274478,-1608.800546
172.624634,0.000000,11473.192101,-1378.971896
172.624955,-592.164754,11325.150913,-1532.190996
172.625275,-1332.370696,12213.398043,-766.095498
172.625596,-1702.473667,13101.645173,306.438199
172.625916,-1406.391290,12435.459826,1225.752797
172.626237,-1702.473667,11991.336260,1302.362347
172.626558,-1554.432478,11991.336260,2068.457845
172.626878,-2220.617826,12065.356855,1838.629195
172.627199,-2738.761985,11917.315666,536.266849
172.627519,-2368.659014,10658.965565,-229.828649
172.627840,-1480.411884,9770.718434,-689.485948
172.628161,-814.226536,9992.780217,536.266849
172.628481,-296.082377,10807.006753,1225.752797
172.628802,222.061783,11177.109724,536.266849
172.629122,740.205942,11399.171507,-766.095498
172.629443,1332.370696,10807.006753,-1685.410096
172.629763,2220.617826,9844.739029,-995.924147
172.630084,2738.761985,9992.780217,0.000000
172.630405,3330.926739,9992.780217,0.000000
172.630725,2590.720797,9844.739029,-1608.800546
172.631046,2072.576638,9400.615463,-2604.724693
172.631366,2072.576638,9326.594869,-1991.848295
172.631687,2146.597232,9696.697840,-1072.533697
172.632008,2368.659014,10140.821405,0.000000
172.632328,2146.597232,10584.944971,-306.438199
172.632649,1258.350101,11103.089130,-459.657299
172.632969,666.185348,10955.047942,0.000000
172.633290,0.000000,10584.944971,842.705048
172.633611,-296.082377,10066.800811,995.924147
172.633931,0.000000,10140.821405,306.438199
172.634252,0.000000,10510.924376,689.485948
172.634572,-592.164754,10807.006753,919.314598
172.634893,-518.144159,11473.192101,1455.581446
172.635213,296.082377,11621.233289,1915.238745
172.635534,444.123565,11917.315666,1072.533697
172.635855,518.144159,11473.192101,76.609550
172.636175,814.226536,11251.130318,-919.314598
172.636496,1332.370696,10732.986159,-76.609550
172.636816,1702.473667,10288.862594,383.047749
172.637137,1332.370696,9030.512492,229.828649
172.637458,1628.453072,8364.327145,0.000000
172.637778,2072.576638,9400.615463,0.000000
172.638099,2368.659014,10658.965565,-306.438199
172.638419,2294.638420,10881.027347,-383.047749
172.638740,2886.803174,10362.883188,-919.314598
172.639060,3182.885551,10140.821405,-1149.143247
172.639381,3034.844362,9474.636058,-766.095498
172.639702,2812.782580,9918.759623,-1378.971896
172.640022,2886.803174,10362.883188,-842.705048
172.640343,1480.411884,10881.027347,-689.485948
172.640663,1184.329507,10732.986159,-459.657299
172.640984,1184.329507,10436.903782,-766.095498
172.641305,592.164754,10732.986159,-1532.190996
172.641625,-666.185348,9770.718434,-1455.581446
172.641946,-814.226536,9030.512492,-1302.362347
172.642266,-1110.308913,8882.471304,0.000000
172.642587,-666.185348,10288.862594,1302.362347
172.642908,0.000000,12287.418637,1762.019645
172.643228,0.000000,13693.809927,1072.533697
172.643549,0.000000,13027.624579,76.609550
172.643869,666.185348,12361.439231,-306.438199
172.644190,888.247130,10658.965565,0.000000
172.644510,592.164754,9918.759623,153.219100
172.644831,222.061783,9622.677246,0.000000
172.645152,0.000000,10066.800811,-1072.533697
172.645472,-1480.411884,10288.862594,-1685.410096
172.645793,-1184.329507,11769.274478,-1302.362347
172.646113,-148.041188,12509.480420,-766.095498
172.646434,74.020594,12805.562797,459.657299
172.646755,1184.329507,12435.459826,1072.533697
172.647075,666.185348,11991.336260,306.438199
172.647396,148.041188,11991.336260,-995.924147
172.647716,888.247130,12065.356855,-536.266849
172.648037,1258.350101,11399.171507,-459.657299
172.648357,1184.329507,9844.739029,-995.924147
172.648678,2516.700203,8882.471304,-919.314598
172.648999,1850.514855,9622.677246,-612.876398
172.649319,740.205942,10510.924376,995.924147
172.649640,444.123565,11251.130318,1225.752797
172.649960,296.082377,10214.842000,383.047749
172.650281,962.267725,8734.430116,-153.219100
172.650602,1110.308913,7846.182985,536.266849
172.650922,1332.370696,10436.903782,-229.828649
172.651243,0.000000,12435.459826,-919.314598
172.651563,-444.123565,12657.521608,-1378.971896
172.651884,518.144159,12361.439231,-1915.238745
172.652205,666.185348,11843.295072,-842.705048
172.652525,518.144159,12953.603985,153.219100
172.652846,592.164754,12879.583391,306.438199
172.653166,222.061783,12583.501014,689.485948
172.653487,-370.102971,10881.027347,1072.533697
172.653807,-1036.288319,7402.059420,1455.581446
172.654128,-1184.329507,6587.832884,1685.410096
172.654449,-2072.576638,8290.306550,1838.629195
172.654769,-1850.514855,9104.533087,76.609550
172.655090,222.061783,10066.800811,-1225.752797
172.655410,2146.597232,11547.212695,-842.705048
172.655731,2072.576638,13101.645173,-459.657299
172.656052,2664.741391,12805.562797,-612.876398
172.656372,1924.535449,11621.233289,-1225.752797
172.656693,666.185348,9474.636058,-2451.505594
172.657013,1554.432478,6735.874072,-1072.533697
172.657334,3775.050304,7476.080014,1149.143247
172.657655,2146.597232,10955.047942,842.705048
172.657975,888.247130,13323.706956,-1378.971896
172.658296,1406.391290,13471.748144,-3830.477490
172.658616,1406.391290,10881.027347,-3447.429741
172.658937,-370.102971,7624.121203,-1302.362347
172.659257,-222.061783,6883.915261,153.219100
172.659578,148.041188,9400.615463,612.876398
172.659899,-666.185348,13545.768739,919.314598
172.660219,-1776.494261,15988.448347,536.266849
172.660540,-1924.535449,16062.468941,-766.095498
172.660860,-740.205942,14582.057057,0.000000
172.661181,-1036.288319,12657.521608,1149.143247
172.661502,-1406.391290,10584.944971,1915.238745
172.661822,-1480.411884,9252.574275,229.828649
172.662143,-666.185348,9622.677246,-153.219100
172.662463,-740.205942,10584.944971,689.485948
172.662784,-296.082377,11177.109724,2298.286494
172.663104,1850.514855,10288.862594,2068.457845
172.663425,2590.720797,9178.553681,1532.190996
172.663746,2886.803174,8882.471304,612.876398
172.664066,4367.215058,10807.006753,-153.219100
172.664387,3330.926739,10955.047942,-1762.019645
172.664708,2442.679609,9992.780217,-3447.429741
172.665029,4737.318029,8364.327145,-2987.772442
172.665350,3701.029710,7328.038826,-1838.629195
172.665671,3108.864956,9474.636058,-536.266849
172.665992,2738.761985,12731.542202,-612.876398
172.666312,2442.679609,14508.036463,-1455.581446
172.666633,1628.453072,11769.274478,-1225.752797
172.666954,814.226536,8586.388927,-612.876398
172.667275,-666.185348,7105.977043,-229.828649
172.667596,-1480.411884,8882.471304,536.266849
172.667917,-2146.597232,11547.212695,459.657299
172.668238,-1332.370696,13175.665768,-1378.971896
172.668559,0.000000,13693.809927,-919.314598
172.668879,-1110.308913,12805.562797,153.219100
172.669200,-2368.659014,12879.583391,2068.457845
172.669521,-2368.659014,12065.356855,4060.306139
172.669842,-2368.659014,11695.253884,2681.334243
172.670163,-1998.556043,10584.944971,536.266849
172.670484,-370.102971,9696.697840,1072.533697
172.670805,-370.102971,9844.739029,1608.800546
172.671126,-296.082377,9918.759623,2221.676944
172.671446,1258.350101,9104.533087,1302.362347
172.671767,2294.638420,8438.347739,-306.438199
172.672088,3256.906145,9400.615463,-612.876398
172.672409,3182.885551,10658.965565,-1225.752797
172.672730,3404.947333,11473.192101,-1685.410096
172.673051,4367.215058,10658.965565,-1225.752797
172.673372,5033.400406,9326.594869,-1532.190996
172.673693,3627.009116,7920.203579,-1762.019645
172.674013,2590.720797,8364.327145,-2757.943793
172.674334,2220.617826,11251.130318,-2757.943793
172.674655,1554.432478,12731.542202,-2145.067394
172.674976,888.247130,10955.047942,-2298.286494
172.675297,1110.308913,8882.471304,-536.266849
172.675618,740.205942,9548.656652,995.924147
172.675939,-888.247130,11473.192101,3064.381992
172.676260,-2516.700203,13471.748144,2528.115143
172.676580,-1924.535449,13101.645173,76.609550
172.676901,-1110.308913,11473.192101,-383.047749
172.677222,-148.041188,8364.327145,1225.752797
172.677543,1702.473667,8882.471304,3830.477490
172.677864,74.020594,10658.965565,3370.820191
172.678185,-296.082377,10881.027347,306.438199
172.678506,1554.432478,8808.450710,-995.924147
172.678827,3997.112087,7105.977043,0.000000
172.679147,4663.297435,7105.977043,1608.800546
172.679468,6809.894666,7402.059420,1455.581446
172.679789,7550.100608,7698.141797,-1685.410096
172.680110,6069.688724,7476.080014,-2834.553343
172.680431,7402.059420,6809.894666,-2221.676944
172.680752,8808.450710,7402.059420,-2145.067394
172.681073,9844.739029,9252.574275,-2221.676944
172.681394,7772.162391,9326.594869,-2374.896044
172.681715,5995.668130,7624.121203,-2987.772442
172.682035,6661.853478,8142.265362,-2681.334243
172.682356,5995.668130,9030.512492,-1532.190996
172.682677,2368.659014,9844.739029,-1455.581446
172.682998,3256.906145,9252.574275,-1685.410096
172.683319,2146.597232,8882.471304,-229.828649
172.683640,2072.576638,9696.697840,1149.143247
172.683961,1998.556043,9992.780217,2604.724693
172.684282,740.205942,10140.821405,2681.334243
172.684602,0.000000,9770.718434,3217.601092
172.684923,1702.473667,9326.594869,3830.477490
172.685244,1406.391290,7846.182985,1072.533697
172.685565,1628.453072,7105.977043,0.000000
172.685886,4589.276840,8734.430116,2528.115143
172.686207,4737.318029,10214.842000,2604.724693
172.686528,4663.297435,8290.306550,536.266849
172.686849,6661.853478,5699.585753,-1072.533697
172.687169,6883.915261,6439.791695,-1302.362347
172.687490,6217.729913,7624.121203,383.047749
172.687811,8290.306550,8068.244768,459.657299
172.688132,9326.594869,7402.059420,-2911.162892
172.688453,8142.265362,7550.100608,-3907.087040
172.688774,8586.388927,9326.594869,-1149.143247
172.689095,7550.100608,9030.512492,-1149.143247
172.689416,4811.338623,7476.080014,-2374.896044
172.689736,5847.626942,6735.874072,-1532.190996
172.690057,6809.894666,5403.503377,76.609550
172.690378,4737.318029,5625.565159,383.047749
172.690699,4589.276840,6291.750507,536.266849
172.691020,4071.132681,7920.203579,-842.705048
172.691341,3997.112087,8586.388927,-766.095498
172.691662,3849.070898,7772.162391,1072.533697
172.691983,5107.421000,6365.771101,1302.362347
172.692303,4885.359217,7402.059420,689.485948
172.692624,4367.215058,9770.718434,1455.581446
172.692945,2738.761985,8882.471304,612.876398
172.693266,3997.112087,7994.224174,0.000000
172.693587,5847.626942,6735.874072,459.657299
172.693908,6217.729913,7105.977043,306.438199
172.694229,5329.482782,7328.038826,306.438199
172.694550,5033.400406,7994.224174,-536.266849
172.694870,6217.729913,7846.182985,-1225.752797
172.695191,7105.977043,6291.750507,-229.828649
172.695512,7476.080014,5551.544565,536.266849
172.695833,6439.791695,6291.750507,1149.143247
172.696154,6735.874072,8808.450710,-383.047749
172.696475,5477.523971,8808.450710,-2528.115143
172.696796,5033.400406,6661.853478,-4213.525239
172.697117,7698.141797,7105.977043,-2221.676944
172.697438,7105.977043,9474.636058,-766.095498
172.697758,5625.565159,10881.027347,-1455.581446
172.698079,4515.256246,9992.780217,-2451.505594
172.698400,4293.194464,9474.636058,-1762.019645
172.698721,4441.235652,8216.285956,306.438199
172.699042,4071.132681,8290.306550,1149.143247
172.699363,3256.906145,9030.512492,-153.219100
172.699684,4663.297435,9696.697840,-229.828649
172.700005,3627.009116,7698.141797,0.000000
172.700325,2368.659014,5625.565159,383.047749
172.700646,3034.844362,6735.874072,2068.457845
172.700967,3997.112087,9696.697840,3370.820191
172.701288,3627.009116,10140.821405,1762.019645
172.701609,6143.709319,8882.471304,-689.485948
172.701930,6365.771101,7179.997637,-2374.896044
172.702251,4959.379811,7624.121203,-1991.848295
172.702572,5181.441594,8290.306550,306.438199
172.702892,5033.400406,9548.656652,0.000000
172.703213,5625.565159,8364.327145,-1915.238745
172.703534,6513.812290,8734.430116,-2604.724693
172.703855,5699.585753,8438.347739,-1991.848295
172.704176,3775.050304,8660.409521,-1149.143247
172.704497,4885.359217,10140.821405,229.828649
172.704818,5033.400406,10214.842000,-842.705048
172.705139,3627.009116,6957.935855,-1225.752797
172.705459,4145.153275,5921.647536,995.924147
172.705780,5995.668130,9030.512492,1685.410096
172.706101,3552.988522,9844.739029,1685.410096
172.706422,3404.947333,7476.080014,-306.438199
172.706743,5551.544565,5773.606348,-995.924147
172.707064,6143.709319,6365.771101,1149.143247
172.707385,5477.523971,7550.100608,2528.115143
172.707706,4293.194464,7105.977043,0.000000
172.708026,4441.235652,6513.812290,-2911.162892
172.708347,5995.668130,7846.182985,-1838.629195
172.708668,5995.668130,7031.956449,-153.219100
172.708989,6661.853478,7846.182985,0.000000
172.709310,7328.038826,9400.615463,1455.581446
172.709631,6661.853478,10584.944971,1149.143247
172.709952,6735.874072,7994.224174,-995.924147
172.710273,6735.874072,4145.153275,-1838.629195
172.710594,7402.059420,4293.194464,0.000000
172.710914,7476.080014,6883.915261,3064.381992
172.711235,5181.441594,7698.141797,2451.505594
172.711556,4959.379811,5995.668130,-1225.752797
172.711877,6809.894666,5107.421000,-1991.848295
172.712198,6735.874072,5625.565159,306.438199
172.712519,6365.771101,6735.874072,1608.800546
172.712840,5403.503377,7254.018232,0.000000
172.713161,4811.338623,7846.182985,-2298.286494
172.713481,6217.729913,8142.265362,-1685.410096
172.713802,6069.688724,8290.306550,0.000000
172.714123,5033.400406,9030.512492,-919.314598
172.714444,5551.544565,10732.986159,-842.705048
172.714765,5107.421000,10288.862594,-536.266849
172.715086,4885.359217,8882.471304,306.438199
172.715407,4071.132681,6143.709319,1378.971896
172.715728,4737.318029,6661.853478,766.095498
172.716048,4959.379811,8068.244768,1302.362347
172.716369,3330.926739,7105.977043,383.047749
172.716690,4367.215058,5995.668130,229.828649
172.717011,6439.791695,6587.832884,1455.581446
172.717332,5181.441594,8808.450710,2068.457845
172.717653,4071.132681,8364.327145,1532.190996
172.717974,4663.297435,7698.141797,-1455.581446
172.718295,5625.565159,8660.409521,-3677.258390
172.718615,4737.318029,8882.471304,-3524.039291
172.718936,6217.729913,8142.265362,-1838.629195
172.719257,6439.791695,9992.780217,766.095498
172.719578,4885.359217,10510.924376,536.266849
172.719899,4367.215058,9178.553681,-1455.581446
172.720220,4367.215058,7179.997637,-3447.429741
172.720541,3701.029710,7772.162391,-1762.019645
172.720862,4737.318029,9400.615463,1532.190996
172.721182,5699.585753,8808.450710,1072.533697
172.721503,4737.318029,6735.874072,-766.095498
172.721824,4441.235652,5921.647536,-153.219100
172.722145,4145.153275,7402.059420,1302.362347
172.722466,4145.153275,9474.636058,1685.410096
172.722787,3256.906145,9696.697840,0.000000
172.723108,5699.585753,8734.430116,-1378.971896
172.723429,6365.771101,7920.203579,-383.047749
172.723749,5181.441594,7920.203579,229.828649
172.724070,3775.050304,8142.265362,-612.876398
172.724391,2960.823768,7994.224174,-2221.676944
172.724712,4885.359217,8586.388927,-1608.800546
172.725033,5255.462188,9030.512492,0.000000
172.725354,5329.482782,9474.636058,-229.828649
172.725675,4441.235652,10066.800811,153.219100
172.725996,3478.967927,10362.883188,612.876398
172.726317,4071.132681,8734.430116,459.657299
172.726637,4959.379811,6809.894666,306.438199
172.726958,5107.421000,6291.750507,0.000000
172.727279,5403.503377,6587.832884,842.705048
172.727600,4737.318029,6661.853478,2528.115143
172.727921,5773.606348,7624.121203,1225.752797
172.728242,6735.874072,7105.977043,-153.219100
172.728563,6439.791695,5477.523971,-1302.362347
172.728884,7994.224174,5403.503377,-919.314598
172.729204,6291.750507,6513.812290,-536.266849
172.729525,6883.915261,7328.038826,-1378.971896
172.729846,7328.038826,7254.018232,-1915.238745
172.730167,7698.141797,7402.059420,-1838.629195
172.730488,7994.224174,9696.697840,-536.266849
172.730809,6587.832884,10362.883188,-306.438199
172.731130,4367.215058,8142.265362,-2528.115143
172.731451,5033.400406,7772.162391,-1378.971896
172.731771,5255.462188,8068.244768,1378.971896
172.732092,4293.194464,8512.368333,1532.190996
172.732413,3997.112087,7550.100608,1378.971896
172.732734,3034.844362,7105.977043,919.314598
172.733055,2294.638420,8660.409521,1532.190996
172.733376,1924.535449,8512.368333,1762.019645
172.733697,1998.556043,7402.059420,-229.828649
172.734018,2738.761985,7846.182985,383.047749
172.734338,4219.173869,8364.327145,2221.676944
172.734659,3552.988522,9178.553681,1455.581446
172.734980,3701.029710,9400.615463,-1149.143247
172.735301,3701.029710,9992.780217,-1762.019645
172.735622,4811.338623,10510.924376,-1302.362347
172.735943,6143.709319,9548.656652,-689.485948
172.736264,7402.059420,8586.388927,-612.876398
172.736585,7105.977043,7698.141797,-842.705048
172.736905,6587.832884,6735.874072,-383.047749
172.737226,4959.379811,5255.462188,0.000000
172.737547,5329.482782,5847.626942,-459.657299
172.737868,7031.956449,6883.915261,383.047749
172.738189,6957.935855,7402.059420,689.485948
172.738510,6809.894666,6439.791695,-383.047749
172.738831,7105.977043,7031.956449,-689.485948
172.739152,5551.544565,6513.812290,-1149.143247
172.739472,4811.338623,5847.626942,-1302.362347
172.739793,5699.585753,7179.997637,-612.876398
172.740114,5625.565159,9030.512492,-1302.362347
172.740435,5107.421000,9770.718434,-2451.505594
172.740756,6291.750507,9548.656652,-2757.943793
172.741077,5551.544565,9252.574275,-1762.019645
172.741398,3997.112087,8956.491898,76.609550
172.741719,4293.194464,8660.409521,612.876398
172.742040,3256.906145,7772.162391,383.047749
172.742360,2590.720797,7402.059420,536.266849
172.742681,4145.153275,8882.471304,1302.362347
172.743002,3849.070898,10288.862594,995.924147
172.743323,3256.906145,9474.636058,766.095498
172.743644,4515.256246,8438.347739,2221.676944
172.743965,3478.967927,7105.977043,1991.848295
172.744286,3256.906145,7920.203579,1532.190996
172.744607,3552.988522,8364.327145,536.266849
172.744927,3627.009116,7402.059420,-2221.676944
172.745248,5181.441594,6883.915261,-1149.143247
172.745569,5921.647536,7698.141797,306.438199
172.745890,5847.626942,9178.553681,-1378.971896
172.746211,5181.441594,9696.697840,-2451.505594
172.746532,5847.626942,10066.800811,-2145.067394
172.746853,6291.750507,9474.636058,-2221.676944
172.747174,6069.688724,8142.265362,-1685.410096
172.747494,6439.791695,8142.265362,-1302.362347
172.747815,5773.606348,8660.409521,-306.438199
172.748136,4441.235652,8438.347739,612.876398
172.748457,4737.318029,8586.388927,689.485948
172.748778,3775.050304,7031.956449,-612.876398
172.749099,3552.988522,6365.771101,-919.314598
172.749420,3997.112087,7402.059420,2298.286494
172.749741,2590.720797,7254.018232,2145.067394
172.750061,2442.679609,7179.997637,919.314598
172.750382,3627.009116,7402.059420,-766.095498
172.750703,3404.947333,8364.327145,-1378.971896
172.751024,3182.885551,11103.089130,0.000000
172.751345,2960.823768,11695.253884,306.438199
172.751666,3478.967927,10584.944971,-766.095498
172.751987,3627.009116,8808.450710,-153.219100
172.752308,2960.823768,8734.430116,-229.828649
172.752628,3775.050304,10362.883188,-842.705048
172.752949,3552.988522,9844.739029,-612.876398
172.753270,3256.906145,7772.162391,-612.876398
172.753591,5699.585753,6883.915261,1302.362347
172.753912,5773.606348,6439.791695,2911.162892
172.754233,5847.626942,6735.874072,2451.505594
172.754554,5403.503377,5995.668130,383.047749
172.754875,5403.503377,4885.359217,-919.314598
172.755196,6809.894666,4959.379811,0.000000
172.755516,8142.265362,7105.977043,-536.266849
172.755837,7105.977043,8364.327145,-1838.629195
172.756158,7624.121203,9030.512492,-2374.896044
172.756479,7994.224174,8808.450710,-1685.410096
172.756800,7698.141797,8586.388927,-1302.362347
172.757121,7772.162391,9474.636058,-229.828649
172.757442,5847.626942,9030.512492,-306.438199
172.757763,4737.318029,8142.265362,-306.438199
172.758083,4811.338623,7772.162391,1072.533697
172.758404,3997.112087,7105.977043,229.828649
172.758725,2664.741391,6143.709319,-842.705048
172.759046,3404.947333,7402.059420,612.876398
172.759367,4145.153275,9474.636058,2221.676944
172.759688,2442.679609,8956.491898,1762.019645
172.760009,2368.659014,7105.977043,919.314598
172.760330,3034.844362,7920.203579,153.219100
172.760650,2886.803174,9770.718434,1149.143247
172.760971,2738.761985,10658.965565,842.705048
172.761292,4367.215058,9474.636058,-766.095498
172.761613,4737.318029,8216.285956,-1149.143247
172.761934,5477.523971,8512.368333,229.828649
172.762255,4293.194464,9326.594869,-536.266849
172.762576,4145.153275,8364.327145,-2221.676944
172.762897,7031.956449,7920.203579,-1378.971896
172.763217,8660.409521,7698.141797,229.828649
172.763538,7994.224174,7105.977043,689.485948
172.763859,7105.977043,7698.141797,689.485948
172.764180,4885.359217,7402.059420,-229.828649
172.764501,4811.338623,6217.729913,0.000000
172.764822,5995.668130,4885.359217,76.609550
172.765143,5699.585753,4737.318029,-1225.752797
172.765464,6069.688724,6883.915261,-2298.286494
172.765784,4515.256246,9030.512492,-1762.019645
172.766105,3775.050304,10214.842000,-842.705048
172.766426,4663.297435,9770.718434,-612.876398
172.766747,5403.503377,9918.759623,-153.219100
172.767048,4145.153275,9696.697840,-229.828649
172.767369,2516.700203,9474.636058,-766.095498
172.767690,2664.741391,8660.409521,-1302.362347
172.768011,3997.112087,8290.306550,-995.924147
172.768331,4071.132681,8438.347739,536.266849
172.768652,3627.009116,9918.759623,919.314598
172.768973,2368.659014,9548.656652,459.657299
172.769294,1776.494261,8882.471304,76.609550
172.769615,3775.050304,8142.265362,1225.752797
172.769935,5181.441594,7254.018232,2374.896044
172.770256,6365.771101,7328.038826,2145.067394
172.770577,5773.606348,7624.121203,0.000000
172.770898,4811.338623,7994.224174,-229.828649
172.771219,4959.379811,8956.491898,306.438199
172.771539,6217.729913,9696.697840,76.609550
172.771860,6883.915261,9548.656652,-1378.971896
172.772181,8290.306550,8216.285956,-2221.676944
172.772502,6883.915261,7328.038826,-1762.019645
172.772823,5995.668130,6587.832884,-229.828649
172.773143,5403.503377,7179.997637,919.314598
172.773464,4367.215058,7476.080014,842.705048
172.773785,4737.318029,7105.977043,-612.876398
172.774106,5773.606348,7105.977043,0.000000
172.774427,4959.379811,6661.853478,-536.266849
172.774747,4811.338623,7550.100608,-1378.971896
172.775068,4959.379811,8660.409521,-1455.581446
172.775389,4441.235652,8290.306550,-842.705048
172.775710,4737.318029,7105.977043,536.266849
172.776031,5477.523971,7476.080014,383.047749
172.776351,4293.194464,10436.903782,0.000000
172.776672,2146.597232,11251.130318,919.314598
172.776993,3404.947333,9918.759623,383.047749
172.777314,4811.338623,7402.059420,306.438199
172.777635,4071.132681,6661.853478,383.047749
172.777955,3552.988522,6883.915261,536.266849
172.778276,1628.453072,7254.018232,-612.876398
172.778597,2294.638420,7846.182985,0.000000
172.778918,6291.750507,7254.018232,1072.533697
172.779238,6957.935855,6365.771101,1072.533697
172.779559,6809.894666,7698.141797,306.438199
172.779880,5921.647536,10436.903782,306.438199
172.780201,3775.050304,10807.006753,-1685.410096
172.780522,5625.565159,8142.265362,-2221.676944
172.780842,7772.162391,5625.565159,-766.095498
172.781163,7920.203579,5403.503377,0.000000
172.781484,6143.709319,7476.080014,229.828649
172.781805,4071.132681,8290.306550,-1915.238745
172.782126,4737.318029,7402.059420,-2604.724693
172.782446,6809.894666,6365.771101,459.657299
172.782767,8142.265362,7031.956449,2834.553343
172.783088,7550.100608,8142.265362,1302.362347
172.783409,5033.400406,7698.141797,-1915.238745
172.783730,5033.400406,6957.935855,-2374.896044
172.784050,6587.832884,5181.441594,-153.219100
172.784371,6439.791695,6587.832884,612.876398
172.784692,6661.853478,9252.574275,-612.876398
172.785013,4367.215058,10288.862594,-2221.676944
172.785334,3997.112087,9992.780217,-766.095498
172.785654,4515.256246,9474.636058,1608.800546
172.785975,5403.503377,9252.574275,1225.752797
172.786296,4441.235652,7920.203579,-153.219100
172.786617,3849.070898,7179.997637,-612.876398
172.786938,2590.720797,7254.018232,612.876398
172.787258,4071.132681,8882.471304,1302.362347
172.787579,3256.906145,7994.224174,842.705048
172.787900,3775.050304,7920.203579,76.609550
172.788221,6365.771101,8956.491898,306.438199
172.788542,4367.215058,8808.450710,306.438199
172.788862,4589.276840,7550.100608,-1838.629195
172.789183,6069.688724,6809.894666,-1532.190996
172.789504,5699.585753,7105.977043,-536.266849
172.789825,6143.709319,7624.121203,0.000000
172.790146,7328.038826,8512.368333,-383.047749
172.790466,5773.606348,8068.244768,-2834.553343
172.790787,5477.523971,8586.388927,-1608.800546
172.791108,6587.832884,8956.491898,76.609550
172.791429,6513.812290,8068.244768,-766.095498
172.791750,6365.771101,6291.750507,-995.924147
172.792070,6735.874072,5995.668130,-842.705048
172.792391,5625.565159,7328.038826,0.000000
172.792712,4219.173869,8586.388927,1455.581446
172.793033,4293.194464,9104.533087,229.828649
172.793354,4219.173869,7105.977043,-842.705048
172.793674,4737.318029,7994.224174,0.000000
172.793995,4663.297435,9474.636058,842.705048
172.794316,2072.576638,8734.430116,-995.924147
172.794637,2368.659014,7772.162391,-2068.457845
172.794958,4959.379811,7550.100608,0.000000
172.795278,4219.173869,7994.224174,1378.971896
172.795599,4663.297435,9770.718434,1838.629195
172.795920,4737.318029,10362.883188,612.876398
172.796241,3849.070898,9326.594869,-689.485948
172.796562,5107.421000,8438.347739,229.828649
172.796882,5551.544565,6957.935855,766.095498
172.797203,5329.482782,6513.812290,-383.047749
172.797524,4959.379811,7105.977043,0.000000
172.797845,4145.153275,8734.430116,-459.657299
172.798166,5107.421000,8734.430116,-1149.143247
172.798486,6143.709319,8142.265362,0.000000
172.798807,6883.915261,6735.874072,459.657299
172.799128,6809.894666,6957.935855,153.219100
172.799449,5699.585753,7550.100608,76.609550
172.799770,5329.482782,8290.306550,-766.095498
172.800090,5255.462188,7476.080014,-1762.019645
172.800411,6809.894666,7105.977043,-1072.533697
172.800732,7920.203579,7550.100608,-919.314598
172.801053,6661.853478,7994.224174,-766.095498
172.801374,6513.812290,8142.265362,-536.266849
172.801694,5625.565159,7920.203579,0.000000
172.802015,5181.441594,6735.874072,1378.971896
172.802336,5847.626942,6217.729913,1072.533697
172.802657,5329.482782,5625.565159,-459.657299
172.802978,5699.585753,6661.853478,-766.095498
172.803298,6439.791695,8660.409521,-306.438199
172.803619,4145.153275,8142.265362,-459.657299
172.803940,6735.874072,7920.203579,-536.266849
172.804261,7105.977043,8290.306550,995.924147
172.804582,4441.235652,8512.368333,842.705048
172.804902,4663.297435,9030.512492,306.438199
172.805223,4737.318029,9696.697840,-229.828649
172.805544,4663.297435,7920.203579,-612.876398
172.805865,6587.832884,7031.956449,459.657299
172.806186,5477.523971,7031.956449,229.828649
172.806506,3330.926739,8290.306550,-1685.410096
172.806827,3034.844362,8068.244768,-766.095498
172.807148,3923.091493,6809.894666,-383.047749
172.807469,5699.585753,7624.121203,689.485948
172.807790,5773.606348,9104.533087,1072.533697
172.808110,4737.318029,10066.800811,-1838.629195
172.808431,4367.215058,9622.677246,-2911.162892
172.808752,3552.988522,8734.430116,-689.485948
172.809073,4811.338623,8734.430116,1072.533697
172.809393,4885.359217,8290.306550,842.705048
172.809714,4515.256246,8808.450710,-689.485948
172.810035,4071.132681,9992.780217,-459.657299
172.810356,3330.926739,9326.594869,-306.438199
172.810677,4737.318029,7846.182985,-612.876398
172.810997,5625.565159,6217.729913,842.705048
172.811318,4219.173869,6439.791695,1225.752797
172.811639,4441.235652,8734.430116,919.314598
172.811960,4293.194464,9104.533087,-459.657299
172.812281,4737.318029,8734.430116,-2757.943793
172.812601,5107.421000,8364.327145,-1302.362347
172.812922,5403.503377,8364.327145,842.705048
172.813243,4737.318029,9770.718434,919.314598
172.813564,3775.050304,10807.006753,-842.705048
172.813885,2960.823768,9474.636058,-1378.971896
172.814205,3034.844362,7994.224174,-306.438199
172.814526,4367.215058,7105.977043,2221.676944
172.814847,4737.318029,8586.388927,1302.362347
172.815168,5181.441594,8068.244768,-612.876398
172.815489,4293.194464,6735.874072,-1455.581446
172.815809,5403.503377,7179.997637,383.047749
172.816130,5107.421000,7476.080014,2221.676944
172.816451,5773.606348,6513.812290,689.485948
172.816772,6809.894666,6217.729913,-1149.143247
172.817093,6661.853478,7772.162391,-1072.533697
172.817413,6365.771101,8142.265362,-689.485948
172.817734,7476.080014,7476.080014,-689.485948
172.818055,7994.224174,6365.771101,-306.438199
172.818376,7328.038826,6883.915261,-76.609550
172.818697,6957.935855,7772.162391,383.047749
172.819017,6069.688724,8660.409521,-1378.971896
172.819338,6587.832884,8142.265362,-1991.848295
172.819659,5033.400406,6217.729913,153.219100
172.819980,6883.915261,4589.276840,1072.533697
172.820301,5995.668130,5255.462188,842.705048
172.820621,3627.009116,6513.812290,-612.876398
172.820942,3330.926739,7994.224174,-2451.505594
172.821263,4589.276840,9548.656652,-1302.362347
172.821584,4589.276840,9104.533087,0.000000
172.821905,5403.503377,9474.636058,459.657299
172.822225,4663.297435,9178.553681,306.438199
172.822546,2220.617826,9400.615463,-459.657299
172.822867,2146.597232,11177.109724,0.000000
172.823188,3182.885551,10955.047942,-383.047749
172.823509,4367.215058,8438.347739,-536.266849
172.823829,5181.441594,7328.038826,0.000000
172.824150,4737.318029,8142.265362,689.485948
172.824471,2812.782580,9622.677246,1072.533697
172.824792,2368.659014,8142.265362,1685.410096
172.825113,4071.132681,7105.977043,995.924147
172.825433,4811.338623,6661.853478,689.485948
172.825754,5329.482782,9104.533087,229.828649
172.826075,5995.668130,11103.089130,-842.705048
172.826396,3997.112087,9918.759623,-2451.505594
172.826717,5551.544565,9178.553681,-995.924147
172.827037,7031.956449,8512.368333,689.485948
172.827358,4589.276840,8882.471304,153.219100
172.827679,3997.112087,9474.636058,-153.219100
172.828000,3997.112087,9992.780217,-995.924147
172.828321,3552.988522,9104.533087,-995.924147
172.828641,4441.235652,7105.977043,229.828649
172.828962,5625.565159,6291.750507,383.047749
172.829283,4885.359217,7179.997637,0.000000
172.829604,4441.235652,9326.594869,0.000000
172.829925,2960.823768,9622.677246,-229.828649
172.830245,4293.194464,7698.141797,-766.095498
172.830566,4737.318029,6883.915261,1072.533697
172.830887,6291.750507,8068.244768,2068.457845
172.831208,4885.359217,8882.471304,536.266849
172.831529,4367.215058,8290.306550,-1915.238745
172.831849,4441.235652,6291.750507,-2528.115143
172.832170,5477.523971,6365.771101,-306.438199
172.832491,5995.668130,7328.038826,1608.800546
172.832812,5107.421000,7846.182985,306.438199
172.833133,5551.544565,8142.265362,-1072.533697
172.833453,6143.709319,7402.059420,-995.924147
172.833774,5773.606348,6587.832884,153.219100
172.834095,6661.853478,5329.482782,-306.438199
172.834416,5921.647536,5625.565159,-1838.629195
172.834737,4589.276840,6143.709319,-1915.238745
172.835057,5847.626942,7846.182985,-459.657299
172.835378,7105.977043,9030.512492,-536.266849
172.835699,6587.832884,9178.553681,-2451.505594
172.836020,6439.791695,7994.224174,-2374.896044
172.836341,4663.297435,7105.977043,-1455.581446
172.836661,4811.338623,7179.997637,-229.828649
172.836982,5403.503377,8216.285956,1455.581446
172.837303,5107.421000,7031.956449,-306.438199
172.837624,6809.894666,8364.327145,-842.705048
172.837945,6439.791695,10584.944971,0.000000
172.838265,3552.988522,10140.821405,-842.705048
172.838586,4145.153275,8586.388927,-306.438199
172.838907,5107.421000,7550.100608,1838.629195
172.839228,3849.070898,8512.368333,1685.410096
172.839549,3552.988522,8364.327145,1302.362347
172.839869,3256.906145,9622.677246,-1991.848295
172.840190,3330.926739,11325.150913,-2681.334243
172.840511,2368.659014,10955.047942,919.314598
172.840832,3849.070898,9696.697840,2451.505594
172.841152,3849.070898,9104.533087,1532.190996
172.841473,1110.308913,8808.450710,1378.971896
172.841794,1480.411884,10288.862594,-612.876398
172.842115,2442.679609,10362.883188,-1225.752797
172.842436,3108.864956,9696.697840,-1225.752797
172.842756,4737.318029,7920.203579,-153.219100
172.843077,4811.338623,7105.977043,1685.410096
172.843398,4589.276840,9474.636058,995.924147
172.843719,2812.782580,10214.842000,153.219100
172.844040,3552.988522,9252.574275,-2221.676944
172.844360,5255.462188,8068.244768,-2451.505594
172.844681,5699.585753,6809.894666,0.000000
172.845002,5699.585753,7550.100608,1378.971896
172.845323,5329.482782,8512.368333,0.000000
172.845644,4219.173869,7179.997637,-995.924147
172.845964,4515.256246,6883.915261,-1072.533697
172.846285,5847.626942,6143.709319,76.609550
172.846606,5625.565159,7254.018232,459.657299
172.846927,5921.647536,8068.244768,0.000000
172.847248,5995.668130,6735.874072,0.000000
172.847568,6365.771101,5847.626942,459.657299
172.847889,5625.565159,6069.688724,919.314598
172.848210,4515.256246,6439.791695,-459.657299
172.848531,4219.173869,7179.997637,-1532.190996
172.848852,5329.482782,8290.306550,-1838.629195
172.849172,6217.729913,8586.388927,-612.876398
172.849493,6661.853478,8068.244768,-536.266849
172.849814,5699.585753,7846.182985,-383.047749
172.850135,5551.544565,8142.265362,-383.047749
172.850456,4071.132681,7698.141797,0.000000
172.850776,4293.194464,6069.688724,-383.047749
172.851097,5773.606348,6809.894666,0.000000
172.851418,5625.565159,8290.306550,536.266849
172.851739,5847.626942,8956.491898,919.314598
172.852060,8290.306550,9326.594869,229.828649
172.852380,6513.812290,8290.306550,-459.657299
172.852701,4737.318029,5625.565159,-1762.019645
172.853022,5625.565159,5551.544565,-229.828649
172.853343,5625.565159,7328.038826,459.657299
172.853664,6735.874072,9252.574275,153.219100
172.853984,7846.182985,9918.759623,-919.314598
172.854305,7254.018232,8882.471304,-2911.162892
172.854626,4811.338623,9622.677246,-1915.238745
172.854947,4219.173869,10214.842000,612.876398
172.855268,4219.173869,7920.203579,0.000000
172.855588,5477.523971,7105.977043,153.219100
172.855909,5329.482782,8142.265362,-383.047749
172.856230,3108.864956,9400.615463,-766.095498
172.856551,1480.411884,9474.636058,0.000000
172.856872,2812.782580,9992.780217,1072.533697
172.857192,3404.947333,10214.842000,1532.190996
172.857513,2960.823768,9548.656652,153.219100
172.857834,3330.926739,9030.512492,-842.705048
172.858155,2664.741391,9178.553681,-1378.971896
172.858476,3256.906145,8808.450710,229.828649
172.858796,4145.153275,7846.182985,919.314598
172.859117,4959.379811,6661.853478,-1225.752797
172.859438,4737.318029,6809.894666,-1149.143247
172.859759,3627.009116,9030.512492,306.438199
172.860080,4737.318029,10732.986159,0.000000
172.860400,5033.400406,11029.068536,-76.609550
172.860721,5995.668130,8216.285956,-1378.971896
172.861042,7476.080014,7105.977043,-612.876398
172.861363,6365.771101,5773.606348,153.219100
172.861684,4515.256246,5995.668130,0.000000
172.862004,4959.379811,7105.977043,-1149.143247
172.862325,4737.318029,6735.874072,-536.266849
172.862646,6809.894666,8142.265362,153.219100
172.862967,7105.977043,9178.553681,689.485948
172.863288,6217.729913,8808.450710,-153.219100
172.863608,4219.173869,7105.977043,-459.657299
172.863929,3552.988522,5625.565159,-612.876398
172.864250,4367.215058,6143.709319,76.609550
172.864571,4737.318029,7179.997637,383.047749
172.864892,4885.359217,8068.244768,0.000000
172.865212,5773.606348,10436.903782,76.609550
172.865533,5329.482782,10436.903782,842.705048
172.865854,4737.318029,9104.533087,229.828649
172.866175,5847.626942,5699.585753,229.828649
172.866496,5847.626942,4811.338623,842.705048
172.866816,6217.729913,5403.503377,2451.505594
172.867137,4737.318029,6883.915261,919.314598
172.867458,4811.338623,8290.306550,-1072.533697
172.867779,5847.626942,8290.306550,-766.095498
172.868100,7698.141797,9474.636058,1149.143247
172.868420,7624.121203,8142.265362,842.705048
172.868741,6513.812290,6513.812290,229.828649
172.869062,4441.235652,6291.750507,-1378.971896
172.869383,4145.153275,7254.018232,-842.705048
172.869704,4663.297435,9474.636058,612.876398
172.870024,5403.503377,10140.821405,-306.438199
172.870345,5847.626942,8512.368333,-995.924147
172.870666,5255.462188,7772.162391,-1149.143247
172.870987,3478.967927,7179.997637,-842.705048
172.871308,3034.844362,7994.224174,536.266849
172.871628,4219.173869,7328.038826,459.657299
172.871949,4589.276840,6143.709319,-536.266849
172.872270,5921.647536,7402.059420,459.657299
172.872591,5181.441594,8956.491898,0.000000
172.872912,3997.112087,10140.821405,-1608.800546
172.873232,4737.318029,8364.327145,-995.924147
172.873553,6587.832884,8290.306550,-76.609550
172.873874,6513.812290,7402.059420,612.876398
172.874195,5773.606348,7179.997637,-1302.362347
172.874516,4589.276840,8808.450710,-2757.943793
172.874836,3182.885551,8660.409521,-1149.143247
172.875157,4811.338623,8364.327145,383.047749
172.875478,5699.585753,7846.182985,766.095498
172.875799,5403.503377,6883.915261,-383.047749
172.876120,4885.359217,8586.388927,-689.485948
172.876440,4367.215058,10510.924376,-612.876398
172.876761,2368.659014,9548.656652,-1225.752797
172.877082,4885.359217,8956.491898,-689.485948
172.877403,5551.544565,7550.100608,766.095498
172.877724,5181.441594,8438.347739,229.828649
172.878044,4219.173869,9696.697840,76.609550
172.878365,3552.988522,10288.862594,-2451.505594
172.878686,3478.967927,8882.471304,-3447.429741
172.879007,5033.400406,7031.956449,-1378.971896
172.879328,7105.977043,7476.080014,1072.533697
172.879648,6957.935855,9030.512492,1225.752797
172.879969,5255.462188,8586.388927,306.438199
172.880290,4145.153275,7698.141797,-1302.362347
172.880611,5181.441594,7476.080014,-459.657299
172.880932,6439.791695,8734.430116,1608.800546
172.881252,7328.038826,8882.471304,842.705048
172.881573,7031.956449,7476.080014,-919.314598
172.881894,6365.771101,7402.059420,-1455.581446
172.882215,5625.565159,7550.100608,-919.314598
172.882536,6143.709319,7550.100608,229.828649
172.882856,5403.503377,6809.894666,612.876398
172.883177,6069.688724,7179.997637,229.828649
172.883498,5699.585753,7031.956449,229.828649
172.883819,5255.462188,7846.182985,-153.219100
172.884140,4145.153275,8068.244768,-919.314598
172.884460,5477.523971,8068.244768,-995.924147
172.884781,4959.379811,6809.894666,-1149.143247
172.885102,4959.379811,7031.956449,306.438199
172.885423,5921.647536,8364.327145,2528.115143
172.885744,3478.967927,8734.430116,2068.457845
172.886064,3923.091493,7624.121203,842.705048
172.886385,6957.935855,8142.265362,153.219100
172.886706,5773.606348,7698.141797,-766.095498
172.887027,5033.400406,5995.668130,-1225.752797
172.887348,6439.791695,5181.441594,0.000000
172.887668,5477.523971,5921.647536,689.485948
172.887989,4441.235652,7550.100608,1149.143247
172.888310,5329.482782,8068.244768,229.828649
172.888631,4515.256246,8438.347739,-1915.238745
172.888952,5551.544565,9918.759623,-1072.533697
172.889272,4737.318029,9770.718434,612.876398
172.889593,5181.441594,7328.038826,306.438199
172.889914,4367.215058,5551.544565,536.266849
172.890235,4071.132681,6957.935855,0.000000
172.890556,3034.844362,9104.533087,-1302.362347
172.890877,4367.215058,11029.068536,0.000000
172.891197,4219.173869,8956.491898,0.000000
172.891518,3997.112087,5773.606348,306.438199
172.891839,4737.318029,4959.379811,689.485948
172.892160,4589.276840,7994.224174,0.000000
172.892481,2368.659014,9104.533087,-1455.581446
172.892801,3552.988522,8512.368333,-2834.553343
172.893122,6661.853478,8364.327145,-2604.724693
172.893443,6439.791695,9548.656652,-306.438199
172.893764,5995.668130,10436.903782,1915.238745
172.894085,5033.400406,10214.842000,842.705048
172.894405,4145.153275,8364.327145,-919.314598
172.894726,4663.297435,8142.265362,-612.876398
172.895047,5107.421000,6365.771101,0.000000
172.895368,4515.256246,5921.647536,-229.828649
172.895689,5921.647536,8364.327145,612.876398
172.896009,5329.482782,9474.636058,306.438199
172.896330,5477.523971,9030.512492,-689.485948
172.896651,6217.729913,7179.997637,-76.609550
172.896972,5107.421000,6883.915261,76.609550
172.897293,4589.276840,8586.388927,-612.876398
172.897613,5255.462188,9474.636058,-1455.581446
172.897934,5773.606348,9178.553681,-2145.067394
172.898255,6439.791695,9030.512492,-995.924147
172.898576,6883.915261,9474.636058,153.219100
172.898897,5181.441594,9770.718434,-383.047749
172.899217,4145.153275,8734.430116,-766.095498
172.899538,5329.482782,7105.977043,0.000000
172.899859,6291.750507,6661.853478,0.000000
172.900180,6069.688724,7179.997637,459.657299
172.900501,5847.626942,8512.368333,1532.190996
172.900821,6069.688724,7698.141797,1532.190996
172.901142,6143.709319,6217.729913,1762.019645
172.901463,5551.544565,5773.606348,689.485948
172.901784,5921.647536,7105.977043,-1225.752797
172.902105,6217.729913,8216.285956,-1378.971896
172.902425,4811.338623,7402.059420,-995.924147
172.902746,6957.935855,6291.750507,-306.438199
172.903067,7031.956449,6809.894666,306.438199
172.903388,4663.297435,7254.018232,-766.095498
172.903709,4145.153275,7920.203579,-995.924147
172.904029,5255.462188,9770.718434,0.000000
172.904350,5329.482782,9030.512492,-383.047749
172.904671,6143.709319,8438.347739,-842.705048
172.904992,4737.318029,6291.750507,-153.219100
172.905313,3034.844362,7105.977043,0.000000
172.905633,2590.720797,8142.265362,1608.800546
172.905954,2368.659014,8290.306550,306.438199
172.906275,3478.967927,7624.121203,-1149.143247
172.906596,4145.153275,7994.224174,-306.438199
172.906917,3404.947333,9252.574275,-153.219100
172.907237,2960.823768,9474.636058,612.876398
172.907558,2738.761985,8660.409521,612.876398
172.907879,3923.091493,8734.430116,229.828649
172.908200,3108.864956,8808.450710,459.657299
172.908521,3182.885551,9474.636058,76.609550
172.908841,3997.112087,10732.986159,-383.047749
172.909162,4441.235652,9622.677246,306.438199
172.909483,5477.523971,8512.368333,1072.533697
172.909804,6143.709319,7550.100608,689.485948
172.910125,3478.967927,7624.121203,-229.828649
172.910445,3627.009116,7920.203579,-383.047749
172.910766,4589.276840,7920.203579,153.219100
172.911087,4885.359217,6883.915261,766.095498
172.911408,5625.565159,6957.935855,0.000000
172.911729,7402.059420,7624.121203,-1072.533697
172.912050,5551.544565,7624.121203,-2145.067394
172.912370,5847.626942,8956.491898,-1378.971896
172.912691,6143.709319,9622.677246,-612.876398
172.913012,6365.771101,9622.677246,-842.705048
172.913333,5329.482782,7994.224174,612.876398
172.913654,6291.750507,7179.997637,1608.800546
172.913974,5995.668130,7994.224174,1149.143247
172.914295,4441.235652,8734.430116,0.000000
172.914616,3701.029710,7254.018232,-2221.676944
172.914937,5329.482782,6661.853478,-1915.238745
172.915258,5625.565159,7031.956449,1378.971896
172.915578,5181.441594,7994.224174,2298.286494
172.915899,4959.379811,7994.224174,459.657299
172.916220,4663.297435,7254.018232,-1302.362347
172.916541,4441.235652,7624.121203,-1072.533697
172.916862,4071.132681,7772.162391,-383.047749
172.917182,4737.318029,8808.450710,229.828649
172.917503,4811.338623,9104.533087,0.000000
172.917824,5033.400406,8808.450710,-536.266849
172.918145,5847.626942,8290.306550,-1455.581446
172.918466,5255.462188,7772.162391,-2604.724693
172.918786,4959.379811,7920.203579,-1762.019645
172.919107,5033.400406,8364.327145,536.266849
172.919428,4737.318029,6587.832884,2068.457845
172.919749,5921.647536,5995.668130,1838.629195
172.920070,5625.565159,6883.915261,153.219100
172.920390,4737.318029,7031.956449,-1762.019645
172.920711,6069.688724,8586.388927,-2451.505594
172.921032,6661.853478,9104.533087,-2221.676944
172.921353,7105.977043,9104.533087,-1378.971896
172.921674,8512.368333,8290.306550,689.485948
172.921994,5403.503377,7994.224174,0.000000
172.922315,2960.823768,9104.533087,229.828649
172.922636,4219.173869,9326.594869,153.219100
172.922957,4663.297435,8734.430116,-153.219100
172.923278,5329.482782,7846.182985,0.000000
172.923598,4441.235652,8586.388927,383.047749
172.923919,2886.803174,9474.636058,-306.438199
172.924240,1702.473667,8364.327145,229.828649
172.924561,2368.659014,7846.182985,612.876398
172.924882,3404.947333,9104.533087,459.657299
172.925202,3775.050304,10881.027347,306.438199
172.925523,3256.906145,11547.212695,383.047749
172.925844,2368.659014,11325.150913,612.876398
172.926165,3627.009116,9474.636058,1838.629195
172.926486,3256.906145,7402.059420,1378.971896
172.926806,3404.947333,6735.874072,-612.876398
172.927127,3108.864956,6957.935855,-536.266849
172.927448,4959.379811,7994.224174,842.705048
172.927769,6143.709319,7846.182985,766.095498
172.928090,7846.182985,7698.141797,919.314598
172.928410,7105.977043,7031.956449,536.266849
172.928731,6661.853478,7179.997637,229.828649
172.929052,6957.935855,7179.997637,0.000000
172.929373,8142.265362,7772.162391,-842.705048
172.929694,6809.894666,5921.647536,-1608.800546
172.930014,5995.668130,4219.173869,-1378.971896
172.930335,6587.832884,5477.523971,-459.657299
172.930656,5255.462188,8068.244768,-612.876398
172.930977,4663.297435,8586.388927,-995.924147
172.931298,5773.606348,8216.285956,-1072.533697
172.931618,5699.585753,7476.080014,-766.095498
172.931939,4589.276840,7476.080014,-383.047749
172.932260,4811.338623,7105.977043,459.657299
172.932581,4293.194464,6809.894666,1072.533697
172.932902,4589.276840,7920.203579,919.314598
172.933223,4959.379811,8512.368333,842.705048
172.933543,4515.256246,8660.409521,-1455.581446
172.933864,4071.132681,7550.100608,-1072.533697
172.934185,4589.276840,7328.038826,919.314598
172.934506,5847.626942,7402.059420,1455.581446
172.934827,5329.482782,8216.285956,995.924147
172.935147,4959.379811,7994.224174,-919.314598
172.935468,4959.379811,8660.409521,-1915.238745
172.935789,6439.791695,9918.759623,383.047749
172.936110,5477.523971,10510.924376,1378.971896
172.936431,5181.441594,8586.388927,459.657299
172.936751,5255.462188,6143.709319,-612.876398
172.937072,6439.791695,7105.977043,229.828649
172.937393,3849.070898,8216.285956,689.485948
172.937714,2664.741391,10140.821405,-1378.971896
172.938035,3552.988522,9104.533087,-2604.724693
172.938355,3997.112087,7698.141797,-1915.238745
172.938676,4811.338623,9104.533087,766.095498
172.938997,5107.421000,9992.780217,766.095498
172.939318,3182.885551,9770.718434,-1608.800546
172.939639,3182.885551,9252.574275,-2451.505594
172.939959,4293.194464,10140.821405,-229.828649
172.940280,4737.318029,10066.800811,1072.533697
172.940601,4885.359217,9474.636058,919.314598
172.940922,4959.379811,7105.977043,-536.266849
172.941243,5033.400406,7624.121203,-383.047749
172.941563,4737.318029,8142.265362,76.609550
172.941884,4219.173869,7402.059420,0.000000
172.942205,5847.626942,7105.977043,0.000000
172.942526,6365.771101,6957.935855,1149.143247
172.942847,5107.421000,8068.244768,1608.800546
172.943167,4663.297435,7328.038826,-153.219100
172.943488,4367.215058,7254.018232,-2451.505594
172.943809,4663.297435,6883.915261,-2221.676944
172.944130,5477.523971,7254.018232,-306.438199
172.944451,5995.668130,8882.471304,459.657299
172.944771,6291.750507,8734.430116,229.828649
172.945092,4737.318029,8882.471304,-1149.143247
172.945413,3552.988522,8808.450710,-1072.533697
172.945734,4959.379811,9400.615463,0.000000
172.946055,5921.647536,8364.327145,-306.438199
172.946375,5255.462188,7254.018232,-842.705048
172.946696,5625.565159,6809.894666,-612.876398
172.947017,4071.132681,6217.729913,919.314598
172.947338,4071.132681,6513.812290,1149.143247
172.947659,6069.688724,6735.874072,842.705048
172.947979,6217.729913,6735.874072,153.219100
172.948300,6735.874072,7328.038826,-689.485948
172.948621,7105.977043,7772.162391,-612.876398
172.948942,6365.771101,8956.491898,-76.609550
172.949263,6217.729913,8808.450710,383.047749
172.949583,7031.956449,7772.162391,459.657299
172.949904,7179.997637,7772.162391,0.000000
172.950225,6513.812290,8512.368333,-229.828649
172.950546,5403.503377,7920.203579,0.000000
172.950867,5033.400406,7031.956449,76.609550
172.951187,3997.112087,6439.791695,1072.533697
172.951508,4737.318029,7550.100608,1762.019645
172.951829,4589.276840,7550.100608,919.314598
172.952150,4293.194464,6809.894666,-459.657299
172.952471,4219.173869,7402.059420,-1302.362347
172.952791,4145.153275,8734.430116,-842.705048
172.953112,3552.988522,9622.677246,0.000000
172.953433,4441.235652,10140.821405,383.047749
172.953754,3997.112087,9400.615463,-306.438199
172.954075,4441.235652,10658.965565,-459.657299
172.954396,4367.215058,10140.821405,-536.266849
172.954716,2146.597232,8882.471304,-1762.019645
172.955037,4959.379811,7624.121203,-1455.581446
172.955358,5773.606348,6661.853478,842.705048
172.955679,4885.359217,7031.956449,1532.190996
172.956000,4737.318029,7698.141797,1532.190996
172.956320,3552.988522,8142.265362,-612.876398
172.956641,3923.091493,6661.853478,-2604.724693
172.956962,6587.832884,7031.956449,-229.828649
172.957283,6587.832884,7328.038826,1685.410096
172.957604,5699.585753,7105.977043,842.705048
172.957924,5329.482782,7476.080014,0.000000
172.958245,3701.029710,8808.450710,-1991.848295
172.958566,4737.318029,9918.759623,-1455.581446
172.958887,4959.379811,9104.533087,-689.485948
172.959208,5773.606348,8808.450710,-1838.629195
172.959528,5403.503377,8512.368333,-536.266849
172.959849,5699.585753,9548.656652,919.314598
172.960170,4811.338623,9326.594869,0.000000
172.960491,3997.112087,7105.977043,-1455.581446
172.960812,4293.194464,5847.626942,-1455.581446
172.961132,4515.256246,7179.997637,-1149.143247
172.961453,4219.173869,6661.853478,995.924147
172.961774,5033.400406,7328.038826,842.705048
172.962095,6883.915261,8586.388927,153.219100
172.962416,4811.338623,9178.553681,-995.924147
172.962736,5329.482782,9696.697840,-995.924147
172.963057,5033.400406,8808.450710,-842.705048
172.963378,5847.626942,8290.306550,0.000000
172.963699,7476.080014,7994.224174,1149.143247
172.964020,7328.038826,7476.080014,766.095498
172.964340,6513.812290,6957.935855,0.000000
172.964661,6439.791695,7105.977043,229.828649
172.964982,5033.400406,7179.997637,0.000000
172.965303,5403.503377,7179.997637,-536.266849
172.965624,5995.668130,6143.709319,0.000000
172.965944,6883.915261,5921.647536,0.000000
172.966265,5995.668130,5847.626942,-306.438199
172.966586,4737.318029,6809.894666,-1149.143247
172.966907,4145.153275,8586.388927,-2145.067394
172.967228,3923.091493,9104.533087,-1378.971896
172.967548,5773.606348,9696.697840,-306.438199
172.967869,6661.853478,9474.636058,-383.047749
172.968190,5921.647536,9622.677246,-1072.533697
172.968511,4737.318029,9326.594869,-995.924147
172.968832,4219.173869,7179.997637,0.000000
172.969152,3923.091493,5995.668130,612.876398
172.969473,4145.153275,6587.832884,689.485948
172.969794,2368.659014,6735.874072,76.609550
172.970114,3256.906145,7624.121203,0.000000
172.970435,4737.318029,9622.677246,1608.800546
172.970756,4663.297435,10955.047942,842.705048
172.971076,5329.482782,9622.677246,-612.876398
172.971397,3627.009116,6291.750507,-1455.581446
172.971718,2812.782580,7031.956449,229.828649
172.972039,3775.050304,10732.986159,2298.286494
172.972359,2960.823768,10288.862594,612.876398
172.972680,3997.112087,9548.656652,-1991.848295
172.973001,8142.265362,9548.656652,-1072.533697
172.973321,4071.132681,9400.615463,0.000000
172.973642,3256.906145,7254.018232,0.000000
172.973963,3478.967927,5551.544565,0.000000
172.974283,4663.297435,6291.750507,76.609550
172.974604,5255.462188,7550.100608,689.485948
172.974925,5181.441594,8512.368333,0.000000
172.975245,4737.318029,8142.265362,-2757.943793
172.975566,4737.318029,8956.491898,-1302.362347
172.975887,5625.565159,9326.594869,766.095498
172.976208,6513.812290,8364.327145,-306.438199
172.976528,6735.874072,7846.182985,-536.266849
172.976849,4885.359217,7698.141797,-1302.362347
172.977170,4959.379811,9104.533087,-1149.143247
172.977490,3330.926739,8512.368333,1225.752797
172.977811,5033.400406,7994.224174,1225.752797
172.978132,5477.523971,6661.853478,842.705048
172.978452,5477.523971,6143.709319,842.705048
172.978773,4589.276840,8290.306550,995.924147
172.979094,3627.009116,8438.347739,0.000000
172.979414,4145.153275,7254.018232,-536.266849
172.979735,5921.647536,6587.832884,-689.485948
172.980056,5625.565159,5625.565159,459.657299
172.980377,5773.606348,7698.141797,459.657299
172.980697,5329.482782,8216.285956,0.000000
172.981018,3256.906145,8290.306550,-2068.457845
172.981339,5921.647536,9474.636058,-1915.238745
172.981659,7624.121203,9918.759623,-459.657299
172.981980,7476.080014,9844.739029,-1149.143247
172.982301,6587.832884,7105.977043,76.609550
172.982621,5625.565159,5699.585753,0.000000
172.982942,4441.235652,4959.379811,0.000000
172.983263,3997.112087,5625.565159,536.266849
172.983583,5921.647536,6291.750507,-919.314598
172.983904,6957.935855,6883.915261,-842.705048
172.984225,7328.038826,8290.306550,-306.438199
172.984546,6735.874072,9992.780217,0.000000
172.984866,5773.606348,9918.759623,-1991.848295
172.985187,4885.359217,7698.141797,-2221.676944
172.985508,5329.482782,7105.977043,-229.828649
172.985828,4737.318029,7994.224174,1149.143247
172.986149,3849.070898,9548.656652,842.705048
172.986470,3182.885551,10881.027347,-383.047749
172.986790,4515.256246,12213.398043,-689.485948
172.987111,3256.906145,9918.759623,-383.047749
172.987432,2442.679609,6587.832884,689.485948
172.987752,3404.947333,6439.791695,1149.143247
172.988073,2072.576638,8734.430116,995.924147
172.988394,-444.123565,8882.471304,842.705048
172.988715,3552.988522,9030.512492,-459.657299
172.989035,5403.503377,8438.347739,459.657299
172.989356,4071.132681,8882.471304,229.828649
172.989677,5699.585753,9474.636058,306.438199
172.989997,4885.359217,10658.965565,-1685.410096
172.990318,4589.276840,10955.047942,-2528.115143
172.990639,6291.750507,8438.347739,-459.657299
172.990959,6735.874072,6587.832884,-459.657299
172.991280,4811.338623,7698.141797,0.000000
172.991601,3849.070898,9474.636058,0.000000
172.991921,4589.276840,9474.636058,-766.095498
172.992242,5551.544565,7994.224174,-1378.971896
172.992563,4885.359217,6439.791695,842.705048
172.992884,5403.503377,7105.977043,995.924147
172.993204,3478.967927,7550.100608,1685.410096
172.993525,2368.659014,7105.977043,1378.971896
172.993846,3478.967927,7105.977043,383.047749
172.994166,4663.297435,7772.162391,0.000000
172.994487,5107.421000,8956.491898,-153.219100
172.994808,3849.070898,9030.512492,-1149.143247
172.995128,5255.462188,9622.677246,-1685.410096
172.995449,6143.709319,9548.656652,-536.266849
172.995770,5995.668130,8068.244768,229.828649
172.996090,5477.523971,5773.606348,153.219100
172.996411,5477.523971,6513.812290,919.314598
172.996732,4219.173869,7031.956449,536.266849
172.997053,5033.400406,6957.935855,-612.876398
172.997373,5699.585753,6069.688724,-766.095498
172.997694,6143.709319,5403.503377,-842.705048
172.998015,6587.832884,6069.688724,1149.143247
172.998335,7105.977043,8290.306550,1455.581446
172.998656,5625.565159,8956.491898,-536.266849
172.998977,5033.400406,7994.224174,-1149.143247
172.999297,5921.647536,7031.956449,-306.438199
172.999618,5551.544565,6883.915261,766.095498
172.999939,6439.791695,8142.265362,1225.752797
173.000259,6143.709319,8216.285956,-459.657299
173.000580,5921.647536,7994.224174,-2068.457845
173.000901,4145.153275,6809.894666,-1685.410096
173.001222,5403.503377,7105.977043,383.047749
173.001542,5403.503377,7994.224174,1225.752797
173.001863,4145.153275,9178.553681,1378.971896
173.002184,4737.318029,9474.636058,689.485948
173.002504,5773.606348,8586.388927,-383.047749
173.002825,5255.462188,7402.059420,-306.438199
173.003146,4737.318029,6439.791695,536.266849
173.003466,4589.276840,7402.059420,76.609550
173.003787,4367.215058,10584.944971,-766.095498
173.004108,4737.318029,11029.068536,-689.485948
173.004428,5551.544565,8364.327145,-842.705048
173.004749,6661.853478,6809.894666,-689.485948
173.005070,3849.070898,7105.977043,612.876398
173.005391,2664.741391,8216.285956,306.438199
173.005711,3552.988522,7624.121203,-76.609550
173.006032,5921.647536,7698.141797,0.000000
173.006353,7550.100608,9252.574275,0.000000
173.006673,4959.379811,10732.986159,-1225.752797
173.006994,1850.514855,9400.615463,-2451.505594
173.007315,2590.720797,8290.306550,-1302.362347
173.007635,5033.400406,8216.285956,1072.533697
173.007956,5181.441594,8734.430116,1762.019645
173.008277,4145.153275,9030.512492,-459.657299
173.008597,1850.514855,9770.718434,-3447.429741
173.008918,2146.597232,11843.295072,-1991.848295
173.009239,2368.659014,10214.842000,1991.848295
173.009560,5255.462188,7920.203579,2068.457845
173.009880,4515.256246,7179.997637,919.314598
173.010201,2294.638420,8586.388927,-229.828649
173.010522,2220.617826,9548.656652,-612.876398
173.010842,2812.782580,9474.636058,-536.266849
173.011163,5181.441594,7994.224174,76.609550
173.011484,7846.182985,7698.141797,1455.581446
173.011804,6735.874072,7920.203579,536.266849
173.012125,4737.318029,8734.430116,-459.657299
173.012446,4293.194464,8364.327145,-153.219100
173.012766,4663.297435,6957.935855,-1378.971896
173.013087,6069.688724,6587.832884,76.609550
173.013408,6291.750507,7105.977043,919.314598
173.013729,6735.874072,8142.265362,612.876398
173.014049,5403.503377,7772.162391,383.047749
173.014370,5921.647536,7550.100608,-689.485948
173.014691,5551.544565,7328.038826,-689.485948
173.015011,6735.874072,7402.059420,-383.047749
173.015332,6143.709319,7105.977043,-459.657299
173.015653,6809.894666,7105.977043,229.828649
173.015973,5699.585753,6291.750507,842.705048
173.016294,5329.482782,7105.977043,612.876398
173.016615,5181.441594,6809.894666,-383.047749
173.016935,6069.688724,6661.853478,-1455.581446
173.017256,6217.729913,6661.853478,-689.485948
173.017577,5699.585753,6735.874072,0.000000
173.017898,5033.400406,7105.977043,-383.047749
173.018218,4219.173869,6883.915261,-1072.533697
173.018539,7624.121203,7994.224174,-766.095498
173.018860,7105.977043,8808.450710,306.438199
173.019180,5181.441594,7994.224174,1149.143247
173.019501,5181.441594,7994.224174,995.924147
173.019822,5403.503377,8734.430116,689.485948
173.020142,3256.906145,7328.038826,383.047749
173.020463,6291.750507,6587.832884,612.876398
173.020784,5921.647536,5181.441594,-383.047749
173.021104,3330.926739,5107.421000,-1838.629195
173.021425,4219.173869,6735.874072,0.000000
173.021746,4959.379811,9326.594869,306.438199
173.022067,5773.606348,10066.800811,0.000000
173.022387,6143.709319,9474.636058,-766.095498
173.022708,5329.482782,8734.430116,-2604.724693
173.023029,4293.194464,8364.327145,-2451.505594
173.023349,4219.173869,9252.574275,-153.219100
173.023670,4367.215058,9104.533087,-766.095498
173.023991,5255.462188,8882.471304,-1149.143247
173.024311,4737.318029,8882.471304,-383.047749
173.024632,4293.194464,10658.965565,-459.657299
173.024953,3478.967927,10732.986159,383.047749
173.025273,2960.823768,9252.574275,995.924147
173.025594,3478.967927,7624.121203,689.485948
173.025915,3701.029710,7328.038826,1302.362347
173.026235,4145.153275,8438.347739,1532.190996
173.026556,2590.720797,9178.553681,0.000000
173.026877,2886.803174,9400.615463,-1378.971896
173.027198,4071.132681,9474.636058,-689.485948
173.027518,4589.276840,9400.615463,76.609550
173.027839,4145.153275,8512.368333,612.876398
173.028160,4885.359217,9474.636058,459.657299
173.028480,3849.070898,10732.986159,-383.047749
173.028801,3701.029710,11177.109724,-689.485948
173.029122,4737.318029,8512.368333,0.000000
173.029442,5255.462188,6587.832884,-306.438199
173.029763,4663.297435,5699.585753,689.485948
173.030084,4885.359217,6587.832884,1838.629195
173.030404,4737.318029,7328.038826,0.000000
173.030725,3997.112087,6587.832884,-2298.286494
173.031046,5551.544565,7402.059420,-2374.896044
173.031367,7772.162391,8512.368333,-919.314598
173.031687,7994.224174,8216.285956,0.000000
173.032008,6957.935855,6809.894666,0.000000
173.032329,7402.059420,6143.709319,-1455.581446
173.032649,5995.668130,6735.874072,-1149.143247
173.032970,5773.606348,7254.018232,-306.438199
173.033291,5255.462188,6883.915261,-536.266849
173.033611,7328.038826,7031.956449,-689.485948
173.033932,6439.791695,7402.059420,766.095498
173.034253,5921.647536,7179.997637,612.876398
173.034573,6143.709319,5329.482782,766.095498
173.034894,5403.503377,4219.173869,383.047749
173.035215,5551.544565,4737.318029,1072.533697
173.035536,5773.606348,7254.018232,1302.362347
173.035856,4737.318029,8216.285956,306.438199
173.036177,4441.235652,7254.018232,-766.095498
173.036498,7920.203579,7402.059420,383.047749
173.036818,6217.729913,7328.038826,536.266849
173.037139,5477.523971,8290.306550,-995.924147
173.037460,4293.194464,7254.018232,-2221.676944
173.037780,4959.379811,7994.224174,-2451.505594
173.038101,6957.935855,8438.347739,536.266849
173.038422,7105.977043,8882.471304,2374.896044
173.038742,4959.379811,8142.265362,-306.438199
173.039063,4885.359217,8364.327145,-1685.410096
173.039384,4663.297435,10066.800811,-842.705048
173.039705,4515.256246,10140.821405,-766.095498
173.040025,4367.215058,7550.100608,-229.828649
173.040346,5847.626942,6143.709319,-612.876398
173.040667,5329.482782,8290.306550,0.000000
173.040987,1406.391290,9030.512492,919.314598
173.041308,3034.844362,9326.594869,153.219100
173.041629,4515.256246,9548.656652,383.047749
173.041949,4071.132681,11029.068536,229.828649
173.042270,3775.050304,11251.130318,0.000000
173.042591,3478.967927,10288.862594,-459.657299
173.042911,3404.947333,8290.306550,-612.876398
173.043232,4441.235652,7105.977043,842.705048
173.043553,3478.967927,7328.038826,842.705048
173.043874,3256.906145,8364.327145,-383.047749
173.044194,3108.864956,8956.491898,153.219100
173.044515,3923.091493,8956.491898,-229.828649
173.044836,5773.606348,9400.615463,0.000000
173.045156,6069.688724,9548.656652,229.828649
173.045477,6217.729913,9252.574275,-1378.971896
173.045798,5107.421000,7624.121203,-1838.629195
173.046118,4589.276840,6587.832884,-1532.190996
173.046439,4959.379811,7698.141797,0.000000
173.046760,4811.338623,8364.327145,766.095498
173.047080,4885.359217,7994.224174,-842.705048
173.047401,5477.523971,8734.430116,-1915.238745
173.047722,5625.565159,8586.388927,-383.047749
173.048043,6217.729913,7402.059420,383.047749
173.048363,5773.606348,6143.709319,459.657299
173.048684,5403.503377,6217.729913,-536.266849
173.049005,4959.379811,6883.915261,-536.266849
173.049325,5773.606348,6957.935855,153.219100
173.049646,7179.997637,7698.141797,689.485948
173.049967,5625.565159,7994.224174,76.609550
173.050287,5921.647536,7994.224174,-1149.143247
173.050608,6439.791695,8068.244768,-536.266849
173.050929,6365.771101,7328.038826,919.314598
173.051249,4959.379811,5255.462188,1455.581446
173.051570,6661.853478,6513.812290,766.095498
173.051891,5403.503377,7698.141797,-229.828649
173.052212,4663.297435,7994.224174,153.219100
173.052532,6661.853478,7402.059420,306.438199
173.052853,5477.523971,7179.997637,0.000000
173.053174,4441.235652,7476.080014,-229.828649
173.053494,5181.441594,8290.306550,306.438199
173.053815,4515.256246,8290.306550,-919.314598
173.054136,5551.544565,8438.347739,-1608.800546
173.054456,6439.791695,8956.491898,-1225.752797
173.054777,3849.070898,8882.471304,-1915.238745
173.055098,2368.659014,8734.430116,-536.266849
173.055418,3404.947333,8734.430116,1072.533697
173.055739,4367.215058,10066.800811,306.438199
173.056060,3849.070898,9178.553681,306.438199
173.056381,3997.112087,9252.574275,-536.266849
173.056701,4811.338623,8586.388927,-1685.410096
173.057022,3478.967927,7476.080014,153.219100
173.057343,3330.926739,5995.668130,1608.800546
173.057663,5699.585753,5921.647536,1838.629195
173.057984,5477.523971,7254.018232,2068.457845
173.058305,4367.215058,9474.636058,0.000000
173.058625,5255.462188,10288.862594,-2221.676944
173.058946,6661.853478,9770.718434,-2221.676944
173.059267,7402.059420,8512.368333,-995.924147
173.059587,6217.729913,6957.935855,-153.219100
173.059908,5847.626942,7846.182985,-229.828649
173.060229,4737.318029,8808.450710,-459.657299
173.060550,3552.988522,9326.594869,229.828649
173.060870,4663.297435,8882.471304,-306.438199
173.061191,5255.462188,8808.450710,-612.876398
173.061512,5107.421000,8808.450710,-229.828649
173.061832,3775.050304,8438.347739,383.047749
173.062153,3182.885551,7402.059420,383.047749
173.062474,2590.720797,6291.750507,0.000000
173.062794,3330.926739,7698.141797,-536.266849
173.063115,3478.967927,9770.718434,-995.924147
173.063436,3775.050304,10140.821405,-1072.533697
173.063756,5625.565159,9474.636058,-612.876398
173.064077,5107.421000,9326.594869,229.828649
173.064398,5329.482782,8734.430116,1149.143247
173.064719,5033.400406,8512.368333,383.047749
173.065039,5033.400406,8068.244768,-689.485948
173.065360,5329.482782,7476.080014,-766.095498
173.065681,6957.935855,7105.977043,612.876398
173.066001,7179.997637,7105.977043,1378.971896
173.066322,6661.853478,7031.956449,995.924147
173.066643,4737.318029,6291.750507,0.000000
173.066963,6661.853478,6957.935855,-76.609550
173.067284,6217.729913,7105.977043,1225.752797
173.067605,5477.523971,5403.503377,1608.800546
173.067925,5329.482782,5625.565159,-842.705048
173.068246,6735.874072,7846.182985,-2145.067394
173.068567,5847.626942,9252.574275,-1532.190996
173.068887,7994.224174,9400.615463,-306.438199
173.069208,7031.956449,7105.977043,-1149.143247
173.069529,4293.194464,7328.038826,-1532.190996
173.069850,3478.967927,7772.162391,-153.219100
173.070170,4737.318029,9030.512492,612.876398
173.070491,5181.441594,8660.409521,-229.828649
173.070812,7105.977043,7994.224174,-229.828649
173.071132,5773.606348,6661.853478,-842.705048
173.071453,1924.535449,5551.544565,-536.266849
173.071774,2886.803174,7031.956449,2911.162892
173.072094,3552.988522,8290.306550,3907.087040
173.072415,4885.359217,7772.162391,1302.362347
173.072736,5403.503377,8068.244768,-612.876398
173.073056,5625.565159,9326.594869,-2068.457845
173.073377,3404.947333,8956.491898,-1149.143247
173.073698,3923.091493,8734.430116,306.438199
173.074018,4737.318029,8586.388927,919.314598
173.074339,4885.359217,9178.553681,842.705048
173.074660,4145.153275,8068.244768,229.828649
173.074980,3256.906145,8216.285956,-1685.410096
173.075301,3701.029710,8660.409521,-1378.971896
173.075622,5403.503377,11177.109724,995.924147
173.075942,4737.318029,9400.615463,1072.533697
173.076263,4071.132681,5921.647536,-919.314598
173.076584,5403.503377,6661.853478,-229.828649
173.076904,3404.947333,9622.677246,0.000000
173.077225,3034.844362,9548.656652,-766.095498
173.077546,4071.132681,8512.368333,-1762.019645
173.077866,6217.729913,8956.491898,-1915.238745
173.078187,6735.874072,9326.594869,383.047749
173.078508,5181.441594,9992.780217,1532.190996
173.078828,3701.029710,8512.368333,-1149.143247
173.079149,3997.112087,8808.450710,-2374.896044
173.079470,4219.173869,9474.636058,-1302.362347
173.079790,5699.585753,9400.615463,612.876398
173.080111,5699.585753,7994.224174,1991.848295
173.080432,5181.441594,7994.224174,1762.019645
173.080752,3775.050304,9252.574275,306.438199
173.081073,2072.576638,8512.368333,-536.266849
173.081394,2960.823768,7179.997637,-612.876398
173.081715,4737.318029,6809.894666,1455.581446
173.082035,5625.565159,8216.285956,2298.286494
173.082356,4293.194464,9770.718434,1149.143247
173.082677,2886.803174,8586.388927,-1762.019645
173.082997,3701.029710,6513.812290,-2451.505594
173.083318,4737.318029,6513.812290,0.000000
173.083639,5625.565159,7476.080014,766.095498
173.083959,6217.729913,9326.594869,0.000000
173.084280,6513.812290,9696.697840,-1455.581446
173.084601,6217.729913,7550.100608,-2757.943793
173.084921,7105.977043,5033.400406,-2145.067394
173.085242,8068.244768,5921.647536,-306.438199
173.085563,7920.203579,7105.977043,1302.362347
173.085883,5403.503377,6883.915261,383.047749
173.086204,8068.244768,6291.750507,-842.705048
173.086525,7624.121203,7105.977043,0.000000
173.086845,5995.668130,6143.709319,689.485948
173.087166,6217.729913,5107.421000,-153.219100
173.087487,6587.832884,5625.565159,-1149.143247
173.087807,5921.647536,6365.771101,-383.047749
173.088128,5995.668130,8142.265362,1149.143247
173.088449,3849.070898,7105.977043,536.266849
173.088769,3182.885551,7550.100608,-995.924147
173.089090,4145.153275,9252.574275,306.438199
173.089411,3775.050304,10214.842000,0.000000
173.089731,3478.967927,9030.512492,-919.314598
173.090052,3627.009116,8216.285956,-995.924147
173.090373,2960.823768,9104.533087,-459.657299
173.090693,1702.473667,9992.780217,1072.533697
173.091014,3182.885551,9326.594869,919.314598
173.091335,3552.988522,8660.409521,-306.438199
173.091655,3256.906145,8512.368333,-459.657299
173.091976,3034.844362,9548.656652,1072.533697
173.092297,3627.009116,9622.677246,766.095498
173.092617,3849.070898,8512.368333,-1072.533697
173.092938,5921.647536,8808.450710,-536.266849
173.093259,5107.421000,7920.203579,-1378.971896
173.093580,5477.523971,8882.471304,-459.657299
173.093900,6143.709319,10066.800811,1149.143247
173.094221,5181.441594,10214.842000,306.438199
173.094542,5477.523971,9252.574275,-995.924147
173.094862,6809.894666,9104.533087,-383.047749
173.095183,5847.626942,8882.471304,0.000000
173.095504,4367.215058,8216.285956,459.657299
173.095824,4441.235652,7105.977043,-383.047749
173.096145,3775.050304,7846.182985,0.000000
173.096466,3552.988522,7624.121203,1072.533697
173.096786,2960.823768,6883.915261,919.314598
173.097107,3701.029710,6513.812290,-766.095498
173.097428,2886.803174,8512.368333,-689.485948
173.097748,3108.864956,10510.924376,0.000000
173.098069,3997.112087,8734.430116,-536.266849
173.098390,5181.441594,7698.141797,-1225.752797
173.098710,5921.647536,9104.533087,-306.438199
173.099031,4737.318029,9622.677246,-766.095498
173.099352,3478.967927,9030.512492,-1149.143247
173.099672,4885.359217,8364.327145,-1685.410096
173.099993,5847.626942,7550.100608,-995.924147
173.100314,5625.565159,7105.977043,995.924147
173.100634,5773.606348,6143.709319,536.266849
173.100955,4367.215058,5551.544565,-766.095498
173.101276,5551.544565,5995.668130,153.219100
173.101596,5847.626942,5625.565159,1149.143247
173.101917,6587.832884,4515.256246,229.828649
173.102238,7624.121203,4737.318029,-689.485948
173.102558,8660.409521,7772.162391,-689.485948
173.102879,6365.771101,9178.553681,-1455.581446
173.103200,7328.038826,8956.491898,-2374.896044
173.103520,9474.636058,7328.038826,-1532.190996
173.103841,7254.018232,6217.729913,-919.314598
173.104162,6587.832884,7105.977043,76.609550
173.104482,4441.235652,7772.162391,-995.924147
173.104803,4219.173869,8068.244768,-1915.238745
173.105124,6069.688724,7550.100608,842.705048
173.105445,5773.606348,8512.368333,1991.848295
173.105765,3404.947333,7328.038826,0.000000
173.106086,3034.844362,8216.285956,-842.705048
173.106407,2516.700203,8438.347739,-383.047749
173.106727,2220.617826,8068.244768,-689.485948
173.107048,3775.050304,7624.121203,766.095498
173.107369,5551.544565,9992.780217,0.000000
173.107689,3997.112087,12139.377449,-995.924147
173.108010,2664.741391,11843.295072,-536.266849
173.108331,4219.173869,10732.986159,-536.266849
173.108651,4737.318029,9178.553681,76.609550
173.108972,4885.359217,9104.533087,1149.143247
173.109293,4441.235652,8734.430116,766.095498
173.109613,2516.700203,8290.306550,-383.047749
173.109934,4219.173869,8808.450710,-306.438199
173.110255,4737.318029,8808.450710,1072.533697
173.110575,4441.235652,7846.182985,0.000000
173.110896,4885.359217,8364.327145,-383.047749
173.111217,4293.194464,8734.430116,-306.438199
173.111537,5255.462188,8734.430116,-459.657299
173.111858,5625.565159,8660.409521,-229.828649
173.112179,4663.297435,7772.162391,-689.485948
173.112499,4219.173869,8068.244768,-1225.752797
173.112820,4367.215058,9844.739029,306.438199
173.113141,4441.235652,9622.677246,0.000000
173.113461,4367.215058,7846.182985,-919.314598
173.113782,4737.318029,6587.832884,-919.314598
173.114103,5773.606348,7105.977043,-229.828649
173.114423,4959.379811,6883.915261,1149.143247
173.114744,4441.235652,7031.956449,536.266849
173.115065,6069.688724,8068.244768,0.000000
173.115385,4737.318029,7328.038826,306.438199
173.115706,5625.565159,7698.141797,919.314598
173.116027,7105.977043,8290.306550,306.438199
173.116347,6143.709319,7550.100608,-229.828649
173.116668,5847.626942,6957.935855,-842.705048
173.116989,4959.379811,6809.894666,-842.705048
173.117309,4959.379811,6661.853478,0.000000
173.117630,4811.338623,6661.853478,306.438199
173.117951,6291.750507,7624.121203,0.000000
173.118272,6513.812290,7698.141797,-76.609550
173.118592,6217.729913,7105.977043,0.000000
173.118913,5625.565159,5255.462188,536.266849
173.119234,7254.018232,7105.977043,229.828649
173.119554,5921.647536,7772.162391,229.828649
173.119875,5329.482782,7846.182985,-689.485948
173.120196,7402.059420,7105.977043,-1685.410096
173.120516,5699.585753,6217.729913,-1302.362347
173.120837,4663.297435,5773.606348,-459.657299
173.121158,6143.709319,7476.080014,536.266849
173.121478,5477.523971,8364.327145,-383.047749
173.121799,5403.503377,8660.409521,-842.705048
173.122120,6957.935855,8216.285956,-766.095498
173.122440,5403.503377,8586.388927,-1685.410096
173.122761,3775.050304,8586.388927,-612.876398
173.123082,4885.359217,8956.491898,1072.533697
173.123402,6513.812290,8364.327145,0.000000
173.123723,4589.276840,8586.388927,153.219100
173.124044,3849.070898,9548.656652,76.609550
173.124364,2368.659014,9326.594869,-459.657299
173.124685,3404.947333,9548.656652,306.438199
173.125006,3256.906145,9400.615463,1532.190996
173.125326,4441.235652,8438.347739,0.000000
173.125647,3849.070898,8364.327145,-536.266849
173.125968,1924.535449,8364.327145,-536.266849
173.126288,1332.370696,7846.182985,-229.828649
173.126609,3701.029710,9696.697840,459.657299
173.126930,4589.276840,10066.800811,0.000000
173.127250,4663.297435,9474.636058,-1378.971896
173.127571,5995.668130,10584.944971,-612.876398
173.127892,4959.379811,10881.027347,76.609550
173.128212,4737.318029,9326.594869,536.266849
173.128533,4515.256246,7550.100608,0.000000
173.128854,4219.173869,7254.018232,-1608.800546
173.129174,3627.009116,7920.203579,-919.314598
173.129495,4441.235652,8216.285956,689.485948
173.129816,5181.441594,7402.059420,153.219100
173.130137,5181.441594,7105.977043,0.000000
173.130457,5477.523971,8290.306550,0.000000
173.130778,5625.565159,10436.903782,-153.219100
173.131099,5033.400406,9696.697840,-459.657299
173.131419,5477.523971,7402.059420,-306.438199
173.131740,6217.729913,5847.626942,0.000000
173.132061,6069.688724,6735.874072,306.438199
173.132381,6661.853478,8512.368333,306.438199
173.132702,4737.318029,8808.450710,-766.095498
173.133023,5551.544565,7994.224174,-1225.752797
173.133343,5921.647536,6735.874072,1378.971896
173.133664,5255.462188,5107.421000,2451.505594
173.133985,4219.173869,3775.050304,842.705048
173.134305,5181.441594,5033.400406,-306.438199
173.134626,6069.688724,6439.791695,-919.314598
173.134947,7624.121203,6809.894666,0.000000
173.135267,6365.771101,5773.606348,0.000000
173.135588,7550.100608,7994.224174,-1378.971896
173.135909,8660.409521,11399.171507,-536.266849
173.136229,6661.853478,11251.130318,459.657299
173.136550,8512.368333,7402.059420,76.609550
173.136871,9030.512492,3997.112087,536.266849
173.137191,5847.626942,2812.782580,229.828649
173.137512,5477.523971,3330.926739,1302.362347
173.137833,5477.523971,4441.235652,766.095498
173.138153,7550.100608,5107.421000,153.219100
173.138474,10658.965565,5033.400406,383.047749
173.138795,10066.800811,4367.215058,153.219100
173.139115,8882.471304,5403.503377,-1455.581446
173.139436,8660.409521,6513.812290,-229.828649
173.139757,8882.471304,6883.915261,-919.314598
173.140077,10807.006753,6217.729913,-1838.629195
173.140398,10955.047942,6069.688724,-1072.533697
173.140719,10807.006753,7476.080014,-1991.848295
173.141039,8216.285956,8512.368333,-1762.019645
173.141360,5255.462188,7402.059420,-842.705048
173.141681,6069.688724,5847.626942,153.219100
173.142002,8068.244768,5107.421000,2068.457845
173.142322,6439.791695,5255.462188,2068.457845
173.142643,4441.235652,6365.771101,0.000000
173.142964,4737.318029,7476.080014,-919.314598
173.143284,6809.894666,8660.409521,612.876398
173.143605,7105.977043,7772.162391,1915.238745
173.143926,7920.203579,6513.812290,1532.190996
173.144246,8142.265362,7698.141797,-153.219100
173.144567,7698.141797,8068.244768,-383.047749
173.144888,8734.430116,8068.244768,-1149.143247
173.145208,10658.965565,5995.668130,-1532.190996
173.145529,11991.336260,4737.318029,-1762.019645
173.145850,12287.418637,4441.235652,-612.876398
173.146170,11547.212695,4811.338623,306.438199
173.146491,10732.986159,4885.359217,459.657299
173.146812,11769.274478,4441.235652,612.876398
173.147132,10881.027347,2516.700203,0.000000
173.147453,12657.521608,3182.885551,-1149.143247
173.147774,13175.665768,4737.318029,-689.485948
173.148094,10732.986159,5255.462188,-536.266849
173.148415,9918.759623,4219.173869,-1378.971896
173.148736,10140.821405,3997.112087,-1532.190996
173.149056,9696.697840,4441.235652,-1149.143247
173.149377,9474.636058,5773.606348,306.438199
173.149698,8882.471304,6957.935855,1149.143247
173.150018,7402.059420,7105.977043,-612.876398
173.150339,7328.038826,5625.565159,-766.095498
173.150660,7105.977043,4663.297435,-306.438199
173.150980,7846.182985,5033.400406,-229.828649
173.151301,7698.141797,7105.977043,536.266849
173.151622,6291.750507,7328.038826,229.828649
173.151942,7031.956449,5847.626942,0.000000
173.152263,8216.285956,4811.338623,1608.800546
173.152584,8808.450710,5995.668130,2451.505594
173.152904,7772.162391,6069.688724,1532.190996
173.153225,8216.285956,5477.523971,0.000000
173.153546,9474.636058,3701.029710,306.438199
173.153867,11103.089130,2886.803174,1455.581446
173.154187,12657.521608,2738.761985,1149.143247
173.154508,12435.459826,4441.235652,-383.047749
173.154829,12509.480420,5107.421000,-1455.581446
173.155149,13101.645173,4515.256246,-1225.752797
173.155470,13471.748144,2738.761985,-612.876398
173.155791,13397.727550,3478.967927,-459.657299
173.156111,12287.418637,5847.626942,-842.705048
173.156432,10214.842000,6143.709319,-2374.896044
173.156753,10584.944971,5329.482782,-2068.457845
173.157073,10066.800811,3256.906145,-306.438199
173.157394,8438.347739,2294.638420,612.876398
173.157715,7624.121203,4811.338623,1532.190996
173.158035,5255.462188,7994.224174,306.438199
173.158356,4737.318029,9326.594869,-995.924147
173.158677,6365.771101,8290.306550,-383.047749
173.158997,7031.956449,7179.997637,459.657299
173.159318,5625.565159,7328.038826,1762.019645
173.159639,4441.235652,7846.182985,1532.190996
173.159959,4293.194464,9104.533087,-612.876398
173.160280,4737.318029,8290.306550,-306.438199
173.160601,5625.565159,6587.832884,1378.971896
173.160921,7772.162391,6143.709319,2298.286494
173.161242,7402.059420,6661.853478,1685.410096
173.161563,7402.059420,6957.935855,0.000000
173.161883,9178.553681,6957.935855,-1072.533697
173.162204,10955.047942,5477.523971,-383.047749
173.162525,11251.130318,4515.256246,919.314598
173.162845,12361.439231,4737.318029,1608.800546
173.163166,11621.233289,4959.379811,153.219100
173.163487,11473.192101,4959.379811,-1762.019645
173.163807,11917.315666,4293.194464,-1838.629195
173.164128,13249.686362,3775.050304,-1685.410096
173.164449,12953.603985,4589.276840,-459.657299
173.164769,11399.171507,4737.318029,-153.219100
173.165090,10807.006753,4959.379811,-1149.143247
173.165411,9844.739029,4367.215058,-1608.800546
173.165731,9400.615463,3923.091493,-1378.971896
173.166052,9104.533087,4071.132681,-766.095498
173.166373,8660.409521,4515.256246,-995.924147
173.166694,8734.430116,6143.709319,-1225.752797
173.167014,8438.347739,7920.203579,-842.705048
173.167335,6957.935855,7624.121203,-153.219100
173.167656,7105.977043,6439.791695,153.219100
173.167976,7328.038826,5477.523971,1302.362347
173.168297,7031.956449,5033.400406,1762.019645
173.168618,6957.935855,4367.215058,1149.143247
173.168938,7624.121203,4367.215058,76.609550
173.169259,8512.368333,4071.132681,0.000000
173.169580,9770.718434,4071.132681,1915.238745
173.169900,11029.068536,4811.338623,1762.019645
173.170221,11843.295072,5551.544565,-459.657299
173.170542,11843.295072,5107.421000,-1685.410096
173.170862,11547.212695,3997.112087,-995.924147
173.171183,11917.315666,3478.967927,0.000000
173.171504,12953.603985,3256.906145,766.095498
173.171824,12805.562797,4219.173869,-306.438199
173.172145,11843.295072,4663.297435,-2604.724693
173.172465,11473.192101,6069.688724,-3447.429741
173.172786,11769.274478,6513.812290,-1302.362347
173.173107,10955.047942,6291.750507,383.047749
173.173427,9770.718434,5699.585753,1225.752797
173.173748,8512.368333,5255.462188,383.047749
173.174068,7105.977043,5921.647536,0.000000
173.174389,6587.832884,6217.729913,-766.095498
173.174710,6143.709319,5551.544565,-153.219100
173.175030,7105.977043,5847.626942,153.219100
173.175351,7031.956449,7328.038826,689.485948
173.175671,6661.853478,9178.553681,383.047749
173.175992,6809.894666,8438.347739,689.485948
173.176313,7105.977043,7328.038826,2221.676944
173.176633,7254.018232,5921.647536,2221.676944
173.176954,7698.141797,4737.318029,1762.019645
173.177274,8142.265362,5107.421000,0.000000
173.177595,9326.594869,6291.750507,-1149.143247
173.177916,9474.636058,6069.688724,-842.705048
173.178236,10288.862594,4589.276840,-306.438199
173.178557,10658.965565,3849.070898,76.609550
173.178877,10658.965565,4589.276840,76.609550
173.179198,10214.842000,5329.482782,0.000000
173.179519,10214.842000,5773.606348,-612.876398
173.179839,10658.965565,5255.462188,-995.924147
173.180160,10955.047942,4441.235652,-1149.143247
173.180480,10362.883188,4811.338623,-1149.143247
173.180801,9696.697840,6069.688724,-1302.362347
173.181122,9030.512492,6587.832884,-1378.971896
173.181442,9178.553681,6217.729913,-919.314598
173.181763,9622.677246,4959.379811,-459.657299
173.182084,9104.533087,3997.112087,76.609550
173.182404,8216.285956,3404.947333,689.485948
173.182725,8290.306550,3108.864956,153.219100
173.183045,8808.450710,3182.885551,153.219100
173.183366,9992.780217,4145.153275,-383.047749
173.183687,10362.883188,4811.338623,-383.047749
173.184007,10658.965565,5773.606348,-1302.362347
173.184328,10658.965565,7105.977043,-612.876398
173.184648,11103.089130,7698.141797,-536.266849
173.184969,11103.089130,7624.121203,-383.047749
173.185290,11103.089130,6735.874072,-612.876398
173.185610,10140.821405,5329.482782,306.438199
173.185931,9474.636058,4663.297435,919.314598
173.186251,9178.553681,3404.947333,1991.848295
173.186572,8882.471304,3256.906145,1685.410096
173.186893,9252.574275,3330.926739,1532.190996
173.187213,9400.615463,3997.112087,229.828649
173.187534,9474.636058,4441.235652,-612.876398
173.187854,9696.697840,4441.235652,-995.924147
173.188175,10288.862594,5181.441594,-1378.971896
173.188496,11251.130318,6069.688724,-1455.581446
173.188816,11029.068536,7254.018232,-2068.457845
173.189137,10732.986159,7624.121203,-1685.410096
173.189457,10658.965565,7476.080014,-995.924147
173.189778,10288.862594,6735.874072,-306.438199
173.190099,9178.553681,6069.688724,0.000000
173.190419,8882.471304,5403.503377,153.219100
173.190740,8734.430116,4367.215058,229.828649
173.191060,8364.327145,3404.947333,995.924147
173.191381,8142.265362,2738.761985,1532.190996
173.191702,8216.285956,3775.050304,919.314598
173.192022,7550.100608,5329.482782,919.314598
173.192343,7994.224174,7254.018232,383.047749
173.192664,7920.203579,8586.388927,536.266849
173.192984,7476.080014,8734.430116,842.705048
173.193305,6883.915261,7994.224174,919.314598
173.193625,5921.647536,7550.100608,612.876398
173.193946,4737.318029,7254.018232,-612.876398
173.194267,4811.338623,6661.853478,-1072.533697
173.194587,5033.400406,6439.791695,-689.485948
173.194908,6069.688724,6661.853478,-612.876398
173.195228,5403.503377,7624.121203,306.438199
173.195549,5551.544565,8956.491898,1455.581446
173.195870,5773.606348,9548.656652,2298.286494
173.196190,6217.729913,9474.636058,2451.505594
173.196511,6439.791695,8734.430116,2298.286494
173.196831,6143.709319,7698.141797,1915.238745
173.197152,5551.544565,7402.059420,1685.410096
173.197473,5847.626942,7994.224174,2145.067394
173.197793,6365.771101,9030.512492,2145.067394
173.198114,7105.977043,9844.739029,2604.724693
173.198434,6661.853478,9992.780217,2757.943793
173.198755,6439.791695,9696.697840,4060.306139
173.199076,6883.915261,8882.471304,4290.134789
173.199396,6439.791695,8364.327145,4749.792088
173.199717,6661.853478,8216.285956,4903.011187
173.200037,7550.100608,8438.347739,5132.839837
173.200358,7402.059420,9252.574275,6281.983084
173.200679,6735.874072,9252.574275,6818.249932
173.200999,6513.812290,8808.450710,7507.735880
173.201320,5847.626942,8956.491898,7507.735880
173.201640,6513.812290,7994.224174,7660.954980
173.201961,6883.915261,6661.853478,8273.831378
173.202282,6143.709319,5699.585753,7354.516781
173.202602,5921.647536,5033.400406,6894.859482
173.202923,5921.647536,5107.421000,6741.640382
173.203243,6439.791695,6587.832884,6741.640382
173.203564,7031.956449,8068.244768,6971.469032
173.203885,6957.935855,8734.430116,6971.469032
173.204205,7105.977043,8364.327145,7201.297681
173.204526,6291.750507,7772.162391,7660.954980
173.204847,5107.421000,7105.977043,8273.831378
173.205167,4589.276840,6069.688724,8120.612279
173.205488,3627.009116,5329.482782,6818.249932
173.205808,2960.823768,5181.441594,6665.030833
173.206129,2664.741391,5255.462188,6741.640382
173.206450,2886.803174,4959.379811,7354.516781
173.206770,2812.782580,5995.668130,7354.516781
173.207091,2368.659014,6735.874072,7584.345430
173.207411,2368.659014,7105.977043,7431.126331
173.207732,2664.741391,7476.080014,7507.735880
173.208053,3182.885551,7994.224174,7814.174080
173.208373,3478.967927,8142.265362,7890.783629
173.208694,3108.864956,7772.162391,6281.983084
173.209014,3108.864956,7031.956449,5669.106685
173.209335,2368.659014,5773.606348,5745.716235
173.209656,2368.659014,4663.297435,5439.278036
173.209976,2368.659014,3923.091493,5515.887586
173.210297,1850.514855,3849.070898,4596.572988
173.210617,2812.782580,4959.379811,3677.258390
173.210938,4737.318029,6513.812290,3294.210641
173.211259,4959.379811,7920.203579,2911.162892
173.211579,6217.729913,9326.594869,3140.991542
173.211900,7031.956449,10955.047942,2757.943793
173.212220,6587.832884,11473.192101,2681.334243
173.212541,6069.688724,9548.656652,3907.087040
173.212862,6143.709319,8438.347739,4749.792088
173.213182,5477.523971,8808.450710,5362.668486
173.213503,4959.379811,9548.656652,4903.011187
173.213823,3923.091493,8438.347739,4213.525239
173.214144,3256.906145,6365.771101,2681.334243
173.214465,3552.988522,3404.947333,2068.457845
173.214785,4515.256246,2294.638420,1378.971896
173.215106,5181.441594,4737.318029,919.314598
173.215427,6513.812290,8882.471304,-536.266849
173.215747,8512.368333,13545.768739,-1915.238745
173.216068,10658.965565,16950.716072,-1838.629195
173.216388,11029.068536,17690.922014,-229.828649
173.216709,9622.677246,16802.674883,3217.601092
173.217030,7994.224174,13841.851115,4749.792088
173.217350,5995.668130,9844.739029,5362.668486
173.217671,6143.709319,8142.265362,7124.688131
173.217991,2368.659014,6809.894666,6741.640382
173.218312,1554.432478,5995.668130,4749.792088
173.218633,1406.391290,6143.709319,3140.991542
173.218953,3108.864956,6143.709319,2451.505594
173.219274,4219.173869,6217.729913,2221.676944
173.219594,7105.977043,8216.285956,2604.724693
173.219915,7624.121203,10955.047942,1838.629195
173.220236,7254.018232,14730.098246,1608.800546
173.220556,7179.997637,15766.386565,1378.971896
173.220877,8882.471304,15766.386565,1455.581446
173.221197,8512.368333,14211.954086,1455.581446
173.221518,6587.832884,10288.862594,3140.991542
173.221839,5181.441594,6291.750507,4903.011187
173.222159,4737.318029,4589.276840,6971.469032
173.222480,1924.535449,5181.441594,6205.373534
173.222800,2368.659014,7179.997637,4596.572988
173.223121,3775.050304,7772.162391,3524.039291
173.223442,4219.173869,7624.121203,5822.325785
173.223762,4811.338623,6217.729913,9422.974625
173.224083,5921.647536,6439.791695,10572.117872
173.224403,5107.421000,10066.800811,9652.803275
173.224724,1702.473667,12361.439231,6281.983084
173.225045,1776.494261,9548.656652,4213.525239
173.225365,4811.338623,7624.121203,4136.915689
173.225686,4737.318029,5033.400406,7354.516781
173.226007,4441.235652,6587.832884,9806.022374
173.226327,2812.782580,8142.265362,8810.098227
173.226648,666.185348,9178.553681,5132.839837
173.226968,1924.535449,7105.977043,5515.887586
173.227289,4219.173869,3997.112087,7124.688131
173.227610,4515.256246,2072.576638,7814.174080
173.227930,5551.544565,3256.906145,8273.831378
173.228251,6439.791695,7550.100608,7354.516781
173.228571,5625.565159,10436.903782,5898.935335
173.228892,3775.050304,9252.574275,5515.887586
173.229213,4663.297435,5773.606348,5439.278036
173.229533,3404.947333,3627.009116,6894.859482
173.229854,2220.617826,3552.988522,9422.974625
173.230174,4515.256246,6661.853478,10648.727422
173.230495,3923.091493,9548.656652,9193.145976
173.230816,3108.864956,12065.356855,5975.544884
173.231136,3182.885551,11473.192101,4596.572988
173.231457,4071.132681,8512.368333,4596.572988
173.231777,2220.617826,3552.988522,5745.716235
173.232098,2664.741391,518.144159,6971.469032
173.232419,4885.359217,1998.556043,7507.735880
173.232739,4367.215058,5847.626942,7967.393179
173.233060,3034.844362,7846.182985,5898.935335
173.233380,4663.297435,8512.368333,3294.210641
173.233701,7105.977043,10584.944971,3830.477490
173.234022,4737.318029,11325.150913,6588.421283
173.234342,5847.626942,10214.842000,6588.421283
173.234663,7698.141797,9326.594869,4903.011187
173.234983,5625.565159,9104.533087,2834.553343
173.235304,3256.906145,6513.812290,1149.143247
173.235625,4663.297435,5255.462188,1838.629195
173.235945,5477.523971,6957.935855,4596.572988
173.236266,4071.132681,10140.821405,5975.544884
173.236586,5403.503377,11547.212695,4903.011187
173.236907,6217.729913,11029.068536,3447.429741
173.237228,5921.647536,11029.068536,3140.991542
173.237548,6143.709319,10732.986159,4596.572988
173.237869,6069.688724,10510.924376,4213.525239
173.238190,4589.276840,9844.739029,3907.087040
173.238510,4589.276840,10436.903782,4903.011187
173.238831,6217.729913,11473.192101,5515.887586
173.239151,6439.791695,10658.965565,4290.134789
173.239472,4589.276840,9770.718434,3064.381992
173.239793,4071.132681,7402.059420,3753.867940
173.240113,5921.647536,6365.771101,5362.668486
173.240434,6883.915261,6587.832884,5822.325785
173.240754,6365.771101,7772.162391,2987.772442
173.241075,6143.709319,9622.677246,1455.581446
173.241396,8290.306550,11769.274478,2068.457845
173.241716,8216.285956,10584.944971,3370.820191
173.242037,8142.265362,9252.574275,4290.134789
173.242357,8142.265362,8438.347739,3217.601092
173.242678,5477.523971,8882.471304,2681.334243
173.242999,4071.132681,10510.924376,3370.820191
173.243319,4367.215058,10214.842000,3370.820191
173.243640,3701.029710,7328.038826,3217.601092
173.243960,3627.009116,5181.441594,4749.792088
173.244281,3775.050304,6735.874072,6358.592633
173.244602,518.144159,7624.121203,5975.544884
173.244922,-444.123565,7105.977043,4290.134789
173.245243,1702.473667,6661.853478,3140.991542
173.245563,3701.029710,7772.162391,4213.525239
173.245884,5329.482782,9992.780217,5822.325785
173.246205,5699.585753,13767.830521,5132.839837
173.246525,3034.844362,13841.851115,3677.258390
173.246846,1702.473667,9918.759623,3830.477490
173.247166,3775.050304,4737.318029,6511.811733
173.247487,4663.297435,2738.761985,7737.564530
173.247808,3997.112087,4589.276840,7277.907231
173.248128,3552.988522,6513.812290,3370.820191
173.248449,2516.700203,5773.606348,459.657299
173.248770,4367.215058,2960.823768,3370.820191
173.249090,8512.368333,3256.906145,7201.297681
173.249411,9548.656652,5995.668130,6665.030833
173.249731,4589.276840,7772.162391,1378.971896
173.250052,3478.967927,8438.347739,-2374.896044
173.250373,7031.956449,6513.812290,1455.581446
173.250693,9474.636058,4959.379811,5898.935335
173.251014,9696.697840,7105.977043,4749.792088
173.251334,5403.503377,11029.068536,612.876398
173.251655,1036.288319,11399.171507,-536.266849
173.251976,3775.050304,8290.306550,3447.429741
173.252296,7031.956449,5477.523971,6894.859482
173.252617,3330.926739,4737.318029,5822.325785
173.252937,592.164754,5625.565159,2757.943793
173.253258,592.164754,6735.874072,1455.581446
173.253579,1184.329507,6291.750507,2528.115143
173.253899,4811.338623,7105.977043,4519.963438
173.254220,7624.121203,10584.944971,2145.067394
173.254540,4071.132681,12805.562797,383.047749
173.254861,1998.556043,11769.274478,2374.896044
173.255182,6069.688724,11029.068536,3677.258390
173.255502,6439.791695,9474.636058,3140.991542
173.255823,3404.947333,8290.306550,2451.505594
173.256143,4219.173869,9696.697840,1455.581446
173.256464,4219.173869,10807.006753,842.705048
173.256785,2664.741391,9030.512492,842.705048
173.257105,4589.276840,4959.379811,842.705048
173.257426,6217.729913,4589.276840,689.485948
173.257746,3849.070898,6809.894666,1685.410096
173.258067,3256.906145,8290.306550,995.924147
173.258388,7105.977043,8956.491898,-1991.848295
173.258708,8512.368333,8956.491898,-1991.848295
173.259029,7254.018232,9548.656652,-306.438199
173.259350,8142.265362,10955.047942,459.657299
173.259670,7698.141797,11473.192101,-919.314598
173.259991,7105.977043,9918.759623,-2451.505594
173.260311,8290.306550,8142.265362,-2451.505594
173.260632,8216.285956,7772.162391,-1302.362347
173.260953,4737.318029,7846.182985,1225.752797
173.261273,4589.276840,6291.750507,919.314598
173.261594,5329.482782,3849.070898,-536.266849
173.261914,5329.482782,3849.070898,-995.924147
173.262235,5551.544565,6735.874072,229.828649
173.262556,4441.235652,8586.388927,-306.438199
173.262876,5773.606348,9252.574275,-1225.752797
173.263197,6883.915261,9104.533087,-1455.581446
173.263517,5625.565159,8956.491898,-995.924147
173.263838,4515.256246,8734.430116,-689.485948
173.264159,5181.441594,9696.697840,-2145.067394
173.264479,3108.864956,8882.471304,-3294.210641
173.264800,4589.276840,8512.368333,-2298.286494
173.265120,6883.915261,9400.615463,1378.971896
173.265441,3849.070898,10510.924376,1762.019645
173.265762,2368.659014,8586.388927,1302.362347
173.266082,3330.926739,6291.750507,229.828649
173.266403,3034.844362,4589.276840,-306.438199
173.266723,3404.947333,4441.235652,1225.752797
173.267044,5773.606348,5699.585753,0.000000
173.267365,5403.503377,7254.018232,-3447.429741
173.267685,4959.379811,9400.615463,-2374.896044
173.268006,7846.182985,11029.068536,0.000000
173.268326,8068.244768,10510.924376,-459.657299
173.268647,5995.668130,8956.491898,-1685.410096
173.268968,6217.729913,8808.450710,-2681.334243
173.269288,6883.915261,10140.821405,-1991.848295
173.269609,6217.729913,9918.759623,536.266849
173.269929,5625.565159,7328.038826,306.438199
173.270250,5551.544565,5255.462188,-2374.896044
173.270571,3775.050304,6143.709319,-919.314598
173.270891,3552.988522,7846.182985,1915.238745
173.271212,4293.194464,7402.059420,612.876398
173.271533,3701.029710,7105.977043,-1608.800546
173.271853,3923.091493,8142.265362,-2145.067394
173.272174,5255.462188,9474.636058,612.876398
173.272495,5773.606348,9844.739029,2298.286494
173.272815,3478.967927,8956.491898,1762.019645
173.273136,3478.967927,8956.491898,-766.095498
173.273457,4293.194464,8808.450710,-1685.410096
173.273777,3108.864956,8512.368333,229.828649
173.274098,3182.885551,6957.935855,689.485948
173.274419,5033.400406,6513.812290,-1302.362347
173.274739,4293.194464,6587.832884,-1608.800546
173.275060,2886.803174,6513.812290,-842.705048
173.275381,3775.050304,6365.771101,306.438199
173.275701,6217.729913,6957.935855,689.485948
173.276022,5477.523971,7550.100608,-689.485948
173.276343,5181.441594,7031.956449,-2834.553343
173.276663,7179.997637,7994.224174,-2298.286494
173.276984,7698.141797,8512.368333,-383.047749
173.277305,7031.956449,7624.121203,-306.438199
173.277625,6513.812290,7772.162391,-2298.286494
173.277946,6291.750507,9104.533087,-2451.505594
173.278266,4737.318029,7698.141797,0.000000
173.278587,6513.812290,7105.977043,-689.485948
173.278908,6587.832884,7179.997637,-1225.752797
173.279228,5625.565159,7476.080014,-306.438199
173.279549,5921.647536,7105.977043,995.924147
173.279870,5847.626942,7550.100608,306.438199
173.280190,4071.132681,7179.997637,-459.657299
173.280511,5033.400406,7031.956449,-612.876398
173.280832,6439.791695,7254.018232,-766.095498
173.281152,5107.421000,7846.182985,-306.438199
173.281473,5847.626942,9326.594869,-229.828649
173.281794,6513.812290,10362.883188,-1378.971896
173.282114,4811.338623,9400.615463,-1915.238745
173.282435,4811.338623,8438.347739,612.876398
173.282756,6883.915261,9326.594869,919.314598
173.283076,4145.153275,9104.533087,-612.876398
173.283397,2368.659014,7031.956449,-1762.019645
173.283718,4737.318029,5329.482782,-1532.190996
173.284038,5477.523971,5921.647536,-766.095498
173.284359,3256.906145,7179.997637,-842.705048
173.284680,4145.153275,8438.347739,-3524.039291
173.285000,5255.462188,9178.553681,-5132.839837
173.285321,5181.441594,9770.718434,-2528.115143
173.285642,7328.038826,11399.171507,1072.533697
173.285962,7994.224174,11473.192101,919.314598
173.286283,4441.235652,9474.636058,-306.438199
173.286604,3330.926739,7550.100608,-919.314598
173.286924,4737.318029,6809.894666,-1991.848295
173.287245,3330.926739,5847.626942,-383.047749
173.287565,4145.153275,5921.647536,-919.314598
173.287886,5477.523971,6735.874072,-2451.505594
173.288207,4589.276840,7031.956449,-2298.286494
173.288527,4219.173869,7254.018232,-306.438199
173.288848,5551.544565,7994.224174,919.314598
173.289169,4885.359217,7772.162391,306.438199
173.289489,5255.462188,8364.327145,-1149.143247
173.289810,7031.956449,9548.656652,-2757.943793
173.290131,5403.503377,9548.656652,-3600.648841
173.290451,7254.018232,8808.450710,-1302.362347
173.290772,7254.018232,8142.265362,-766.095498
173.291093,4737.318029,8216.285956,-2145.067394
173.291413,3627.009116,7846.182985,-1608.800546
173.291734,5921.647536,8068.244768,-1149.143247
173.292055,4959.379811,6513.812290,-1685.410096
173.292375,4441.235652,5403.503377,-612.876398
173.292696,3997.112087,4737.318029,-766.095498
173.293017,5699.585753,7179.997637,-2451.505594
173.293337,5699.585753,9844.739029,-2221.676944
173.293658,4071.132681,9696.697840,-2374.896044
173.293979,5551.544565,9030.512492,-2757.943793
173.294299,6069.688724,10288.862594,459.657299
173.294620,4737.318029,10140.821405,2681.334243
173.294941,3701.029710,7772.162391,1302.362347
173.295261,5255.462188,9548.656652,-1378.971896
173.295582,4515.256246,11399.171507,-1149.143247
173.295903,2072.576638,9104.533087,-306.438199
173.296223,4071.132681,5995.668130,76.609550
173.296544,6513.812290,6587.832884,1149.143247
173.296864,4441.235652,7105.977043,2221.676944
173.297185,3627.009116,7179.997637,306.438199
173.297506,4367.215058,7031.956449,-2451.505594
173.297826,5551.544565,7994.224174,-1532.190996
173.298147,7031.956449,9030.512492,1378.971896
173.298468,7772.162391,8882.471304,-536.266849
173.298788,6883.915261,8956.491898,-1991.848295
173.299109,6365.771101,10214.842000,-1685.410096
173.299430,6439.791695,10584.944971,-919.314598
173.299750,5625.565159,9326.594869,-689.485948
173.300071,5773.606348,9104.533087,919.314598
173.300392,6143.709319,8882.471304,2221.676944
173.300712,3627.009116,7105.977043,1302.362347
173.301033,2368.659014,5551.544565,1072.533697
173.301354,3849.070898,6217.729913,459.657299
173.301674,3997.112087,6143.709319,-919.314598
173.301995,2220.617826,5847.626942,-919.314598
173.302316,3775.050304,6883.915261,0.000000
173.302636,5477.523971,9252.574275,459.657299
173.302957,4737.318029,9326.594869,1838.629195
173.303278,3404.947333,8142.265362,0.000000
173.303598,4589.276840,8216.285956,-1378.971896
173.303919,4811.338623,8882.471304,0.000000
173.304240,4959.379811,8364.327145,919.314598
173.304560,5107.421000,6513.812290,-995.924147
173.304881,5477.523971,7402.059420,-1608.800546
173.305202,5033.400406,8956.491898,153.219100
173.305522,4367.215058,7105.977043,689.485948
173.305843,4219.173869,5107.421000,-919.314598
173.306163,5107.421000,5477.523971,612.876398
173.306484,3923.091493,5625.565159,1225.752797
173.306805,4441.235652,7328.038826,-689.485948
173.307125,4811.338623,7994.224174,-1915.238745
173.307446,5551.544565,9104.533087,-2681.334243
173.307767,7328.038826,9474.636058,-1608.800546
173.308087,7031.956449,10214.842000,0.000000
173.308408,4515.256246,9474.636058,229.828649
173.308729,4959.379811,7994.224174,76.609550
173.309049,5255.462188,8660.409521,-842.705048
173.309370,3923.091493,9474.636058,0.000000
173.309691,4367.215058,9400.615463,1915.238745
173.310011,7031.956449,9400.615463,1378.971896
173.310332,4663.297435,7328.038826,-306.438199
173.310653,2146.597232,6587.832884,0.000000
173.310973,4071.132681,7328.038826,-153.219100
173.311294,4663.297435,7476.080014,0.000000
173.311615,3627.009116,7772.162391,-689.485948
173.311935,6365.771101,8956.491898,-1378.971896
173.312256,6291.750507,9992.780217,-2221.676944
173.312577,3701.029710,9696.697840,-1225.752797
173.312897,5625.565159,10066.800811,0.000000
173.313218,7254.018232,11547.212695,-1608.800546
173.313539,4589.276840,11695.253884,-1915.238745
173.313859,4737.318029,10362.883188,0.000000
173.314180,6883.915261,8364.327145,1072.533697
173.314501,4441.235652,7624.121203,1378.971896
173.314821,3404.947333,7105.977043,1225.752797
173.315142,2960.823768,6809.894666,-1378.971896
173.315463,3552.988522,6587.832884,-766.095498
173.315783,3552.988522,5699.585753,2068.457845
173.316104,4663.297435,5847.626942,1838.629195
173.316424,5181.441594,8142.265362,-383.047749
173.316745,4145.153275,9770.718434,-919.314598
173.317066,4737.318029,9474.636058,-1838.629195
173.317386,7254.018232,8364.327145,-2528.115143
173.317707,7179.997637,8586.388927,-842.705048
173.318028,7179.997637,9326.594869,459.657299
173.318348,6513.812290,9548.656652,76.609550
173.318669,5181.441594,9178.553681,-919.314598
173.318990,5699.585753,8586.388927,995.924147
173.319310,7105.977043,7254.018232,1302.362347
173.319631,4737.318029,4811.338623,1072.533697
173.319952,3478.967927,4811.338623,689.485948
173.320272,3775.050304,5107.421000,995.924147
173.320593,3627.009116,5181.441594,0.000000
173.320914,4515.256246,5921.647536,0.000000
173.321234,5625.565159,8142.265362,-689.485948
173.321555,4885.359217,10955.047942,-153.219100
173.321876,5033.400406,12287.418637,842.705048
173.322196,4811.338623,10584.944971,995.924147
173.322517,4737.318029,6587.832884,919.314598
173.322838,5921.647536,7846.182985,1532.190996
173.323158,2516.700203,9400.615463,1378.971896
173.323479,1480.411884,8882.471304,229.828649
173.323800,6143.709319,9178.553681,-306.438199
173.324120,6439.791695,9030.512492,459.657299
173.324441,2294.638420,5551.544565,2374.896044
173.324762,4145.153275,5255.462188,3140.991542
173.325082,5329.482782,7698.141797,1991.848295
173.325403,2294.638420,7920.203579,689.485948
173.325723,3923.091493,6883.915261,-536.266849
173.326044,8438.347739,9178.553681,-306.438199
173.326365,6587.832884,10436.903782,2221.676944
173.326685,4663.297435,9400.615463,2757.943793
173.327006,5921.647536,8734.430116,-1302.362347
173.327327,4885.359217,10066.800811,-1608.800546
173.327647,3701.029710,9474.636058,1532.190996
173.327968,5625.565159,7179.997637,1915.238745
173.328289,6587.832884,7031.956449,689.485948
173.328609,4219.173869,9400.615463,2451.505594
173.328930,4145.153275,9178.553681,2757.943793
173.329251,3404.947333,5773.606348,995.924147
173.329571,2960.823768,4885.359217,842.705048
173.329892,4293.194464,5847.626942,1149.143247
173.330213,4515.256246,6809.894666,995.924147
173.330533,3701.029710,7550.100608,-1072.533697
173.330854,5477.523971,8882.471304,-536.266849
173.331175,6439.791695,9548.656652,-1072.533697
173.331495,5699.585753,9178.553681,-536.266849
173.331816,4589.276840,8512.368333,0.000000
173.332137,5551.544565,8290.306550,76.609550
173.332457,5847.626942,8512.368333,536.266849
173.332778,4293.194464,7624.121203,0.000000
173.333099,5551.544565,7846.182985,-1072.533697
173.333419,5255.462188,8438.347739,459.657299
173.333740,3256.906145,6883.915261,842.705048
173.334061,2368.659014,4663.297435,-306.438199
173.334381,3552.988522,5107.421000,-459.657299
173.334702,2664.741391,4885.359217,-612.876398
173.335022,3775.050304,7031.956449,-1532.190996
173.335343,5551.544565,9770.718434,-1608.800546
173.335664,4367.215058,10955.047942,-1455.581446
173.335984,5625.565159,9474.636058,-1762.019645
173.336305,6809.894666,9326.594869,-1532.190996
173.336626,5921.647536,10584.944971,-612.876398
173.336946,6513.812290,11399.171507,689.485948
173.337267,7698.141797,10955.047942,-689.485948
173.337588,4737.318029,7550.100608,-1225.752797
173.337908,5255.462188,6143.709319,229.828649
173.338229,7105.977043,7624.121203,2068.457845
173.338550,4293.194464,7994.224174,1072.533697
173.338870,2960.823768,6957.935855,306.438199
173.339191,6291.750507,7402.059420,-766.095498
173.339512,5995.668130,7105.977043,-1072.533697
173.339832,4737.318029,7772.162391,612.876398
173.340153,6587.832884,9770.718434,-459.657299
173.340474,5699.585753,10362.883188,-2451.505594
173.340794,5625.565159,11029.068536,-2298.286494
173.341115,7105.977043,11473.192101,-1072.533697
173.341436,6957.935855,9992.780217,229.828649
173.341756,5699.585753,8364.327145,2221.676944
173.342077,4959.379811,9474.636058,1455.581446
173.342398,3701.029710,10510.924376,-1072.533697
173.342718,3330.926739,9178.553681,-229.828649
173.343039,3552.988522,6291.750507,1378.971896
173.343360,4589.276840,4219.173869,1608.800546
173.343680,3849.070898,5255.462188,2604.724693
173.344001,3182.885551,7105.977043,1072.533697
173.344321,2146.597232,5847.626942,-1915.238745
173.344642,4737.318029,6957.935855,-1915.238745
173.344963,7402.059420,9178.553681,-1072.533697
173.345283,5921.647536,9918.759623,-153.219100
173.345604,5181.441594,9326.594869,0.000000
173.345925,6513.812290,9326.594869,383.047749
173.346245,5921.647536,9918.759623,-153.219100
173.346566,4589.276840,8142.265362,153.219100
173.346887,4885.359217,7550.100608,-766.095498
173.347207,4811.338623,6513.812290,-383.047749
173.347528,3478.967927,5773.606348,76.609550
173.347849,3404.947333,4145.153275,153.219100
173.348169,4293.194464,4663.297435,306.438199
173.348490,4589.276840,5995.668130,1608.800546
173.348811,3775.050304,7550.100608,1072.533697
173.349131,3256.906145,7476.080014,-1685.410096
173.349452,3701.029710,7698.141797,-2604.724693
173.349773,7031.956449,7772.162391,536.266849
173.350093,7476.080014,9770.718434,1838.629195
173.350414,6513.812290,9696.697840,-536.266849
173.350735,5255.462188,10362.883188,-2681.334243
173.351055,5625.565159,9030.512492,-3064.381992
173.351376,5403.503377,7772.162391,0.000000
173.351697,6513.812290,7772.162391,2374.896044
173.352017,5773.606348,8512.368333,2374.896044
173.352338,4441.235652,8068.244768,383.047749
173.352659,3330.926739,5699.585753,-1149.143247
173.352979,3849.070898,4959.379811,-612.876398
173.353300,5181.441594,6809.894666,995.924147
173.353620,4441.235652,8438.347739,76.609550
173.353941,5847.626942,9992.780217,-2145.067394
173.354262,5773.606348,9696.697840,-1685.410096
173.354582,5699.585753,9104.533087,0.000000
173.354903,6439.791695,9844.739029,76.609550
173.355224,5773.606348,11325.150913,0.000000
173.355544,4589.276840,11325.150913,-766.095498
173.355865,6143.709319,10584.944971,-229.828649
173.356186,6365.771101,9622.677246,1608.800546
173.356506,4145.153275,7031.956449,2681.334243
173.356827,4145.153275,5477.523971,1302.362347
173.357148,3849.070898,5403.503377,-2221.676944
173.357468,2220.617826,5255.462188,-2451.505594
173.357789,5773.606348,6365.771101,-383.047749
173.358110,7994.224174,7920.203579,919.314598
173.358430,4885.359217,8586.388927,459.657299
173.358751,4959.379811,10140.821405,306.438199
173.359072,7105.977043,12287.418637,-1455.581446
173.359392,5255.462188,10658.965565,-2068.457845
173.359713,4441.235652,6661.853478,-1225.752797
173.360034,7105.977043,5847.626942,-1302.362347
173.360354,4589.276840,6587.832884,-919.314598
173.360675,3701.029710,8216.285956,-306.438199
173.360996,4885.359217,8734.430116,-1991.848295
173.361316,4959.379811,9474.636058,-2221.676944
173.361637,3404.947333,7920.203579,2374.896044
173.361958,6143.709319,6883.915261,3907.087040
173.362278,4959.379811,5255.462188,1762.019645
173.362599,2220.617826,4959.379811,-842.705048
173.362919,2664.741391,5551.544565,-1838.629195
173.363240,4293.194464,6661.853478,-1838.629195
173.363561,5181.441594,8364.327145,-383.047749
173.363881,6809.894666,9844.739029,-689.485948
173.364202,5995.668130,9918.759623,-2298.286494
173.364523,4441.235652,9474.636058,-1991.848295
173.364843,4959.379811,9104.533087,-153.219100
173.365164,5255.462188,8216.285956,689.485948
173.365485,5033.400406,7328.038826,306.438199
173.365805,5477.523971,8068.244768,0.000000
173.366126,4737.318029,8216.285956,-766.095498
173.366447,4145.153275,7254.018232,-459.657299
173.366767,5255.462188,6217.729913,0.000000
173.367088,5995.668130,5625.565159,0.000000
173.367409,4959.379811,6291.750507,229.828649
173.367729,5403.503377,7105.977043,306.438199
173.368050,5181.441594,9030.512492,-1225.752797
173.368371,4885.359217,9696.697840,-1072.533697
173.368691,6143.709319,10658.965565,-536.266849
173.369012,7105.977043,9992.780217,-1838.629195
173.369333,6291.750507,8512.368333,-2145.067394
173.369653,5995.668130,8142.265362,-1149.143247
173.369974,5773.606348,8142.265362,-306.438199
173.370295,4737.318029,9178.553681,-919.314598
173.370615,4441.235652,10658.965565,-383.047749
173.370936,5181.441594,10140.821405,0.000000
173.371257,5329.482782,8364.327145,919.314598
173.371577,5107.421000,6661.853478,2528.115143
173.371898,3701.029710,4515.256246,1838.629195
173.372218,2812.782580,4071.132681,-536.266849
173.372539,3923.091493,5255.462188,-1532.190996
173.372860,4811.338623,7920.203579,-1762.019645
173.373180,5995.668130,9400.615463,-2298.286494
173.373501,7105.977043,10881.027347,-1991.848295
173.373822,5699.585753,10732.986159,-1608.800546
173.374142,4959.379811,10362.883188,-995.924147
173.374463,5847.626942,10362.883188,-459.657299
173.374784,4219.173869,9252.574275,-2068.457845
173.375104,3256.906145,7550.100608,-1455.581446
173.375425,4737.318029,8216.285956,0.000000
173.375746,4367.215058,8142.265362,0.000000
173.376066,2516.700203,5773.606348,-995.924147
173.376387,3923.091493,5329.482782,-1149.143247
173.376708,4737.318029,6661.853478,-612.876398
173.377028,3256.906145,7624.121203,919.314598
173.377349,4737.318029,7920.203579,1302.362347
173.377670,7105.977043,8512.368333,-536.266849
173.377990,6143.709319,9844.739029,-919.314598
173.378311,5329.482782,9400.615463,153.219100
173.378632,5699.585753,8956.491898,-766.095498
173.378952,5625.565159,8290.306550,-1072.533697
173.379273,6291.750507,9104.533087,0.000000
173.379594,5551.544565,8290.306550,153.219100
173.379914,4589.276840,7994.224174,-306.438199
173.380235,4663.297435,8364.327145,306.438199
173.380556,3997.112087,7105.977043,0.000000
173.380877,4219.173869,5477.523971,842.705048
173.381197,5921.647536,6735.874072,1762.019645
173.381518,5477.523971,7624.121203,1072.533697
173.381839,5107.421000,8438.347739,-1225.752797
173.382159,5477.523971,9548.656652,-1225.752797
173.382480,5921.647536,10732.986159,612.876398
173.382801,6735.874072,9918.759623,2068.457845
173.383121,6587.832884,7476.080014,459.657299
173.383442,3849.070898,5625.565159,-2451.505594
173.383763,2960.823768,6291.750507,-1608.800546
173.384083,4663.297435,8142.265362,229.828649
173.384404,5773.606348,9770.718434,-536.266849
173.384725,5921.647536,9474.636058,-1149.143247
173.385045,6143.709319,9030.512492,76.609550
173.385366,4663.297435,7624.121203,1762.019645
173.385687,3775.050304,5625.565159,3064.381992
173.386007,3997.112087,4885.359217,2374.896044
173.386328,3923.091493,5181.441594,459.657299
173.386649,4441.235652,6661.853478,-1532.190996
173.386969,5033.400406,8956.491898,-1149.143247
173.387290,4737.318029,9474.636058,-306.438199
173.387611,5551.544565,9474.636058,-383.047749
173.387931,6217.729913,8956.491898,-459.657299
173.388252,3701.029710,7105.977043,-1378.971896
173.388573,3256.906145,6069.688724,-229.828649
173.388893,4589.276840,6809.894666,229.828649
173.389214,4145.153275,7772.162391,383.047749
173.389535,4441.235652,9104.533087,-689.485948
173.389855,5477.523971,10066.800811,-2528.115143
173.390176,5033.400406,8438.347739,-2681.334243
173.390497,4071.132681,5477.523971,153.219100
173.390817,5403.503377,5477.523971,1685.410096
173.391138,5551.544565,7550.100608,-612.876398
173.391459,3256.906145,8586.388927,-1838.629195
173.391779,5847.626942,9252.574275,-2068.457845
173.392100,7994.224174,9696.697840,-383.047749
173.392421,7105.977043,9918.759623,1378.971896
173.392741,4959.379811,7624.121203,689.485948
173.393062,5033.400406,6513.812290,-2068.457845
173.393383,4145.153275,7328.038826,-1302.362347
173.393703,5107.421000,8882.471304,76.609550
173.394024,5033.400406,7698.141797,-1302.362347
173.394345,4959.379811,7254.018232,-1762.019645
173.394665,4515.256246,8882.471304,995.924147
173.394986,5551.544565,11103.089130,1838.629195
173.395307,4145.153275,9548.656652,-612.876398
173.395627,3701.029710,7772.162391,-2068.457845
173.395948,6217.729913,8956.491898,-842.705048
173.396269,6809.894666,11029.068536,2145.067394
173.396589,4589.276840,10214.842000,1915.238745
173.396910,5329.482782,8882.471304,0.000000
173.397231,5995.668130,8734.430116,-1225.752797
173.397551,4145.153275,8142.265362,1225.752797
173.397872,4071.132681,6661.853478,459.657299
173.398193,5477.523971,5699.585753,-2298.286494
173.398513,6143.709319,6883.915261,-1378.971896
173.398834,5625.565159,8364.327145,1455.581446
173.399155,7105.977043,9178.553681,1685.410096
173.399475,5847.626942,9030.512492,919.314598
173.399796,4885.359217,9474.636058,76.609550
173.400117,6217.729913,9326.594869,229.828649
173.400437,6217.729913,8512.368333,919.314598
173.400758,5403.503377,7031.956449,766.095498
173.401079,5625.565159,6143.709319,0.000000
173.401399,5255.462188,8882.471304,0.000000
173.401720,2516.700203,9844.739029,1838.629195
173.402041,3256.906145,10214.842000,2987.772442
173.402361,5255.462188,9474.636058,2604.724693
173.402682,3034.844362,7031.956449,1762.019645
173.403003,1406.391290,3775.050304,2145.067394
173.403323,3108.864956,4367.215058,2221.676944
173.403644,4367.215058,5921.647536,1685.410096
173.403965,3182.885551,6735.874072,-1762.019645
173.404285,5181.441594,7994.224174,-4443.353888
173.404606,7031.956449,10658.965565,-1225.752797
173.404927,7031.956449,11843.295072,3907.087040
173.405247,6143.709319,9844.739029,3907.087040
173.405568,5181.441594,6587.832884,-995.924147
173.405889,3404.947333,5033.400406,-1991.848295
173.406209,3701.029710,5255.462188,766.095498
173.406530,5699.585753,5847.626942,1762.019645
173.406851,5033.400406,6513.812290,0.000000
173.407171,3256.906145,7031.956449,-995.924147
173.407492,4071.132681,6143.709319,-689.485948
173.407813,4441.235652,4589.276840,1455.581446
173.408133,4589.276840,4737.318029,2145.067394
173.408454,4589.276840,6439.791695,0.000000
173.408775,3775.050304,7476.080014,-3217.601092
173.409095,3849.070898,9178.553681,-3140.991542
173.409416,6217.729913,10584.944971,-1225.752797
173.409737,7328.038826,11251.130318,306.438199
173.410057,6365.771101,10658.965565,-153.219100
173.410378,4145.153275,8142.265362,-2221.676944
173.410699,2368.659014,5255.462188,-2604.724693
173.411019,3478.967927,4663.297435,-995.924147
173.411340,5107.421000,6735.874072,0.000000
173.411661,4663.297435,8438.347739,-919.314598
173.411981,5773.606348,9918.759623,-2451.505594
173.412302,6217.729913,10214.842000,-2298.286494
173.412623,5921.647536,8956.491898,-1072.533697
173.412943,5033.400406,7920.203579,306.438199
173.413264,6069.688724,8882.471304,-459.657299
173.413585,6143.709319,10066.800811,-919.314598
173.413905,6439.791695,10955.047942,-1685.410096
173.414226,6735.874072,10955.047942,-1608.800546
173.414547,7772.162391,11843.295072,-995.924147
173.414867,5921.647536,12509.480420,536.266849
173.415188,5107.421000,11695.253884,612.876398
173.415509,4737.318029,9178.553681,0.000000
173.415829,4663.297435,7254.018232,459.657299
173.416150,4367.215058,6439.791695,2374.896044
173.416471,3923.091493,7328.038826,2298.286494
173.416791,2664.741391,9326.594869,842.705048
173.417112,4885.359217,11843.295072,-766.095498
173.417433,6365.771101,11473.192101,-689.485948
173.417753,6661.853478,9696.697840,1915.238745
173.418074,6439.791695,9992.780217,3447.429741
173.418395,5181.441594,10584.944971,2911.162892
173.418715,4293.194464,9474.636058,306.438199
173.419036,4737.318029,7031.956449,-1378.971896
173.419357,6439.791695,7105.977043,-919.314598
173.419677,6217.729913,8438.347739,1378.971896
173.419998,5699.585753,7920.203579,2145.067394
173.420319,5625.565159,7105.977043,842.705048
173.420639,4589.276840,7254.018232,689.485948
173.420960,4515.256246,6957.935855,2221.676944
173.421281,4663.297435,5921.647536,2757.943793
173.421601,3256.906145,3923.091493,2451.505594
173.421922,3775.050304,4441.235652,2298.286494
173.422243,5551.544565,6513.812290,1991.848295
173.422563,4071.132681,7402.059420,153.219100
173.422884,2294.638420,5995.668130,-842.705048
173.423205,2812.782580,4663.297435,-383.047749
173.423525,5107.421000,5033.400406,1149.143247
173.423846,3849.070898,6143.709319,1838.629195
173.424167,3256.906145,7031.956449,-459.657299
173.424487,3478.967927,6513.812290,-2528.115143
173.424808,3552.988522,6513.812290,-1762.019645
173.425129,3923.091493,6143.709319,842.705048
173.425449,5847.626942,7105.977043,1149.143247
173.425770,4885.359217,6735.874072,0.000000
173.426091,2072.576638,4885.359217,-1455.581446
173.426411,1850.514855,2442.679609,-1915.238745
173.426732,3627.009116,3701.029710,-536.266849
173.427053,6069.688724,7550.100608,0.000000
173.427373,3627.009116,9400.615463,-1991.848295
173.427694,4589.276840,9474.636058,-5132.839837
173.428015,6069.688724,10658.965565,-3983.696590
173.428335,6143.709319,10436.903782,459.657299
173.428656,4959.379811,7254.018232,2068.457845
