#time,accel_x,accel_y,accel_z
111.257307,5033.400406,8438.347739,0.000000
111.257627,5181.441594,7920.203579,0.000000
111.257948,5107.421000,8216.285956,-383.047749
111.258268,5033.400406,8216.285956,-229.828649
111.258589,5255.462188,8438.347739,0.000000
111.258910,5033.400406,8142.265362,0.000000
111.259230,5107.421000,8068.244768,-153.219100
111.259551,5255.462188,7994.224174,0.000000
111.259871,4959.379811,8364.327145,-229.828649
111.260192,4885.359217,8290.306550,-383.047749
111.260513,5033.400406,8290.306550,0.000000
111.260833,4885.359217,8290.306550,-306.438199
111.261154,5033.400406,8068.244768,-306.438199
111.261474,5181.441594,7994.224174,-153.219100
111.261795,5033.400406,8512.368333,-536.266849
111.262115,5033.400406,8216.285956,0.000000
111.262436,5107.421000,8142.265362,229.828649
111.262757,4959.379811,8216.285956,0.000000
111.263077,5403.503377,8364.327145,-383.047749
111.263398,5255.462188,7772.162391,-459.657299
111.263718,4811.338623,7698.141797,0.000000
111.264039,5033.400406,7994.224174,0.000000
111.264359,4885.359217,7846.182985,-306.438199
111.264680,4959.379811,7920.203579,-229.828649
111.265001,5033.400406,7846.182985,0.000000
111.265321,4959.379811,8142.265362,0.000000
111.265642,4885.359217,8142.265362,0.000000
111.265962,4885.359217,7994.224174,0.000000
111.266283,4885.359217,8142.265362,0.000000
111.266603,4811.338623,7920.203579,-612.876398
111.266924,5107.421000,7772.162391,-383.047749
111.267245,4959.379811,7920.203579,-229.828649
111.267565,4811.338623,7920.203579,-153.219100
111.267886,5033.400406,8068.244768,0.000000
111.268206,4885.359217,7994.224174,-229.828649
111.268527,4885.359217,7994.224174,-459.657299
111.268848,4885.359217,8142.265362,0.000000
111.269168,5033.400406,7772.162391,-76.609550
111.269489,4737.318029,7994.224174,-153.219100
111.269809,5033.400406,7920.203579,-229.828649
111.270130,4811.338623,8216.285956,-153.219100
111.270450,4663.297435,7920.203579,-153.219100
111.270771,4737.318029,7624.121203,-229.828649
111.271092,4663.297435,7920.203579,-459.657299
111.271412,4367.215058,8290.306550,-306.438199
111.271733,4589.276840,9252.574275,-612.876398
111.272053,4737.318029,9844.739029,-1149.143247
111.272374,4737.318029,10140.821405,-1149.143247
111.272694,4515.256246,9178.553681,-612.876398
111.273015,3923.091493,8586.388927,0.000000
111.273336,3404.947333,8956.491898,536.266849
111.273656,3034.844362,9400.615463,1149.143247
111.273977,2368.659014,9252.574275,383.047749
111.274297,2738.761985,8882.471304,-689.485948
111.274618,3034.844362,8216.285956,-612.876398
111.274938,3552.988522,9104.533087,-306.438199
111.275259,3478.967927,9770.718434,229.828649
111.275580,3034.844362,9696.697840,0.000000
111.275900,2516.700203,9030.512492,0.000000
111.276221,2368.659014,9400.615463,0.000000
111.276541,2072.576638,10362.883188,-76.609550
111.276862,1998.556043,11251.130318,-1378.971896
111.277183,1036.288319,11917.315666,-1685.410096
111.277503,1258.350101,11547.212695,-1378.971896
111.277824,444.123565,11325.150913,-1149.143247
111.278144,0.000000,11547.212695,-1072.533697
111.278465,-1184.329507,12139.377449,-229.828649
111.278785,-1702.473667,13027.624579,459.657299
111.279106,-2072.576638,12435.459826,919.314598
111.279427,-1406.391290,11843.295072,1532.190996
111.279747,-1258.350101,11547.212695,1915.238745
111.280068,-1998.556043,11843.295072,1532.190996
111.280388,-2442.679609,11843.295072,536.266849
111.280709,-2368.659014,10807.006753,-842.705048
111.281029,-1554.432478,10140.821405,-612.876398
111.281350,-814.226536,9918.759623,689.485948
111.281671,-222.061783,10658.965565,1378.971896
111.281991,148.041188,11325.150913,153.219100
111.282312,222.061783,11769.274478,-995.924147
111.282632,1480.411884,10732.986159,-1072.533697
111.282953,2072.576638,10214.842000,-689.485948
111.283273,2590.720797,9918.759623,383.047749
111.283594,2664.741391,10140.821405,-536.266849
111.283915,2146.597232,9844.739029,-1915.238745
111.284235,1924.535449,9474.636058,-2528.115143
111.284556,1998.556043,9400.615463,-1838.629195
111.284876,1924.535449,9992.780217,-689.485948
111.285197,1924.535449,10288.862594,76.609550
111.285518,1480.411884,10955.047942,0.000000
111.285838,814.226536,10807.006753,-306.438199
111.286159,148.041188,10881.027347,919.314598
111.286479,0.000000,10362.883188,153.219100
111.286800,0.000000,9770.718434,612.876398
111.287120,222.061783,9696.697840,766.095498
111.287441,0.000000,10362.883188,1225.752797
111.287762,-814.226536,10881.027347,1072.533697
111.288082,-222.061783,11177.109724,1302.362347
111.288403,1036.288319,11103.089130,1685.410096
111.288723,1554.432478,10955.047942,919.314598
111.289044,1110.308913,10436.903782,-459.657299
111.289364,1702.473667,9918.759623,-919.314598
111.289685,1924.535449,10066.800811,-1455.581446
111.290006,1850.514855,9770.718434,-536.266849
111.290326,2072.576638,9104.533087,229.828649
111.290647,2516.700203,8586.388927,229.828649
111.290967,2590.720797,9474.636058,0.000000
111.291288,2590.720797,10214.842000,0.000000
111.291608,2294.638420,10807.006753,-689.485948
111.291929,3182.885551,10288.862594,-1149.143247
111.292250,3330.926739,10066.800811,-919.314598
111.292570,3478.967927,9844.739029,-995.924147
111.292891,3182.885551,10288.862594,-1302.362347
111.293211,2146.597232,11103.089130,-1072.533697
111.293532,666.185348,11547.212695,-383.047749
111.293853,740.205942,10955.047942,0.000000
111.294173,740.205942,10807.006753,-689.485948
111.294494,-370.102971,10881.027347,-1225.752797
111.294814,-1406.391290,10288.862594,-1378.971896
111.295135,-1998.556043,10066.800811,-995.924147
111.295455,-1924.535449,9992.780217,766.095498
111.295776,-740.205942,11103.089130,2221.676944
111.296097,-444.123565,12287.418637,3140.991542
111.296417,-444.123565,13915.871710,2068.457845
111.296738,-370.102971,13693.809927,689.485948
111.297058,296.082377,12287.418637,-306.438199
111.297379,814.226536,10807.006753,-842.705048
111.297699,1184.329507,9770.718434,-612.876398
111.298020,1258.350101,9918.759623,-766.095498
111.298341,814.226536,9992.780217,-1455.581446
111.298661,-370.102971,9622.677246,-1991.848295
111.298982,0.000000,9918.759623,-1608.800546
111.299302,962.267725,10288.862594,0.000000
111.299623,1776.494261,10807.006753,689.485948
111.299943,2886.803174,11325.150913,1072.533697
111.300264,2812.782580,10732.986159,0.000000
111.300585,2072.576638,9770.718434,-1378.971896
111.300905,2886.803174,8956.491898,-919.314598
111.301226,3997.112087,8808.450710,-229.828649
111.301546,4219.173869,7772.162391,-459.657299
111.301867,4959.379811,6957.935855,-995.924147
111.302187,5033.400406,7179.997637,-1225.752797
111.302508,3997.112087,8660.409521,-229.828649
111.302829,3701.029710,8512.368333,1072.533697
111.303149,3627.009116,7846.182985,306.438199
111.303470,4367.215058,6439.791695,-536.266849
111.303790,4293.194464,6809.894666,-306.438199
111.304111,4145.153275,8734.430116,-153.219100
111.304432,3775.050304,10881.027347,-306.438199
111.304752,3701.029710,11769.274478,-1608.800546
111.305073,4145.153275,10140.821405,-1685.410096
111.305393,4293.194464,9252.574275,-842.705048
111.305714,4811.338623,10066.800811,383.047749
111.306034,3627.009116,10881.027347,1685.410096
111.306355,2886.803174,10288.862594,2145.067394
111.306676,2812.782580,8068.244768,2221.676944
111.306996,3478.967927,6069.688724,2298.286494
111.307317,4071.132681,5181.441594,2374.896044
111.307637,3108.864956,4885.359217,1302.362347
111.307958,3034.844362,4737.318029,-536.266849
111.308278,4737.318029,5847.626942,-1378.971896
111.308599,6587.832884,7402.059420,-1378.971896
111.308920,8290.306550,9474.636058,-459.657299
111.309240,8882.471304,12065.356855,-306.438199
111.309561,7698.141797,11917.315666,-1302.362347
111.309881,7105.977043,10362.883188,-1915.238745
111.310202,6809.894666,7698.141797,-1838.629195
111.310522,6587.832884,6217.729913,-1302.362347
111.310843,5847.626942,6143.709319,-689.485948
111.311164,4293.194464,6661.853478,-1378.971896
111.311484,3256.906145,7402.059420,-2911.162892
111.311805,3108.864956,7402.059420,-1455.581446
111.312125,4293.194464,7254.018232,1149.143247
111.312446,4145.153275,8290.306550,2681.334243
111.312767,3256.906145,10066.800811,1532.190996
111.313087,3256.906145,10510.924376,-306.438199
111.313408,3182.885551,9252.574275,-1302.362347
111.313728,3108.864956,7624.121203,229.828649
111.314049,3034.844362,8216.285956,919.314598
111.314369,2960.823768,10732.986159,383.047749
111.314690,3034.844362,11843.295072,-1149.143247
111.315011,3627.009116,11695.253884,-1149.143247
111.315331,3923.091493,9622.677246,-229.828649
111.315652,4589.276840,7105.977043,306.438199
111.315972,5255.462188,6069.688724,919.314598
111.316293,5033.400406,5847.626942,1149.143247
111.316613,4885.359217,6587.832884,842.705048
111.316934,5329.482782,7328.038826,153.219100
111.317255,6957.935855,7550.100608,-612.876398
111.317575,7846.182985,8290.306550,-536.266849
111.317896,7698.141797,8734.430116,-766.095498
111.318216,7328.038826,8216.285956,-1685.410096
111.318537,7105.977043,8142.265362,-3064.381992
111.318857,6957.935855,8068.244768,-2604.724693
111.319178,5847.626942,7476.080014,-1225.752797
111.319499,5033.400406,6883.915261,689.485948
111.319819,5773.606348,7920.203579,689.485948
111.320140,4515.256246,8882.471304,0.000000
111.320460,4293.194464,8586.388927,-612.876398
111.320781,5329.482782,7994.224174,689.485948
111.321102,4145.153275,8216.285956,536.266849
111.321422,2960.823768,7328.038826,-383.047749
111.321743,4071.132681,6883.915261,-919.314598
111.322064,4663.297435,6809.894666,0.000000
111.322384,3552.988522,7698.141797,1915.238745
111.322705,4293.194464,8956.491898,2757.943793
111.323025,4145.153275,9992.780217,2068.457845
111.323346,3923.091493,10214.842000,842.705048
111.323667,4441.235652,9030.512492,536.266849
111.323987,4737.318029,7179.997637,-536.266849
111.324308,5107.421000,6365.771101,-689.485948
111.324628,5477.523971,6661.853478,-536.266849
111.324949,4811.338623,5699.585753,-995.924147
111.325270,5107.421000,7105.977043,-383.047749
111.325590,5699.585753,8882.471304,612.876398
111.325911,5255.462188,9770.718434,995.924147
111.326231,5625.565159,10140.821405,383.047749
111.326552,5329.482782,10140.821405,-689.485948
111.326873,4515.256246,9844.739029,-1685.410096
111.327193,4367.215058,8290.306550,-1608.800546
111.327514,4515.256246,6217.729913,-2374.896044
111.327834,3404.947333,5181.441594,-1378.971896
111.328155,3108.864956,5477.523971,689.485948
111.328476,3701.029710,7476.080014,1532.190996
111.328796,4737.318029,9548.656652,995.924147
111.329117,5551.544565,10955.047942,766.095498
111.329438,5921.647536,10955.047942,0.000000
111.329758,4811.338623,9178.553681,-612.876398
111.330079,4515.256246,7328.038826,-995.924147
111.330399,4811.338623,6291.750507,-459.657299
111.330720,4441.235652,6069.688724,-689.485948
111.331041,4515.256246,7031.956449,-306.438199
111.331361,4589.276840,8808.450710,-766.095498
111.331682,4515.256246,10510.924376,-689.485948
111.332002,5403.503377,10955.047942,536.266849
111.332323,6069.688724,10066.800811,1378.971896
111.332644,5847.626942,8586.388927,306.438199
111.332964,5773.606348,6143.709319,-689.485948
111.333285,5329.482782,5033.400406,-1149.143247
111.333605,4885.359217,5033.400406,-1302.362347
111.333926,5033.400406,6883.915261,0.000000
111.334247,6069.688724,8512.368333,536.266849
111.334567,6735.874072,10140.821405,-383.047749
111.334888,6661.853478,10732.986159,-536.266849
111.335208,6143.709319,10066.800811,0.000000
111.335529,5477.523971,9030.512492,-919.314598
111.335850,5255.462188,7328.038826,-1532.190996
111.336170,5181.441594,5773.606348,-1378.971896
111.336491,5625.565159,4811.338623,-229.828649
111.336812,4885.359217,5921.647536,1072.533697
111.337132,4663.297435,9104.533087,1455.581446
111.337453,5107.421000,10362.883188,919.314598
111.337773,5995.668130,10732.986159,-76.609550
111.338094,5551.544565,10140.821405,76.609550
111.338415,5477.523971,8142.265362,-229.828649
111.338735,5699.585753,5847.626942,0.000000
111.339056,4663.297435,4811.338623,229.828649
111.339376,3701.029710,5107.421000,536.266849
111.339697,3701.029710,6143.709319,612.876398
111.340018,4663.297435,8808.450710,0.000000
111.340338,5403.503377,10658.965565,-306.438199
111.340659,5625.565159,11177.109724,383.047749
111.340979,5699.585753,9844.739029,306.438199
111.341300,5403.503377,7402.059420,-766.095498
111.341621,5181.441594,5403.503377,-1378.971896
111.341941,5551.544565,4737.318029,-1149.143247
111.342262,4737.318029,5995.668130,-306.438199
111.342582,4959.379811,7179.997637,0.000000
111.342903,6365.771101,8956.491898,0.000000
111.343224,6365.771101,9622.677246,383.047749
111.343544,6291.750507,9474.636058,842.705048
111.343865,5995.668130,8068.244768,919.314598
111.344185,5551.544565,6809.894666,-689.485948
111.344506,4737.318029,5255.462188,-1915.238745
111.344827,5403.503377,4145.153275,-1225.752797
111.345147,5107.421000,4441.235652,0.000000
111.345468,5033.400406,6735.874072,1378.971896
111.345789,5773.606348,8512.368333,1072.533697
111.346109,6439.791695,10362.883188,0.000000
111.346430,6587.832884,11325.150913,76.609550
111.346750,6143.709319,10510.924376,-153.219100
111.347071,5921.647536,7550.100608,-1149.143247
111.347392,6365.771101,5625.565159,-1455.581446
111.347712,4885.359217,4663.297435,-689.485948
111.348033,3997.112087,4885.359217,0.000000
111.348353,4071.132681,6883.915261,0.000000
111.348674,4589.276840,10140.821405,76.609550
111.348995,5181.441594,11695.253884,1149.143247
111.349315,5847.626942,11251.130318,2068.457845
111.349636,5477.523971,10214.842000,689.485948
111.349956,4589.276840,8586.388927,-995.924147
111.350277,3997.112087,6439.791695,-1149.143247
111.350598,4885.359217,5329.482782,-1225.752797
111.350918,3627.009116,5477.523971,-229.828649
111.351239,4441.235652,7476.080014,229.828649
111.351559,5477.523971,9992.780217,153.219100
111.351880,5329.482782,11621.233289,0.000000
111.352201,4737.318029,11843.295072,306.438199
111.352521,4885.359217,9474.636058,0.000000
111.352842,5477.523971,7105.977043,-1149.143247
111.353163,4737.318029,5699.585753,-995.924147
111.353483,4071.132681,4737.318029,-1149.143247
111.353804,4737.318029,5551.544565,-1378.971896
111.354124,4959.379811,7179.997637,-842.705048
111.354445,5329.482782,9474.636058,0.000000
111.354766,6365.771101,11621.233289,459.657299
111.355086,6661.853478,12583.501014,689.485948
111.355407,5107.421000,10955.047942,-383.047749
111.355727,5403.503377,8068.244768,-689.485948
111.356048,4811.338623,4811.338623,-919.314598
111.356369,3849.070898,3923.091493,-689.485948
111.356689,3701.029710,4219.173869,-229.828649
111.357010,3701.029710,7031.956449,-229.828649
111.357330,4071.132681,9474.636058,-459.657299
111.357651,5773.606348,11399.171507,995.924147
111.357972,6661.853478,12287.418637,1455.581446
111.358292,4811.338623,10658.965565,612.876398
111.358613,4885.359217,7402.059420,-536.266849
111.358933,5329.482782,4367.215058,-612.876398
111.359254,4737.318029,2220.617826,76.609550
111.359575,3997.112087,3404.947333,306.438199
111.359895,4441.235652,7402.059420,-1072.533697
111.360216,6143.709319,10881.027347,-1302.362347
111.360536,7105.977043,12953.603985,153.219100
111.360857,7772.162391,11029.068536,766.095498
111.361178,7105.977043,7624.121203,-153.219100
111.361498,6513.812290,5995.668130,-1225.752797
111.361819,5477.523971,4663.297435,-612.876398
111.362140,4885.359217,3775.050304,-459.657299
111.362460,5625.565159,4441.235652,-612.876398
111.362781,6291.750507,6439.791695,-306.438199
111.363101,6957.935855,9622.677246,-459.657299
111.363422,6291.750507,12213.398043,383.047749
111.363743,5625.565159,12657.521608,0.000000
111.364063,5699.585753,9178.553681,-459.657299
111.364384,6217.729913,5625.565159,-612.876398
111.364704,5625.565159,2812.782580,459.657299
111.365025,3701.029710,3108.864956,919.314598
111.365346,2812.782580,5403.503377,0.000000
111.365666,3627.009116,8586.388927,-1149.143247
111.365987,5995.668130,11325.150913,0.000000
111.366307,6809.894666,12361.439231,612.876398
111.366628,6143.709319,12287.418637,995.924147
111.366949,4441.235652,10436.903782,-153.219100
111.367269,3478.967927,7476.080014,-1302.362347
111.367590,3923.091493,4959.379811,-383.047749
111.367910,3923.091493,4219.173869,229.828649
111.368231,3478.967927,5181.441594,689.485948
111.368552,3923.091493,8438.347739,0.000000
111.368872,4811.338623,11695.253884,-153.219100
111.369193,4959.379811,12287.418637,153.219100
111.369514,5773.606348,11029.068536,536.266849
111.369834,5551.544565,8882.471304,-153.219100
111.370155,5033.400406,6217.729913,-1149.143247
111.370475,4441.235652,4145.153275,-536.266849
111.370796,3849.070898,4367.215058,-536.266849
111.371117,4145.153275,6587.832884,-1225.752797
111.371437,4885.359217,9474.636058,-1072.533697
111.371758,6513.812290,11843.295072,0.000000
111.372078,7105.977043,13397.727550,842.705048
111.372399,5255.462188,11473.192101,153.219100
111.372720,4071.132681,8438.347739,-1838.629195
111.373040,3923.091493,5403.503377,-1685.410096
111.373361,4367.215058,3701.029710,76.609550
111.373681,3701.029710,4293.194464,1225.752797
111.374002,3404.947333,6143.709319,0.000000
111.374323,4219.173869,9400.615463,-766.095498
111.374643,5033.400406,11843.295072,-306.438199
111.374964,5329.482782,11991.336260,1072.533697
111.375284,5847.626942,10658.965565,689.485948
111.375605,5921.647536,8290.306550,-766.095498
111.375926,5181.441594,6143.709319,-1225.752797
111.376246,4959.379811,3997.112087,-689.485948
111.376567,3552.988522,4219.173869,153.219100
111.376888,3923.091493,6143.709319,-536.266849
111.377208,5329.482782,9400.615463,-229.828649
111.377529,6661.853478,11917.315666,76.609550
111.377849,6069.688724,12879.583391,-229.828649
111.378170,5255.462188,11029.068536,-459.657299
111.378491,5181.441594,8216.285956,-842.705048
111.378811,5033.400406,5403.503377,-383.047749
111.379132,4737.318029,4515.256246,76.609550
111.379452,3997.112087,4663.297435,-153.219100
111.379773,3256.906145,6587.832884,-383.047749
111.380094,4589.276840,9474.636058,-612.876398
111.380414,6143.709319,11769.274478,306.438199
111.380735,5551.544565,12139.377449,383.047749
111.381055,4885.359217,9918.759623,-383.047749
111.381376,5477.523971,7994.224174,-612.876398
111.381697,4663.297435,6143.709319,-153.219100
111.382017,3478.967927,4737.318029,0.000000
111.382338,3627.009116,5181.441594,-229.828649
111.382658,3775.050304,7105.977043,-919.314598
111.382979,5033.400406,10140.821405,-153.219100
111.383300,5773.606348,12065.356855,612.876398
111.383620,5625.565159,12731.542202,459.657299
111.383941,4959.379811,11029.068536,-306.438199
111.384261,4515.256246,8216.285956,-1072.533697
111.384582,4441.235652,5255.462188,-689.485948
111.384903,4145.153275,3775.050304,153.219100
111.385223,3478.967927,4663.297435,153.219100
111.385544,3404.947333,7105.977043,-919.314598
111.385865,3997.112087,9400.615463,-1072.533697
111.386185,5329.482782,11473.192101,459.657299
111.386506,6365.771101,11695.253884,1378.971896
111.386826,6735.874072,9770.718434,536.266849
111.387147,6217.729913,7254.018232,-919.314598
111.387468,5033.400406,5329.482782,-689.485948
111.387788,4515.256246,4737.318029,-612.876398
111.388109,4589.276840,4885.359217,-306.438199
111.388429,4367.215058,6439.791695,-689.485948
111.388750,6143.709319,8808.450710,-842.705048
111.389071,6291.750507,11473.192101,-306.438199
111.389391,5403.503377,11769.274478,689.485948
111.389712,5255.462188,9770.718434,229.828649
111.390032,5329.482782,8216.285956,-153.219100
111.390353,5181.441594,5995.668130,-612.876398
111.390674,4959.379811,4959.379811,153.219100
111.390994,3404.947333,4885.359217,-766.095498
111.391315,2812.782580,7105.977043,-1149.143247
111.391635,4811.338623,10066.800811,0.000000
111.391956,5181.441594,12435.459826,1072.533697
111.392277,4959.379811,11991.336260,459.657299
111.392597,3923.091493,9400.615463,-536.266849
111.392918,4515.256246,8142.265362,-1302.362347
111.393239,3997.112087,6735.874072,0.000000
111.393559,3627.009116,6143.709319,0.000000
111.393880,4515.256246,5551.544565,-1149.143247
111.394200,4071.132681,7402.059420,-995.924147
111.394521,4663.297435,10584.944971,0.000000
111.394842,4959.379811,12657.521608,842.705048
111.395162,5033.400406,12287.418637,536.266849
111.395483,5107.421000,10881.027347,-612.876398
111.395803,5403.503377,8290.306550,-1072.533697
111.396124,4663.297435,5625.565159,-919.314598
111.396445,3108.864956,5033.400406,-612.876398
111.396765,2664.741391,5773.606348,306.438199
111.397086,3256.906145,7772.162391,-536.266849
111.397406,4441.235652,9844.739029,-306.438199
111.397727,5625.565159,11843.295072,1072.533697
111.398048,5403.503377,12361.439231,995.924147
111.398368,4515.256246,10955.047942,0.000000
111.398689,3997.112087,8364.327145,-1149.143247
111.399009,4737.318029,5551.544565,-919.314598
111.399330,3997.112087,4515.256246,-383.047749
111.399651,3256.906145,4811.338623,-229.828649
111.399971,3108.864956,7624.121203,-153.219100
111.400292,4145.153275,11103.089130,153.219100
111.400612,5329.482782,12435.459826,766.095498
111.400933,6217.729913,11399.171507,766.095498
111.401254,6143.709319,9696.697840,-689.485948
111.401574,5403.503377,7179.997637,-766.095498
111.401895,4737.318029,4663.297435,0.000000
111.402216,4663.297435,3256.906145,0.000000
111.402536,3997.112087,3923.091493,153.219100
111.402857,5181.441594,6661.853478,0.000000
111.403177,7105.977043,10066.800811,0.000000
111.403498,6439.791695,11547.212695,383.047749
111.403819,6513.812290,10584.944971,229.828649
111.404139,6809.894666,8290.306550,-1225.752797
111.404460,6957.935855,5625.565159,-1302.362347
111.404780,6587.832884,4737.318029,0.000000
111.405101,6587.832884,3923.091493,0.000000
111.405422,5477.523971,4441.235652,-1455.581446
111.405742,4811.338623,6957.935855,-1608.800546
111.406063,5625.565159,10362.883188,-612.876398
111.406383,6365.771101,11991.336260,1149.143247
111.406704,5699.585753,11843.295072,536.266849
111.407025,6291.750507,8882.471304,-995.924147
111.407345,5181.441594,6809.894666,-995.924147
111.407666,4367.215058,5255.462188,-76.609550
111.407986,3182.885551,5255.462188,689.485948
111.408307,2368.659014,6069.688724,0.000000
111.408628,3701.029710,8290.306550,536.266849
111.408948,5625.565159,10584.944971,1149.143247
111.409269,5107.421000,12213.398043,1302.362347
111.409590,4515.256246,11917.315666,153.219100
111.409910,4367.215058,10436.903782,-689.485948
111.410231,4515.256246,7550.100608,-919.314598
111.410551,4811.338623,5403.503377,383.047749
111.410872,3627.009116,4811.338623,229.828649
111.411193,2886.803174,6957.935855,-766.095498
111.411513,2886.803174,9400.615463,-383.047749
111.411834,4441.235652,11251.130318,229.828649
111.412154,5625.565159,11843.295072,1532.190996
111.412475,6069.688724,11103.089130,995.924147
111.412796,5107.421000,10288.862594,-689.485948
111.413116,4219.173869,7920.203579,-2145.067394
111.413437,3849.070898,5995.668130,-1762.019645
111.413757,4441.235652,5107.421000,-612.876398
111.414078,4071.132681,5403.503377,0.000000
111.414399,4367.215058,8142.265362,-383.047749
111.414719,4737.318029,11177.109724,919.314598
111.415040,4589.276840,12213.398043,995.924147
111.415360,5403.503377,10881.027347,229.828649
111.415681,5773.606348,7920.203579,-689.485948
111.416002,5995.668130,5255.462188,-919.314598
111.416322,4959.379811,3997.112087,0.000000
111.416643,3775.050304,4293.194464,153.219100
111.416964,3997.112087,5181.441594,-383.047749
111.417284,5847.626942,7550.100608,0.000000
111.417605,7179.997637,9770.718434,229.828649
111.417925,7179.997637,10362.883188,766.095498
111.418246,6809.894666,9252.574275,383.047749
111.418567,6809.894666,7772.162391,-919.314598
111.418887,6587.832884,5921.647536,-1302.362347
111.419208,5995.668130,4293.194464,-459.657299
111.419529,5329.482782,3627.009116,-1225.752797
111.419850,4811.338623,5181.441594,-536.266849
111.420170,5773.606348,8216.285956,0.000000
111.420491,6365.771101,10510.924376,1072.533697
111.420812,6365.771101,10807.006753,919.314598
111.421133,5995.668130,10288.862594,229.828649
111.421454,6143.709319,7772.162391,-459.657299
111.421774,5773.606348,5699.585753,-919.314598
111.422095,4737.318029,4441.235652,-612.876398
111.422416,3552.988522,4367.215058,-229.828649
111.422737,3849.070898,6217.729913,-459.657299
111.423057,5107.421000,8512.368333,0.000000
111.423378,6069.688724,10807.006753,995.924147
111.423699,6365.771101,11991.336260,919.314598
111.424020,5255.462188,11843.295072,0.000000
111.424341,5107.421000,9252.574275,-1455.581446
111.424661,5329.482782,6587.832884,-919.314598
111.424982,5181.441594,5107.421000,-306.438199
111.425303,3849.070898,5107.421000,0.000000
111.425624,3404.947333,7031.956449,-306.438199
111.425944,3478.967927,9252.574275,-383.047749
111.426265,5181.441594,11547.212695,919.314598
111.426586,6069.688724,11695.253884,1838.629195
111.426907,6291.750507,9992.780217,536.266849
111.427228,5699.585753,8216.285956,-995.924147
111.427548,5107.421000,6735.874072,-1915.238745
111.427869,3478.967927,5033.400406,-1532.190996
111.428190,4145.153275,4367.215058,-612.876398
111.428511,5403.503377,6809.894666,0.000000
111.428831,4885.359217,9178.553681,0.000000
111.429152,5551.544565,11769.274478,153.219100
111.429473,5847.626942,13027.624579,0.000000
111.429794,4959.379811,11621.233289,-842.705048
111.430115,4885.359217,8142.265362,-766.095498
111.430435,6143.709319,4959.379811,-306.438199
111.430756,3997.112087,3256.906145,-76.609550
111.431077,2886.803174,4145.153275,153.219100
111.431398,3478.967927,7254.018232,-229.828649
111.431718,4589.276840,10510.924376,0.000000
111.432039,5625.565159,11843.295072,1225.752797
111.432360,6587.832884,11325.150913,1455.581446
111.432681,5995.668130,9548.656652,0.000000
111.433002,5329.482782,7698.141797,0.000000
111.433322,4885.359217,5403.503377,-306.438199
111.433643,3923.091493,3478.967927,-1149.143247
111.433964,4293.194464,3849.070898,-229.828649
111.434285,5107.421000,6735.874072,459.657299
111.434606,5477.523971,9918.759623,459.657299
111.434926,5995.668130,12435.459826,612.876398
111.435247,6217.729913,12065.356855,229.828649
111.435568,6069.688724,9030.512492,-842.705048
111.435889,6143.709319,5995.668130,-536.266849
111.436209,5847.626942,4219.173869,-689.485948
111.436530,4959.379811,3404.947333,-383.047749
111.436851,3775.050304,5181.441594,-612.876398
111.437172,4441.235652,7254.018232,-766.095498
111.437493,6143.709319,9474.636058,0.000000
111.437813,6587.832884,11325.150913,1302.362347
111.438134,6143.709319,11251.130318,1685.410096
111.438455,5847.626942,9178.553681,0.000000
111.438776,5403.503377,6883.915261,-1072.533697
111.439096,4737.318029,4663.297435,-995.924147
111.439417,4293.194464,4293.194464,-153.219100
111.439738,3923.091493,6291.750507,153.219100
111.440059,3849.070898,7846.182985,306.438199
111.440380,5255.462188,9992.780217,306.438199
111.440700,6365.771101,11251.130318,1072.533697
111.441021,5773.606348,11103.089130,995.924147
111.441342,5329.482782,9252.574275,-306.438199
111.441663,5699.585753,7105.977043,-1225.752797
111.441983,5477.523971,5107.421000,-1455.581446
111.442304,5255.462188,4367.215058,-766.095498
111.442625,4885.359217,5551.544565,-689.485948
111.442946,4885.359217,8216.285956,-383.047749
111.443267,5403.503377,10807.006753,459.657299
111.443587,5477.523971,11917.315666,766.095498
111.443908,5477.523971,10584.944971,459.657299
111.444229,5773.606348,8438.347739,-306.438199
111.444550,5773.606348,6809.894666,-1302.362347
111.444870,4885.359217,4811.338623,-1302.362347
111.445191,3849.070898,4145.153275,-1149.143247
111.445512,4737.318029,5699.585753,-459.657299
111.445833,5033.400406,8216.285956,0.000000
111.446154,5551.544565,10436.903782,689.485948
111.446474,5995.668130,12435.459826,766.095498
111.446795,6291.750507,11695.253884,76.609550
111.447116,5921.647536,8586.388927,-1149.143247
111.447437,5773.606348,5995.668130,-2068.457845
111.447757,4885.359217,4663.297435,-1455.581446
111.448078,3404.947333,4959.379811,-306.438199
111.448399,3478.967927,6587.832884,0.000000
111.448720,4589.276840,8882.471304,-689.485948
111.449041,5255.462188,11103.089130,689.485948
111.449361,5107.421000,12065.356855,1455.581446
111.449682,4515.256246,10955.047942,229.828649
111.450003,4959.379811,8660.409521,-76.609550
111.450324,5107.421000,6439.791695,-536.266849
111.450644,4367.215058,4219.173869,-612.876398
111.450965,3627.009116,3849.070898,-612.876398
111.451286,3849.070898,6217.729913,-689.485948
111.451607,4367.215058,9474.636058,-383.047749
111.451928,5625.565159,12139.377449,76.609550
111.452248,6365.771101,12731.542202,1149.143247
111.452569,5329.482782,10881.027347,536.266849
111.452890,4959.379811,8956.491898,-612.876398
111.453211,4219.173869,6587.832884,-1608.800546
111.453531,3701.029710,4589.276840,-1072.533697
111.453852,3256.906145,5033.400406,-229.828649
111.454173,3404.947333,7328.038826,0.000000
111.454494,4219.173869,9622.677246,229.828649
111.454815,4515.256246,12139.377449,1149.143247
111.455135,4367.215058,12435.459826,1378.971896
111.455456,3997.112087,10436.903782,919.314598
111.455777,4071.132681,7772.162391,-229.828649
111.456098,4367.215058,5773.606348,-1072.533697
111.456418,4219.173869,4663.297435,-306.438199
111.456739,3775.050304,6587.832884,76.609550
111.457060,3775.050304,7772.162391,-536.266849
111.457381,4737.318029,9326.594869,0.000000
111.457702,6143.709319,10955.047942,1302.362347
111.458022,6291.750507,10658.965565,2145.067394
111.458343,6069.688724,8734.430116,536.266849
111.458664,5699.585753,6291.750507,-766.095498
111.458985,5477.523971,4515.256246,-1685.410096
111.459305,5847.626942,3552.988522,-689.485948
111.459626,5699.585753,4219.173869,76.609550
111.459947,5995.668130,5921.647536,-536.266849
111.460268,7254.018232,9104.533087,-459.657299
111.460589,7402.059420,11103.089130,0.000000
111.460909,6587.832884,10436.903782,-306.438199
111.461230,7624.121203,8290.306550,-459.657299
111.461551,7105.977043,6439.791695,-1149.143247
111.461872,6143.709319,4589.276840,-1302.362347
111.462193,4811.338623,4367.215058,-1225.752797
111.462513,3849.070898,6365.771101,-766.095498
111.462834,4219.173869,7402.059420,-1072.533697
111.463155,5551.544565,9104.533087,919.314598
111.463476,6143.709319,10066.800811,1838.629195
111.463796,4811.338623,10288.862594,995.924147
111.464117,4145.153275,9770.718434,0.000000
111.464438,4145.153275,8364.327145,-1455.581446
111.464759,4367.215058,6217.729913,-842.705048
111.465080,4219.173869,5033.400406,-306.438199
111.465400,3997.112087,6365.771101,-995.924147
111.465721,3849.070898,9030.512492,-306.438199
111.466042,4145.153275,11621.233289,0.000000
111.466363,4145.153275,12953.603985,153.219100
111.466683,4663.297435,11473.192101,229.828649
111.467004,5181.441594,9918.759623,306.438199
111.467325,4663.297435,8512.368333,-383.047749
111.467646,3552.988522,6809.894666,-995.924147
111.467967,3552.988522,5551.544565,-1225.752797
111.468287,3034.844362,6439.791695,-1072.533697
111.468608,3552.988522,8142.265362,0.000000
111.468929,4515.256246,11029.068536,612.876398
111.469250,5181.441594,11991.336260,842.705048
111.469570,5403.503377,12435.459826,459.657299
111.469891,4737.318029,10510.924376,-1225.752797
111.470212,4367.215058,7476.080014,-2221.676944
111.470533,4663.297435,5181.441594,-1532.190996
111.470854,3997.112087,4959.379811,-459.657299
111.471174,3701.029710,6587.832884,0.000000
111.471495,4071.132681,9104.533087,-383.047749
111.471816,4885.359217,11843.295072,459.657299
111.472137,4811.338623,13249.686362,1149.143247
111.472457,5255.462188,11843.295072,459.657299
111.472778,4515.256246,8586.388927,0.000000
111.473099,4737.318029,5329.482782,-383.047749
111.473420,4737.318029,3627.009116,229.828649
111.473741,3701.029710,3997.112087,0.000000
111.474061,3404.947333,5921.647536,-306.438199
111.474382,4737.318029,8512.368333,-306.438199
111.474703,6587.832884,10732.986159,612.876398
111.475024,7624.121203,11177.109724,2298.286494
111.475344,7031.956449,9474.636058,1302.362347
111.475665,6217.729913,6957.935855,-383.047749
111.475986,6143.709319,5107.421000,-1225.752797
111.476307,5107.421000,3256.906145,-842.705048
111.476628,4885.359217,3034.844362,-919.314598
111.476948,5995.668130,5181.441594,-689.485948
111.477269,6513.812290,8882.471304,76.609550
111.477590,6069.688724,10510.924376,612.876398
111.477911,6587.832884,10436.903782,306.438199
111.478231,6291.750507,9104.533087,306.438199
111.478552,5403.503377,6735.874072,-842.705048
111.478873,5181.441594,4663.297435,-1455.581446
111.479194,5181.441594,3627.009116,-919.314598
111.479515,4145.153275,4811.338623,-689.485948
111.479835,4959.379811,7550.100608,-995.924147
111.480156,5477.523971,9696.697840,-459.657299
111.480477,5477.523971,12213.398043,536.266849
111.480798,4885.359217,13175.665768,1532.190996
111.481118,4219.173869,10584.944971,612.876398
111.481439,4367.215058,7550.100608,-919.314598
111.481760,3552.988522,5847.626942,-383.047749
111.482081,2960.823768,5477.523971,-306.438199
111.482402,2146.597232,6809.894666,-612.876398
111.482722,2590.720797,9252.574275,-766.095498
111.483043,3849.070898,11621.233289,0.000000
111.483364,4663.297435,12361.439231,1762.019645
111.483685,4589.276840,12361.439231,2528.115143
111.484005,3775.050304,10807.006753,689.485948
111.484326,3923.091493,9030.512492,-766.095498
111.484647,4367.215058,6143.709319,-1072.533697
111.484968,3775.050304,5181.441594,-1378.971896
111.485289,3849.070898,6809.894666,-1225.752797
111.485609,4293.194464,9178.553681,-1302.362347
111.485930,4737.318029,11399.171507,-459.657299
111.486251,5477.523971,12361.439231,919.314598
111.486572,5921.647536,11843.295072,1762.019645
111.486893,5255.462188,10066.800811,76.609550
111.487213,4441.235652,7031.956449,-1455.581446
111.487534,4663.297435,4737.318029,-1378.971896
111.487855,5181.441594,4145.153275,-689.485948
111.488176,4737.318029,5329.482782,-536.266849
111.488496,4885.359217,7476.080014,-766.095498
111.488817,5773.606348,9992.780217,0.000000
111.489138,5699.585753,11473.192101,1685.410096
111.489459,5699.585753,10881.027347,2451.505594
111.489780,5847.626942,8216.285956,0.000000
111.490100,5847.626942,5921.647536,-1532.190996
111.490421,5403.503377,4589.276840,-1072.533697
111.490742,4959.379811,4145.153275,-612.876398
111.491063,4737.318029,5181.441594,-1302.362347
111.491383,4737.318029,7698.141797,-919.314598
111.491704,5477.523971,10140.821405,383.047749
111.492025,5921.647536,11177.109724,1302.362347
111.492346,5995.668130,10436.903782,1991.848295
111.492667,5477.523971,8216.285956,383.047749
111.492987,5699.585753,6069.688724,-1302.362347
111.493308,5107.421000,4367.215058,-1225.752797
111.493629,4959.379811,4071.132681,-766.095498
111.493950,4959.379811,5329.482782,-536.266849
111.494270,5625.565159,6957.935855,0.000000
111.494591,6439.791695,9918.759623,306.438199
111.494912,6217.729913,11251.130318,1072.533697
111.495233,5181.441594,11103.089130,1072.533697
111.495554,5329.482782,9548.656652,-153.219100
111.495874,5477.523971,6957.935855,-1072.533697
111.496195,5107.421000,4589.276840,-766.095498
111.496516,4737.318029,4441.235652,-536.266849
111.496837,4145.153275,6365.771101,-842.705048
111.497157,3923.091493,8438.347739,-689.485948
111.497478,5699.585753,10807.006753,383.047749
111.497799,6365.771101,11621.233289,2451.505594
111.498120,5403.503377,10436.903782,2068.457845
111.498441,4811.338623,8808.450710,612.876398
111.498761,4589.276840,7031.956449,-1149.143247
111.499082,3923.091493,5033.400406,-919.314598
111.499403,4811.338623,4737.318029,0.000000
111.499724,4367.215058,6587.832884,-919.314598
111.500044,4515.256246,8586.388927,-1378.971896
111.500365,4811.338623,11029.068536,0.000000
111.500686,6069.688724,12583.501014,1608.800546
111.501007,4959.379811,11547.212695,1685.410096
111.501328,5255.462188,8586.388927,0.000000
111.501648,5329.482782,6587.832884,-1608.800546
111.501969,4441.235652,5033.400406,-1455.581446
111.502290,4071.132681,5329.482782,-612.876398
111.502611,4441.235652,6957.935855,-612.876398
111.502931,4811.338623,8512.368333,-766.095498
111.503252,5477.523971,10510.924376,0.000000
111.503573,5773.606348,11029.068536,2068.457845
111.503894,4959.379811,11251.130318,842.705048
111.504215,5107.421000,8734.430116,-306.438199
111.504535,5181.441594,6291.750507,-1225.752797
111.504856,4811.338623,4219.173869,-1455.581446
111.505177,4663.297435,4737.318029,-229.828649
111.505498,4589.276840,6883.915261,0.000000
111.505818,4737.318029,9178.553681,-536.266849
111.506139,5255.462188,10881.027347,0.000000
111.506460,6069.688724,11177.109724,1225.752797
111.506781,6143.709319,9992.780217,995.924147
111.507102,5551.544565,7624.121203,0.000000
111.507422,5551.544565,6069.688724,-1302.362347
111.507743,5033.400406,4663.297435,-1915.238745
111.508064,4737.318029,5107.421000,-1149.143247
111.508385,5181.441594,6513.812290,-459.657299
111.508705,5773.606348,8882.471304,0.000000
111.509026,6217.729913,10732.986159,1302.362347
111.509347,5773.606348,11695.253884,2374.896044
111.509668,5107.421000,9844.739029,842.705048
111.509989,4811.338623,7105.977043,-306.438199
111.510309,5181.441594,4959.379811,-689.485948
111.510630,5181.441594,3627.009116,0.000000
111.510951,4441.235652,5255.462188,-306.438199
111.511272,4663.297435,6957.935855,-536.266849
111.511592,5181.441594,9326.594869,-689.485948
111.511913,6439.791695,11251.130318,842.705048
111.512234,6735.874072,11547.212695,1838.629195
111.512555,6735.874072,9326.594869,306.438199
111.512876,6291.750507,6513.812290,-1225.752797
111.513196,5995.668130,4367.215058,-1685.410096
111.513517,6069.688724,3775.050304,-1072.533697
111.513838,5403.503377,5107.421000,0.000000
111.514159,5107.421000,7328.038826,-229.828649
111.514480,6365.771101,9400.615463,-766.095498
111.514800,6217.729913,10881.027347,306.438199
111.515121,5773.606348,10807.006753,1072.533697
111.515442,5551.544565,8956.491898,1072.533697
111.515763,5181.441594,7031.956449,-229.828649
111.516083,5181.441594,5107.421000,-995.924147
111.516404,4589.276840,4145.153275,-1378.971896
111.516725,4589.276840,5699.585753,-1149.143247
111.517046,4219.173869,8216.285956,-1072.533697
111.517367,4441.235652,10584.944971,229.828649
111.517687,5181.441594,12139.377449,1455.581446
111.518008,5181.441594,11473.192101,1991.848295
111.518329,4663.297435,9696.697840,536.266849
111.518650,4367.215058,8512.368333,-1072.533697
111.518970,3034.844362,6513.812290,-1991.848295
111.519291,3182.885551,5551.544565,-1838.629195
111.519612,3627.009116,6439.791695,-459.657299
111.519933,4441.235652,8512.368333,0.000000
111.520254,4071.132681,11103.089130,153.219100
111.520574,3552.988522,12879.583391,1072.533697
111.520895,3182.885551,12657.521608,612.876398
111.521216,3108.864956,10807.006753,0.000000
111.521537,3478.967927,7772.162391,-383.047749
111.521858,4589.276840,5699.585753,-536.266849
111.522178,3627.009116,5403.503377,0.000000
111.522499,2368.659014,6883.915261,-842.705048
111.522820,2886.803174,8512.368333,-1149.143247
111.523141,4737.318029,10732.986159,153.219100
111.523461,5847.626942,11917.315666,2451.505594
111.523782,5477.523971,11103.089130,2374.896044
111.524103,5403.503377,8142.265362,383.047749
111.524424,5181.441594,6365.771101,-1762.019645
111.524745,4441.235652,4515.256246,-1532.190996
111.525065,4737.318029,3997.112087,-1532.190996
111.525386,5995.668130,4885.359217,-1225.752797
111.525707,6143.709319,7179.997637,-459.657299
111.526028,7179.997637,9622.677246,229.828649
111.526349,7328.038826,11251.130318,536.266849
111.526669,6365.771101,11029.068536,0.000000
111.526990,6587.832884,8364.327145,-689.485948
111.527311,7179.997637,4811.338623,-1302.362347
111.527632,7179.997637,2590.720797,-766.095498
111.527952,6069.688724,3108.864956,-306.438199
111.528273,5181.441594,5477.523971,-1072.533697
111.528594,5921.647536,8438.347739,-919.314598
111.528915,7179.997637,9918.759623,306.438199
111.529236,7698.141797,9992.780217,2068.457845
111.529556,6883.915261,8660.409521,1991.848295
111.529877,6069.688724,6883.915261,459.657299
111.530198,4959.379811,5625.565159,-689.485948
111.530519,4737.318029,4737.318029,-1302.362347
111.530840,5699.585753,4515.256246,-689.485948
111.531160,6587.832884,6439.791695,-306.438199
111.531481,5921.647536,8660.409521,-995.924147
111.531802,5773.606348,10510.924376,229.828649
111.532123,6143.709319,11991.336260,1608.800546
111.532443,5255.462188,10732.986159,1225.752797
111.532764,5329.482782,7772.162391,229.828649
111.533085,5847.626942,5625.565159,-766.095498
111.533406,4367.215058,5033.400406,-1072.533697
111.533727,3182.885551,5403.503377,-1378.971896
111.534047,3701.029710,7105.977043,-1302.362347
111.534368,4219.173869,9400.615463,-612.876398
111.534689,4737.318029,11103.089130,995.924147
111.535010,5625.565159,12435.459826,2221.676944
111.535331,4441.235652,11843.295072,459.657299
111.535651,2442.679609,9548.656652,-1532.190996
111.535972,3256.906145,6883.915261,-1532.190996
111.536293,3404.947333,5403.503377,-919.314598
111.536614,2812.782580,6291.750507,76.609550
111.536935,2886.803174,8290.306550,-689.485948
111.537255,2886.803174,10584.944971,-1762.019645
111.537576,3108.864956,11991.336260,0.000000
111.537897,4145.153275,12657.521608,1991.848295
111.538218,3849.070898,10510.924376,1225.752797
111.538538,3552.988522,7698.141797,0.000000
111.538859,3997.112087,5921.647536,0.000000
111.539180,3404.947333,5773.606348,-383.047749
111.539501,2442.679609,5921.647536,-1302.362347
111.539822,3701.029710,8068.244768,-1378.971896
111.540142,5181.441594,10288.862594,-536.266849
111.540463,5329.482782,11843.295072,1302.362347
111.540784,5107.421000,11473.192101,1915.238745
111.541105,5033.400406,8734.430116,306.438199
111.541426,5329.482782,7105.977043,-1072.533697
111.541746,5477.523971,5403.503377,-1225.752797
111.542067,5477.523971,3997.112087,-1838.629195
111.542388,5699.585753,5773.606348,-1532.190996
111.542709,5551.544565,7772.162391,-383.047749
111.543029,5477.523971,9474.636058,153.219100
111.543350,6809.894666,10362.883188,1149.143247
111.543671,6809.894666,10288.862594,1225.752797
111.543992,5773.606348,8216.285956,229.828649
111.544313,5625.565159,6439.791695,-1149.143247
111.544633,5699.585753,5181.441594,-766.095498
111.544954,5181.441594,4811.338623,-153.219100
111.545275,5625.565159,5625.565159,-536.266849
111.545596,5921.647536,6883.915261,-1072.533697
111.545917,5699.585753,8290.306550,-229.828649
111.546237,6439.791695,9992.780217,1532.190996
111.546558,6513.812290,10732.986159,2298.286494
111.546879,5551.544565,8660.409521,766.095498
111.547200,5921.647536,7031.956449,-1225.752797
111.547520,6143.709319,5625.565159,-1838.629195
111.547841,4885.359217,4737.318029,-1685.410096
111.548162,4663.297435,5477.523971,-459.657299
111.548483,4737.318029,7550.100608,0.000000
111.548804,4737.318029,9548.656652,306.438199
111.549124,5551.544565,11325.150913,1302.362347
111.549445,5403.503377,11843.295072,1149.143247
111.549766,4663.297435,10214.842000,0.000000
111.550087,4737.318029,7624.121203,-1302.362347
111.550408,4515.256246,4811.338623,-1762.019645
111.550728,4219.173869,4293.194464,-995.924147
111.551049,3478.967927,5773.606348,0.000000
111.551370,4145.153275,8734.430116,-612.876398
111.551691,4737.318029,10732.986159,-306.438199
111.552012,3923.091493,12657.521608,689.485948
111.552332,4811.338623,11843.295072,995.924147
111.552653,4811.338623,9622.677246,0.000000
111.552974,4737.318029,7254.018232,-1225.752797
111.553295,4589.276840,5699.585753,-995.924147
111.553615,3627.009116,5033.400406,-1302.362347
111.553936,2960.823768,6513.812290,-1838.629195
111.554257,3627.009116,8808.450710,-689.485948
111.554578,5625.565159,11473.192101,612.876398
111.554899,5403.503377,12731.542202,1608.800546
111.555219,4219.173869,11547.212695,1225.752797
111.555540,3923.091493,9252.574275,-766.095498
111.555861,3997.112087,7254.018232,-1378.971896
111.556182,3775.050304,5773.606348,-229.828649
111.556503,3997.112087,4811.338623,-306.438199
111.556823,3775.050304,6143.709319,-1072.533697
111.557144,4293.194464,8660.409521,-689.485948
111.557465,4885.359217,11177.109724,689.485948
111.557786,5551.544565,12065.356855,1455.581446
111.558106,5773.606348,11029.068536,1225.752797
111.558427,5699.585753,8290.306550,229.828649
111.558748,5773.606348,5403.503377,-1072.533697
111.559069,5921.647536,4071.132681,-612.876398
111.559390,5551.544565,4589.276840,-1149.143247
111.559710,5329.482782,6217.729913,-2145.067394
111.560031,6513.812290,8438.347739,-1762.019645
111.560352,7105.977043,9918.759623,76.609550
111.560673,7328.038826,11177.109724,2451.505594
111.560994,5995.668130,10362.883188,2221.676944
111.561314,5107.421000,8808.450710,-459.657299
111.561635,4811.338623,6217.729913,-1762.019645
111.561956,5107.421000,4367.215058,-1225.752797
111.562277,5255.462188,4293.194464,0.000000
111.562597,4737.318029,5551.544565,229.828649
111.562918,4145.153275,8216.285956,0.000000
111.563239,4367.215058,10584.944971,536.266849
111.563560,4589.276840,11029.068536,1991.848295
111.563881,5107.421000,10140.821405,1991.848295
111.564201,5329.482782,7698.141797,919.314598
111.564522,4663.297435,5773.606348,-306.438199
111.564843,3997.112087,5255.462188,-1225.752797
111.565164,4145.153275,5107.421000,-2145.067394
111.565485,4293.194464,5995.668130,-1762.019645
111.565805,5181.441594,7550.100608,-1225.752797
111.566126,6439.791695,10584.944971,689.485948
111.566447,6365.771101,12657.521608,1378.971896
111.566768,4811.338623,11547.212695,995.924147
111.567089,5107.421000,7994.224174,-995.924147
111.567409,5477.523971,5255.462188,-1149.143247
111.567730,4589.276840,4367.215058,-1072.533697
111.568051,4145.153275,5107.421000,-1302.362347
111.568372,3849.070898,7550.100608,-919.314598
111.568692,4071.132681,8956.491898,-842.705048
111.569013,5625.565159,10658.965565,689.485948
111.569334,5329.482782,11917.315666,2298.286494
111.569655,3404.947333,11103.089130,536.266849
111.569976,3108.864956,9326.594869,-536.266849
111.570296,4293.194464,7105.977043,-1302.362347
111.570617,3849.070898,5625.565159,-995.924147
111.570938,3775.050304,5625.565159,-689.485948
111.571259,4145.153275,7772.162391,-1225.752797
111.571580,3997.112087,10288.862594,-689.485948
111.571900,4663.297435,12731.542202,842.705048
111.572221,5625.565159,12731.542202,1838.629195
111.572542,4959.379811,10288.862594,612.876398
111.572863,4737.318029,8512.368333,-153.219100
111.573183,4811.338623,6809.894666,-383.047749
111.573504,4145.153275,5477.523971,-1225.752797
111.573825,3997.112087,5477.523971,-1072.533697
111.574146,5033.400406,6513.812290,-689.485948
111.574467,5477.523971,8660.409521,-383.047749
111.574787,6069.688724,10658.965565,1378.971896
111.575108,6365.771101,11325.150913,2298.286494
111.575429,6143.709319,9918.759623,76.609550
111.575750,5625.565159,7476.080014,-1225.752797
111.576071,6365.771101,4663.297435,-1302.362347
111.576391,6143.709319,3923.091493,-612.876398
111.576712,5477.523971,4737.318029,-612.876398
111.577033,5181.441594,7179.997637,-766.095498
111.577354,5921.647536,9252.574275,-995.924147
111.577674,6069.688724,11399.171507,229.828649
111.577995,5847.626942,11399.171507,1915.238745
111.578316,5403.503377,9326.594869,689.485948
111.578637,4737.318029,6513.812290,-1072.533697
111.578958,4737.318029,4663.297435,-1225.752797
111.579278,4811.338623,3849.070898,-842.705048
111.579599,4293.194464,4737.318029,-306.438199
111.579920,4737.318029,6809.894666,-306.438199
111.580241,5255.462188,9474.636058,229.828649
111.580562,5625.565159,11547.212695,1455.581446
111.580882,5625.565159,11251.130318,2145.067394
111.581203,5625.565159,8586.388927,919.314598
111.581524,5181.441594,6069.688724,-153.219100
111.581845,5033.400406,4737.318029,-689.485948
111.582166,4441.235652,4737.318029,-1455.581446
111.582486,4293.194464,5921.647536,-1685.410096
111.582807,4885.359217,8068.244768,-1225.752797
111.583128,5995.668130,9622.677246,229.828649
111.583449,6365.771101,11251.130318,1762.019645
111.583769,5773.606348,11399.171507,1762.019645
111.584090,4885.359217,9474.636058,383.047749
111.584411,4589.276840,7254.018232,-229.828649
111.584732,4441.235652,5107.421000,-995.924147
111.585053,4737.318029,4219.173869,-995.924147
111.585373,4071.132681,5921.647536,-1225.752797
111.585694,4145.153275,8216.285956,-1225.752797
111.586015,4959.379811,10066.800811,-536.266849
111.586336,5699.585753,11769.274478,1455.581446
111.586657,5551.544565,11843.295072,2374.896044
111.586977,4071.132681,9992.780217,689.485948
111.587298,4219.173869,7994.224174,-689.485948
111.587619,4737.318029,5625.565159,-1302.362347
111.587940,4515.256246,5107.421000,-1149.143247
111.588260,4071.132681,5921.647536,-995.924147
111.588581,4811.338623,8142.265362,-1149.143247
111.588902,4885.359217,10584.944971,0.000000
111.589223,5773.606348,12065.356855,1762.019645
111.589544,5699.585753,11547.212695,2298.286494
111.589864,4811.338623,8660.409521,383.047749
111.590185,4811.338623,6587.832884,-536.266849
111.590506,4367.215058,5033.400406,-995.924147
111.590827,4589.276840,4811.338623,-1149.143247
111.591148,4515.256246,5921.647536,-1532.190996
111.591468,5181.441594,8438.347739,-1225.752797
111.591789,6069.688724,10436.903782,-383.047749
111.592110,6217.729913,12065.356855,1072.533697
111.592431,5847.626942,11399.171507,1149.143247
111.592751,5551.544565,8512.368333,76.609550
111.593072,5847.626942,5551.544565,-995.924147
111.593393,5033.400406,4219.173869,-919.314598
111.593714,4737.318029,4367.215058,-1608.800546
111.594035,4737.318029,6587.832884,-1378.971896
111.594355,5403.503377,8586.388927,-612.876398
111.594676,5921.647536,9992.780217,153.219100
111.594997,6439.791695,11547.212695,1762.019645
111.595318,5995.668130,10140.821405,1838.629195
111.595639,4811.338623,7920.203579,766.095498
111.595959,4811.338623,5551.544565,-612.876398
111.596280,4811.338623,4293.194464,-1072.533697
111.596601,4959.379811,5033.400406,-919.314598
111.596922,4737.318029,6735.874072,-842.705048
111.597242,5773.606348,8956.491898,-536.266849
111.597563,6143.709319,10436.903782,229.828649
111.597884,6217.729913,11473.192101,919.314598
111.598205,5921.647536,10510.924376,1072.533697
111.598526,5625.565159,8290.306550,459.657299
111.598846,4441.235652,5625.565159,-689.485948
111.599167,5181.441594,4367.215058,-689.485948
111.599488,5181.441594,5033.400406,-766.095498
111.599809,4219.173869,6883.915261,-1302.362347
111.600130,4885.359217,8512.368333,-919.314598
111.600450,6439.791695,10140.821405,536.266849
111.600771,6587.832884,10955.047942,1915.238745
111.601092,5699.585753,10584.944971,1225.752797
111.601413,5255.462188,8364.327145,-459.657299
111.601734,4737.318029,5551.544565,-1378.971896
111.602054,4737.318029,3997.112087,-306.438199
111.602375,5181.441594,4515.256246,-383.047749
111.602696,4589.276840,6143.709319,-1608.800546
111.603017,4737.318029,9548.656652,-1225.752797
111.603337,5995.668130,11769.274478,612.876398
111.603658,6513.812290,11843.295072,1838.629195
111.603979,5403.503377,9622.677246,842.705048
111.604300,5699.585753,7328.038826,-689.485948
111.604621,4663.297435,6143.709319,-1302.362347
111.604941,3775.050304,5477.523971,-612.876398
111.605262,4145.153275,4959.379811,-766.095498
111.605583,4737.318029,6439.791695,-842.705048
111.605904,5255.462188,9474.636058,-153.219100
111.606225,5033.400406,12361.439231,536.266849
111.606545,4663.297435,13027.624579,842.705048
111.606866,4737.318029,10732.986159,153.219100
111.607187,4589.276840,7550.100608,-306.438199
111.607508,4589.276840,4885.359217,0.000000
111.607828,3478.967927,4589.276840,306.438199
111.608149,2664.741391,5921.647536,-842.705048
111.608470,3627.009116,8142.265362,-1455.581446
111.608791,5181.441594,9992.780217,-842.705048
111.609112,5921.647536,10881.027347,1072.533697
111.609432,6365.771101,11547.212695,1915.238745
111.609753,5255.462188,10288.862594,919.314598
111.610074,4071.132681,7698.141797,-995.924147
111.610395,4737.318029,5033.400406,-1378.971896
111.610716,4737.318029,4071.132681,-919.314598
111.611036,4663.297435,5477.523971,-766.095498
111.611357,4811.338623,8142.265362,-1225.752797
111.611678,5255.462188,10955.047942,-1072.533697
111.611999,5329.482782,11991.336260,612.876398
111.612319,5551.544565,11399.171507,2221.676944
111.612640,4959.379811,8956.491898,689.485948
111.612961,4737.318029,7179.997637,-766.095498
111.613282,3923.091493,5625.565159,-919.314598
111.613603,3923.091493,5255.462188,-689.485948
111.613923,4145.153275,5921.647536,-459.657299
111.614244,4367.215058,7476.080014,-459.657299
111.614565,5255.462188,9326.594869,0.000000
111.614886,5551.544565,11029.068536,1762.019645
111.615207,5403.503377,10807.006753,1915.238745
111.615527,5403.503377,8956.491898,76.609550
111.615848,5773.606348,6291.750507,-1072.533697
111.616169,5773.606348,4515.256246,-919.314598
111.616490,5625.565159,4663.297435,-919.314598
111.616811,6291.750507,5699.585753,-1072.533697
111.617131,5847.626942,7105.977043,-1685.410096
111.617452,6217.729913,8364.327145,-689.485948
111.617773,7402.059420,10658.965565,1608.800546
111.618094,7179.997637,11473.192101,2068.457845
111.618414,5625.565159,9326.594869,0.000000
111.618735,5995.668130,6365.771101,-1915.238745
111.619056,5107.421000,4737.318029,-1762.019645
111.619377,4071.132681,4145.153275,-919.314598
111.619698,4219.173869,5477.523971,306.438199
111.620018,4071.132681,8142.265362,-766.095498
111.620339,5107.421000,10510.924376,-153.219100
111.620660,5847.626942,12361.439231,919.314598
111.620981,4589.276840,11843.295072,995.924147
111.621301,3775.050304,9400.615463,-306.438199
111.621622,4589.276840,7179.997637,-689.485948
111.621943,3849.070898,6069.688724,-536.266849
111.622264,3404.947333,5995.668130,-612.876398
111.622585,3330.926739,6217.729913,-459.657299
111.622905,3923.091493,9104.533087,-1149.143247
111.623226,4071.132681,11325.150913,612.876398
111.623547,4589.276840,12953.603985,1838.629195
111.623868,4959.379811,11399.171507,1072.533697
111.624188,4515.256246,8364.327145,-76.609550
111.624509,4515.256246,7105.977043,-306.438199
111.624830,3923.091493,5625.565159,-689.485948
111.625151,3108.864956,5403.503377,-919.314598
111.625471,3923.091493,7031.956449,-1378.971896
111.625792,4959.379811,8734.430116,-766.095498
111.626113,5625.565159,10362.883188,0.000000
111.626434,5921.647536,11473.192101,1378.971896
111.626754,5255.462188,10955.047942,1149.143247
111.627075,4811.338623,9030.512492,-1225.752797
111.627396,4959.379811,6661.853478,-1915.238745
111.627717,4959.379811,5181.441594,-1225.752797
111.628038,4737.318029,5625.565159,-766.095498
111.628358,4367.215058,6957.935855,-612.876398
111.628679,4811.338623,8808.450710,-995.924147
111.629000,5477.523971,9548.656652,0.000000
111.629321,5847.626942,11325.150913,1838.629195
111.629641,5551.544565,9696.697840,1532.190996
111.629962,4959.379811,7550.100608,0.000000
111.630283,4959.379811,5847.626942,-306.438199
111.630604,4811.338623,4885.359217,-459.657299
111.630924,4811.338623,4663.297435,-536.266849
111.631245,5033.400406,6217.729913,-766.095498
111.631566,5921.647536,8512.368333,-536.266849
111.631887,6365.771101,10140.821405,153.219100
111.632207,7105.977043,11251.130318,1455.581446
111.632528,6069.688724,10140.821405,842.705048
111.632849,5847.626942,7550.100608,-842.705048
111.633170,5699.585753,5477.523971,-1072.533697
111.633491,4959.379811,4367.215058,-1225.752797
111.633811,4737.318029,4811.338623,-1072.533697
111.634132,4737.318029,7179.997637,-1378.971896
111.634453,5107.421000,9326.594869,-919.314598
111.634774,5625.565159,11103.089130,383.047749
111.635094,6143.709319,11917.315666,2221.676944
111.635415,5033.400406,10510.924376,1455.581446
111.635736,3701.029710,7476.080014,0.000000
111.636057,4367.215058,5403.503377,-995.924147
111.636377,3701.029710,4589.276840,-459.657299
111.636698,3256.906145,5477.523971,0.000000
111.637019,3627.009116,7402.059420,-766.095498
111.637340,4885.359217,9548.656652,-1225.752797
111.637660,4959.379811,11695.253884,0.000000
111.637981,4959.379811,12361.439231,1762.019645
111.638302,5033.400406,10732.986159,1149.143247
111.638623,4737.318029,7772.162391,-689.485948
111.638944,3997.112087,5033.400406,-612.876398
111.639264,4293.194464,4959.379811,-306.438199
111.639585,2738.761985,6217.729913,-919.314598
111.639906,2960.823768,7994.224174,-1915.238745
111.640227,5773.606348,10214.842000,-689.485948
111.640547,5625.565159,11843.295072,689.485948
111.640868,4515.256246,11769.274478,1072.533697
111.641189,4145.153275,9918.759623,229.828649
111.641510,4071.132681,8216.285956,-1378.971896
111.641830,3182.885551,5625.565159,-383.047749
111.642151,4589.276840,4811.338623,306.438199
111.642472,4071.132681,4737.318029,-689.485948
111.642793,3701.029710,7846.182985,-1685.410096
111.643113,4959.379811,11325.150913,0.000000
111.643434,5773.606348,12953.603985,383.047749
111.643755,5625.565159,11473.192101,383.047749
111.644076,5921.647536,8438.347739,-306.438199
111.644397,6143.709319,7105.977043,-1302.362347
111.644717,4811.338623,5551.544565,0.000000
111.645038,4367.215058,4737.318029,842.705048
111.645359,4737.318029,5329.482782,0.000000
111.645680,5107.421000,7328.038826,-995.924147
111.646000,5995.668130,10140.821405,0.000000
111.646321,6365.771101,12361.439231,612.876398
111.646642,6143.709319,11843.295072,153.219100
111.646963,5625.565159,8660.409521,-153.219100
111.647283,6143.709319,5773.606348,-306.438199
111.647604,5625.565159,4145.153275,153.219100
111.647925,3775.050304,4367.215058,919.314598
111.648246,4145.153275,5995.668130,-766.095498
111.648566,5921.647536,7846.182985,-2068.457845
111.648887,6735.874072,9992.780217,-842.705048
111.649208,6809.894666,11547.212695,995.924147
111.649529,6143.709319,10881.027347,1302.362347
111.649850,4811.338623,9178.553681,459.657299
111.650170,4515.256246,7031.956449,-1149.143247
111.650491,4367.215058,4737.318029,0.000000
111.650812,3997.112087,4071.132681,459.657299
111.651133,3923.091493,5699.585753,-459.657299
111.651453,4737.318029,8956.491898,-1532.190996
111.651774,5773.606348,11843.295072,-842.705048
111.652095,5625.565159,11917.315666,612.876398
111.652416,5403.503377,10214.842000,383.047749
111.652736,5033.400406,8142.265362,-306.438199
111.653057,4737.318029,5625.565159,-229.828649
111.653378,4589.276840,4737.318029,1072.533697
111.653699,3404.947333,4441.235652,995.924147
111.654019,4441.235652,5921.647536,-1302.362347
111.654340,5329.482782,8068.244768,-1838.629195
111.654661,5847.626942,10584.944971,-995.924147
111.654982,6217.729913,11325.150913,995.924147
111.655302,5995.668130,9918.759623,229.828649
111.655623,5551.544565,7994.224174,-1302.362347
111.655944,5477.523971,5921.647536,-842.705048
111.656265,5699.585753,5107.421000,0.000000
111.656586,3775.050304,5181.441594,-383.047749
111.656906,3775.050304,6587.832884,-2221.676944
111.657227,5181.441594,9178.553681,-2298.286494
111.657548,6365.771101,11843.295072,306.438199
111.657869,5477.523971,12213.398043,2068.457845
111.658189,4959.379811,10584.944971,536.266849
111.658510,4959.379811,8142.265362,-459.657299
111.658831,3627.009116,6587.832884,-153.219100
111.659152,3997.112087,4959.379811,1149.143247
111.659472,3701.029710,5107.421000,612.876398
111.659793,3552.988522,7105.977043,-689.485948
111.660114,4219.173869,9474.636058,-459.657299
111.660435,5033.400406,10955.047942,459.657299
111.660755,5773.606348,12065.356855,1225.752797
111.661076,5107.421000,10955.047942,995.924147
111.661397,4737.318029,8438.347739,0.000000
111.661718,5477.523971,6217.729913,-459.657299
111.662039,4367.215058,5255.462188,383.047749
111.662359,3923.091493,5625.565159,-459.657299
111.662680,4589.276840,6883.915261,-2298.286494
111.663001,5551.544565,9030.512492,-1991.848295
111.663322,6439.791695,11473.192101,306.438199
111.663642,6957.935855,11917.315666,1685.410096
111.663963,6143.709319,9992.780217,153.219100
111.664284,4959.379811,7846.182985,-995.924147
111.664605,5477.523971,5403.503377,-306.438199
111.664925,4589.276840,4515.256246,306.438199
111.665246,3849.070898,4367.215058,-612.876398
111.665567,4293.194464,5995.668130,-1302.362347
111.665888,5107.421000,8364.327145,-842.705048
111.666208,5699.585753,10658.965565,766.095498
111.666529,6143.709319,11547.212695,1685.410096
111.666850,4959.379811,9918.759623,-76.609550
111.667171,5403.503377,7772.162391,-1225.752797
111.667492,5625.565159,4737.318029,-306.438199
111.667812,5107.421000,3997.112087,306.438199
111.668133,3775.050304,3997.112087,-306.438199
111.668454,4219.173869,6883.915261,-1302.362347
111.668775,5625.565159,10214.842000,-1532.190996
111.669095,6291.750507,11695.253884,612.876398
111.669416,5995.668130,11769.274478,919.314598
111.669737,5329.482782,9474.636058,0.000000
111.670058,5255.462188,7105.977043,-919.314598
111.670378,4737.318029,5255.462188,229.828649
111.670699,4515.256246,4885.359217,842.705048
111.671020,4071.132681,5477.523971,-612.876398
111.671341,4293.194464,7105.977043,-1608.800546
111.671661,5403.503377,9474.636058,0.000000
111.671982,6513.812290,11399.171507,1072.533697
111.672303,6069.688724,11103.089130,1072.533697
111.672624,5847.626942,8438.347739,-459.657299
111.672945,5699.585753,6883.915261,-1225.752797
111.673265,5033.400406,5181.441594,-153.219100
111.673586,4663.297435,4959.379811,1149.143247
111.673907,4811.338623,5625.565159,-536.266849
111.674228,5403.503377,7476.080014,-2221.676944
111.674548,6513.812290,9918.759623,-766.095498
111.674869,6735.874072,11621.233289,459.657299
111.675190,5699.585753,11695.253884,383.047749
111.675511,5773.606348,9474.636058,-383.047749
111.675831,5477.523971,7328.038826,-1302.362347
111.676152,5107.421000,5403.503377,-229.828649
111.676473,3923.091493,4811.338623,383.047749
111.676794,3478.967927,5773.606348,-229.828649
111.677114,4145.153275,7624.121203,-612.876398
111.677435,5181.441594,10214.842000,0.000000
111.677756,5403.503377,10955.047942,766.095498
111.678077,5033.400406,11251.130318,919.314598
111.678398,4145.153275,10658.965565,0.000000
111.678718,4071.132681,8586.388927,-1225.752797
111.679039,4071.132681,6217.729913,0.000000
111.679360,4219.173869,4737.318029,459.657299
111.679681,3404.947333,6217.729913,0.000000
111.680001,3330.926739,8734.430116,-1302.362347
111.680322,4293.194464,10658.965565,-229.828649
111.680643,5255.462188,12657.521608,919.314598
111.680964,4663.297435,11399.171507,612.876398
111.681284,4737.318029,8660.409521,-459.657299
111.681605,4441.235652,6661.853478,-153.219100
111.681926,3997.112087,5773.606348,689.485948
111.682247,2960.823768,5181.441594,536.266849
111.682567,3256.906145,5403.503377,-1608.800546
111.682888,4959.379811,7846.182985,-2145.067394
111.683209,5773.606348,10436.903782,383.047749
111.683530,6143.709319,12065.356855,1225.752797
111.683851,5551.544565,10955.047942,0.000000
111.684171,5255.462188,8882.471304,-1991.848295
111.684492,5773.606348,6365.771101,-1302.362347
111.684813,5033.400406,4959.379811,383.047749
111.685134,4293.194464,4811.338623,459.657299
111.685454,4293.194464,6069.688724,-689.485948
111.685775,5255.462188,7698.141797,-1378.971896
111.686096,6217.729913,9696.697840,0.000000
111.686417,6513.812290,10807.006753,842.705048
111.686737,5921.647536,10510.924376,536.266849
111.687058,5551.544565,8364.327145,-306.438199
111.687379,5847.626942,5995.668130,0.000000
111.687700,5329.482782,4367.215058,383.047749
111.688020,4811.338623,4145.153275,76.609550
111.688341,4589.276840,5107.421000,-919.314598
111.688662,5403.503377,7772.162391,-842.705048
111.688983,6735.874072,9992.780217,76.609550
111.689304,7328.038826,11251.130318,1149.143247
111.689624,7105.977043,10436.903782,612.876398
111.689945,6069.688724,8068.244768,-842.705048
111.690266,5847.626942,6143.709319,-842.705048
111.690587,5773.606348,4811.338623,0.000000
111.690907,4737.318029,4367.215058,-766.095498
111.691228,5255.462188,5477.523971,-1915.238745
111.691549,6143.709319,8438.347739,-2068.457845
111.691870,6513.812290,10584.944971,-689.485948
111.692190,6069.688724,11991.336260,1072.533697
111.692511,5403.503377,10732.986159,383.047749
111.692832,4737.318029,8586.388927,0.000000
111.693153,4071.132681,6439.791695,383.047749
111.693473,3701.029710,5551.544565,842.705048
111.693794,2220.617826,5403.503377,-153.219100
111.694115,2960.823768,7105.977043,-1762.019645
111.694436,4219.173869,9400.615463,-1608.800546
111.694756,4589.276840,11695.253884,0.000000
111.695077,5329.482782,12953.603985,1225.752797
111.695398,4367.215058,11769.274478,1149.143247
111.695719,3923.091493,9474.636058,-229.828649
111.696040,3552.988522,7031.956449,-153.219100
111.696360,3627.009116,4811.338623,536.266849
111.696681,3256.906145,5033.400406,0.000000
111.697002,3849.070898,6439.791695,-1762.019645
111.697323,4811.338623,8956.491898,-1378.971896
111.697643,5551.544565,11769.274478,76.609550
111.697964,5551.544565,12953.603985,919.314598
111.698285,5699.585753,11621.233289,0.000000
111.698606,5255.462188,8882.471304,-766.095498
111.698926,4811.338623,5995.668130,-306.438199
111.699247,4515.256246,4589.276840,229.828649
111.699568,3034.844362,4293.194464,-1072.533697
111.699889,3701.029710,6439.791695,-1685.410096
111.700209,4959.379811,9622.677246,-1149.143247
111.700530,5551.544565,11621.233289,612.876398
111.700851,5329.482782,11621.233289,766.095498
111.701172,5329.482782,9474.636058,766.095498
111.701493,5181.441594,7254.018232,383.047749
111.701813,5255.462188,5033.400406,1072.533697
111.702134,4737.318029,3330.926739,766.095498
111.702455,4737.318029,3923.091493,-1225.752797
111.702776,5403.503377,6291.750507,-1991.848295
111.703096,6439.791695,9326.594869,-995.924147
111.703417,7179.997637,10510.924376,153.219100
111.703738,6809.894666,10807.006753,383.047749
111.704059,6587.832884,9474.636058,306.438199
111.704379,6587.832884,7105.977043,-229.828649
111.704700,5699.585753,4737.318029,153.219100
111.705021,4663.297435,4071.132681,-306.438199
111.705342,4367.215058,4663.297435,-1302.362347
111.705662,4663.297435,6587.832884,-1991.848295
111.705983,5551.544565,8438.347739,-1302.362347
111.706304,5921.647536,10807.006753,306.438199
111.706625,5847.626942,10807.006753,1762.019645
111.706946,5699.585753,9992.780217,459.657299
111.707266,5551.544565,6957.935855,0.000000
111.707587,4885.359217,5107.421000,383.047749
111.707908,4589.276840,5107.421000,306.438199
111.708229,4145.153275,5847.626942,-1302.362347
111.708549,3849.070898,7328.038826,-2451.505594
111.708870,5773.606348,9400.615463,-1608.800546
111.709191,6069.688724,11547.212695,0.000000
111.709512,5033.400406,12139.377449,612.876398
111.709832,4737.318029,11103.089130,0.000000
111.710153,4737.318029,9622.677246,0.000000
111.710474,4145.153275,6439.791695,766.095498
111.710795,4293.194464,5033.400406,612.876398
111.711115,3182.885551,5921.647536,-1225.752797
111.711436,1998.556043,7624.121203,-2757.943793
111.711757,3701.029710,10362.883188,-306.438199
111.712078,4737.318029,12805.562797,1762.019645
111.712399,4737.318029,12435.459826,1838.629195
111.712719,4811.338623,10362.883188,842.705048
111.713040,3923.091493,8512.368333,-766.095498
111.713361,3034.844362,7105.977043,-459.657299
111.713682,2886.803174,5847.626942,-229.828649
111.714002,3627.009116,5033.400406,-1762.019645
111.714323,4367.215058,6513.812290,-1608.800546
111.714644,5181.441594,10288.862594,229.828649
111.714965,5329.482782,13175.665768,689.485948
111.715285,5107.421000,12879.583391,153.219100
111.715606,5995.668130,10584.944971,-842.705048
111.715927,6217.729913,6809.894666,-842.705048
111.716248,5033.400406,3923.091493,919.314598
111.716568,4293.194464,3404.947333,459.657299
111.716889,3034.844362,4737.318029,-1915.238745
111.717210,4737.318029,7772.162391,-1991.848295
111.717531,6513.812290,9992.780217,-689.485948
111.717852,7031.956449,11251.130318,766.095498
111.718172,6513.812290,10807.006753,1149.143247
111.718493,5773.606348,9474.636058,1378.971896
111.718814,5033.400406,7328.038826,76.609550
111.719135,4737.318029,3997.112087,76.609550
111.719455,5033.400406,2442.679609,0.000000
111.719776,4515.256246,3775.050304,-1378.971896
111.720097,4885.359217,7772.162391,-1838.629195
111.720418,5847.626942,11325.150913,-76.609550
111.720738,6291.750507,12953.603985,459.657299
111.721059,6069.688724,11695.253884,612.876398
111.721380,6513.812290,7994.224174,766.095498
111.721701,5773.606348,5625.565159,689.485948
111.722021,4367.215058,4441.235652,689.485948
111.722342,3182.885551,4071.132681,76.609550
111.722663,3923.091493,5107.421000,-1378.971896
111.722984,5107.421000,7624.121203,-1302.362347
111.723304,6587.832884,10288.862594,459.657299
111.723625,6661.853478,11695.253884,919.314598
111.723946,6143.709319,11103.089130,229.828649
111.724267,5403.503377,8734.430116,-536.266849
111.724587,4959.379811,6143.709319,0.000000
111.724908,5551.544565,3997.112087,995.924147
111.725229,5329.482782,4367.215058,536.266849
111.725550,4663.297435,6735.874072,-2145.067394
111.725870,4219.173869,8808.450710,-3064.381992
111.726191,5033.400406,11177.109724,-1072.533697
111.726512,5329.482782,12509.480420,1225.752797
111.726833,5403.503377,11399.171507,1838.629195
111.727153,4737.318029,9178.553681,459.657299
111.727474,4219.173869,6513.812290,-842.705048
111.727795,3034.844362,4811.338623,-383.047749
111.728116,2664.741391,5255.462188,-383.047749
111.728436,3034.844362,6735.874072,-995.924147
111.728757,4145.153275,9104.533087,-76.609550
111.729078,5403.503377,11473.192101,459.657299
111.729399,4959.379811,11991.336260,995.924147
111.729719,4293.194464,10584.944971,459.657299
111.730040,5107.421000,7772.162391,-306.438199
111.730361,4885.359217,5255.462188,153.219100
111.730681,4885.359217,4589.276840,153.219100
111.731002,4515.256246,5255.462188,-1378.971896
111.731323,4071.132681,7179.997637,-2451.505594
111.731644,5551.544565,9326.594869,-1378.971896
111.731964,6661.853478,10881.027347,383.047749
111.732285,6587.832884,11399.171507,1225.752797
111.732606,5921.647536,10140.821405,229.828649
111.732927,5255.462188,8142.265362,-383.047749
111.733247,5255.462188,5699.585753,-306.438199
111.733568,4219.173869,4737.318029,-306.438199
111.733889,3923.091493,4663.297435,-1225.752797
111.734210,4293.194464,6735.874072,-1762.019645
111.734530,5255.462188,9474.636058,-689.485948
111.734851,5255.462188,12287.418637,383.047749
111.735172,5403.503377,11917.315666,1455.581446
111.735493,5033.400406,10584.944971,229.828649
111.735813,4885.359217,8586.388927,153.219100
111.736134,4737.318029,6069.688724,0.000000
111.736455,4441.235652,5033.400406,76.609550
111.736776,3478.967927,4959.379811,-766.095498
111.737096,3775.050304,6957.935855,-995.924147
111.737417,4885.359217,9474.636058,-76.609550
111.737738,5773.606348,11769.274478,306.438199
111.738059,6069.688724,12953.603985,995.924147
111.738379,5551.544565,11103.089130,459.657299
111.738700,5033.400406,7328.038826,306.438199
111.739021,4959.379811,4737.318029,153.219100
111.739342,4145.153275,4293.194464,306.438199
111.739662,3552.988522,5255.462188,-919.314598
111.739983,4885.359217,7179.997637,-1532.190996
111.740304,5551.544565,9400.615463,-612.876398
111.740625,5921.647536,11103.089130,919.314598
111.740945,6069.688724,11399.171507,1149.143247
111.741266,5847.626942,9992.780217,229.828649
111.741587,5773.606348,7772.162391,-229.828649
111.741908,5033.400406,5255.462188,0.000000
111.742228,4515.256246,4071.132681,-536.266849
111.742549,4441.235652,5033.400406,-1149.143247
111.742870,4441.235652,7179.997637,-766.095498
111.743191,5033.400406,9326.594869,76.609550
111.743511,6809.894666,11029.068536,612.876398
111.743832,6735.874072,11399.171507,766.095498
111.744153,4811.338623,8586.388927,306.438199
111.744474,5255.462188,6143.709319,76.609550
111.744794,4811.338623,4663.297435,1072.533697
111.745115,3701.029710,3775.050304,0.000000
111.745436,4811.338623,4663.297435,-1225.752797
111.745757,5255.462188,7402.059420,-1378.971896
111.746077,5033.400406,10066.800811,-1072.533697
111.746398,6291.750507,11547.212695,229.828649
111.746719,6439.791695,10807.006753,459.657299
111.747040,6365.771101,8364.327145,229.828649
111.747360,5847.626942,6291.750507,612.876398
111.747681,5181.441594,5403.503377,153.219100
111.748002,3923.091493,5033.400406,-842.705048
111.748323,3552.988522,5995.668130,-1991.848295
111.748643,5181.441594,7624.121203,-2221.676944
111.748964,6587.832884,9844.739029,-153.219100
111.749285,6291.750507,11769.274478,383.047749
111.749606,5847.626942,12287.418637,-76.609550
111.749926,5033.400406,10362.883188,-383.047749
111.750247,4737.318029,7624.121203,0.000000
111.750568,4441.235652,5625.565159,383.047749
111.750889,4367.215058,4959.379811,383.047749
111.751209,3775.050304,6143.709319,-536.266849
111.751530,3701.029710,7476.080014,-1225.752797
111.751851,4515.256246,10288.862594,-459.657299
111.752172,5255.462188,12065.356855,153.219100
111.752492,5551.544565,11843.295072,153.219100
111.752813,6291.750507,10066.800811,153.219100
111.753134,5625.565159,7920.203579,612.876398
111.753454,4441.235652,5921.647536,153.219100
111.753775,3701.029710,4811.338623,-306.438199
111.754096,3552.988522,6587.832884,-1762.019645
111.754417,4737.318029,8512.368333,-1072.533697
111.754737,5699.585753,10732.986159,-153.219100
111.755058,5847.626942,12583.501014,229.828649
111.755379,5329.482782,12287.418637,153.219100
111.755700,3997.112087,9548.656652,0.000000
111.756020,3997.112087,6661.853478,459.657299
111.756341,4071.132681,4737.318029,1455.581446
111.756662,3330.926739,4663.297435,0.000000
111.756983,3182.885551,6365.771101,-995.924147
111.757303,4367.215058,9178.553681,-612.876398
111.757624,5255.462188,11251.130318,-306.438199
111.757945,6513.812290,11843.295072,919.314598
111.758266,6587.832884,10140.821405,383.047749
111.758586,5921.647536,7698.141797,-229.828649
111.758907,5033.400406,5181.441594,153.219100
111.759228,4071.132681,3775.050304,0.000000
111.759549,4293.194464,3849.070898,-306.438199
111.759869,5181.441594,4885.359217,-842.705048
111.760190,6735.874072,7624.121203,-842.705048
111.760511,7179.997637,9992.780217,76.609550
111.760832,7328.038826,11177.109724,229.828649
111.761152,7179.997637,9400.615463,0.000000
111.761473,6069.688724,7105.977043,-383.047749
111.761794,5995.668130,4145.153275,306.438199
111.762115,5107.421000,2664.741391,995.924147
111.762435,4367.215058,2664.741391,0.000000
111.762756,5107.421000,5995.668130,-1915.238745
111.763077,5699.585753,8808.450710,-1915.238745
111.763398,6069.688724,11103.089130,-995.924147
111.763718,6883.915261,11547.212695,459.657299
111.764039,5921.647536,9992.780217,842.705048
111.764360,5329.482782,7846.182985,459.657299
111.764681,4589.276840,5699.585753,383.047749
111.765001,3552.988522,4367.215058,383.047749
111.765322,3478.967927,4737.318029,-612.876398
111.765643,4515.256246,7254.018232,-995.924147
111.765964,5699.585753,9696.697840,-766.095498
111.766284,5699.585753,12731.542202,153.219100
111.766605,5181.441594,12731.542202,0.000000
111.766926,5403.503377,10955.047942,76.609550
111.767247,5181.441594,8142.265362,612.876398
111.767567,4219.173869,5773.606348,1302.362347
111.767888,3182.885551,5033.400406,842.705048
111.768209,3034.844362,6587.832884,-766.095498
111.768530,3775.050304,9474.636058,-1608.800546
111.768850,4737.318029,11547.212695,-689.485948
111.769171,5625.565159,12731.542202,229.828649
111.769492,5181.441594,12805.562797,536.266849
111.769813,4367.215058,11103.089130,0.000000
111.770133,4145.153275,7846.182985,0.000000
111.770454,3627.009116,5403.503377,995.924147
111.770775,2960.823768,4367.215058,536.266849
111.771096,3256.906145,5625.565159,-919.314598
111.771416,4293.194464,7920.203579,-1685.410096
111.771737,4959.379811,11029.068536,-1532.190996
111.772058,5773.606348,12879.583391,0.000000
111.772379,6217.729913,11843.295072,383.047749
111.772699,5773.606348,9770.718434,-76.609550
111.773020,5107.421000,7105.977043,0.000000
111.773341,5107.421000,3775.050304,0.000000
111.773662,3552.988522,3034.844362,0.000000
111.773982,4663.297435,4441.235652,-1072.533697
111.774303,4959.379811,7105.977043,-1455.581446
111.774624,6365.771101,9918.759623,-689.485948
111.774944,7402.059420,11103.089130,0.000000
111.775265,7105.977043,10140.821405,229.828649
111.775586,6735.874072,8290.306550,-229.828649
111.775907,5847.626942,5847.626942,-306.438199
111.776227,4663.297435,3256.906145,0.000000
111.776548,4811.338623,3034.844362,383.047749
111.776869,4441.235652,4959.379811,-919.314598
111.777190,4071.132681,7476.080014,-1685.410096
111.777510,6143.709319,10436.903782,-842.705048
111.777831,6957.935855,12065.356855,306.438199
111.778152,5181.441594,11177.109724,-229.828649
111.778473,5477.523971,8512.368333,0.000000
111.778793,5477.523971,6365.771101,0.000000
111.779114,3552.988522,4145.153275,842.705048
111.779435,3404.947333,4071.132681,1302.362347
111.779756,4219.173869,5699.585753,-459.657299
111.780076,4071.132681,7920.203579,-1991.848295
111.780397,5773.606348,11029.068536,689.485948
111.780718,6217.729913,12731.542202,689.485948
111.781039,5403.503377,11177.109724,-306.438199
111.781359,5329.482782,8586.388927,0.000000
111.781680,5625.565159,6883.915261,-153.219100
111.782001,4589.276840,5329.482782,383.047749
111.782322,3775.050304,5033.400406,153.219100
111.782642,4515.256246,6809.894666,-1532.190996
111.782963,5329.482782,9474.636058,-1991.848295
111.783284,6143.709319,12361.439231,153.219100
111.783605,5625.565159,13175.665768,766.095498
111.783925,5033.400406,11547.212695,-306.438199
111.784246,4737.318029,8808.450710,-689.485948
111.784567,3923.091493,5921.647536,229.828649
111.784888,3108.864956,4293.194464,1532.190996
111.785208,2590.720797,5699.585753,536.266849
111.785529,2590.720797,7846.182985,-1302.362347
111.785850,4071.132681,9548.656652,-995.924147
111.786171,5847.626942,10881.027347,153.219100
111.786491,6439.791695,11473.192101,612.876398
111.786812,5033.400406,10955.047942,306.438199
111.787133,4145.153275,9474.636058,-766.095498
111.787454,4515.256246,6143.709319,-153.219100
111.787774,4959.379811,4367.215058,919.314598
111.788095,4219.173869,4367.215058,1149.143247
111.788416,4145.153275,6439.791695,-1378.971896
111.788737,4441.235652,9030.512492,-1915.238745
111.789057,6439.791695,11991.336260,-1149.143247
111.789378,7254.018232,12361.439231,612.876398
111.789699,6365.771101,9622.677246,153.219100
111.790020,6069.688724,7031.956449,-995.924147
111.790340,4441.235652,5181.441594,-306.438199
111.790661,3775.050304,3849.070898,1225.752797
111.790982,4071.132681,4145.153275,1225.752797
111.791303,4959.379811,5921.647536,-995.924147
111.791623,5995.668130,8808.450710,-2068.457845
111.791944,7179.997637,11547.212695,-842.705048
111.792265,5995.668130,11843.295072,-153.219100
111.792586,5181.441594,10362.883188,-383.047749
111.792906,5773.606348,7476.080014,76.609550
111.793227,5329.482782,5107.421000,689.485948
111.793548,4293.194464,3997.112087,1532.190996
111.793869,3478.967927,4589.276840,306.438199
111.794189,4589.276840,7105.977043,-2068.457845
111.794510,5181.441594,9696.697840,-1991.848295
111.794831,6217.729913,12583.501014,0.000000
111.795152,6143.709319,12805.562797,536.266849
111.795472,4885.359217,10140.821405,459.657299
111.795793,4441.235652,7105.977043,0.000000
111.796114,4367.215058,4885.359217,919.314598
111.796435,2590.720797,4219.173869,1302.362347
111.796755,3404.947333,5847.626942,0.000000
111.797076,4441.235652,8142.265362,-1838.629195
111.797397,4737.318029,10955.047942,-1225.752797
111.797717,5995.668130,12879.583391,842.705048
111.798038,5921.647536,12065.356855,689.485948
111.798359,4737.318029,9844.739029,-229.828649
111.798680,5181.441594,7105.977043,306.438199
111.799000,4885.359217,3997.112087,842.705048
111.799321,3552.988522,3552.988522,689.485948
111.799642,3701.029710,6143.709319,-766.095498
111.799963,4219.173869,9030.512492,-1991.848295
111.800283,5625.565159,10955.047942,-2221.676944
111.800604,6957.935855,11843.295072,153.219100
111.800925,6957.935855,11621.233289,1378.971896
111.801246,5255.462188,9844.739029,459.657299
111.801566,3849.070898,6661.853478,-306.438199
111.801887,3997.112087,3923.091493,-306.438199
111.802208,4737.318029,3775.050304,383.047749
111.802529,4367.215058,5699.585753,612.876398
111.802849,4663.297435,8364.327145,-1838.629195
111.803170,5033.400406,10510.924376,-1378.971896
111.803491,5477.523971,12139.377449,689.485948
111.803812,5847.626942,10881.027347,1608.800546
111.804132,5477.523971,8290.306550,76.609550
111.804453,5107.421000,6217.729913,-536.266849
111.804774,4145.153275,4811.338623,0.000000
111.805095,3997.112087,4515.256246,153.219100
111.805415,4515.256246,5773.606348,-1608.800546
111.805736,5773.606348,8364.327145,-1991.848295
111.806057,6957.935855,10658.965565,-153.219100
111.806378,6735.874072,11917.315666,229.828649
111.806698,5403.503377,10584.944971,459.657299
111.807019,5773.606348,8142.265362,0.000000
111.807340,5477.523971,6069.688724,76.609550
111.807661,4441.235652,4441.235652,536.266849
111.807981,4219.173869,4589.276840,-153.219100
111.808302,4515.256246,6513.812290,-1608.800546
111.808623,5181.441594,8290.306550,-1838.629195
111.808944,6809.894666,10732.986159,459.657299
111.809264,6217.729913,11177.109724,1225.752797
111.809585,5477.523971,10214.842000,383.047749
111.809906,5033.400406,9178.553681,0.000000
111.810227,4885.359217,7031.956449,-383.047749
111.810547,4071.132681,4737.318029,383.047749
111.810868,4071.132681,4515.256246,0.000000
111.811189,3701.029710,6735.874072,-1378.971896
111.811510,4515.256246,9400.615463,-1455.581446
111.811830,5551.544565,11621.233289,689.485948
111.812151,5773.606348,12583.501014,76.609550
111.812472,5255.462188,11473.192101,689.485948
111.812793,4959.379811,9104.533087,0.000000
111.813113,3627.009116,5773.606348,0.000000
111.813434,3775.050304,3701.029710,842.705048
111.813755,3923.091493,4441.235652,536.266849
111.814076,4219.173869,6513.812290,-842.705048
111.814396,4959.379811,9326.594869,-1225.752797
111.814717,6513.812290,11547.212695,-766.095498
111.815038,7105.977043,11991.336260,0.000000
111.815359,6809.894666,10436.903782,1225.752797
111.815679,6143.709319,8660.409521,229.828649
111.816000,4885.359217,5033.400406,0.000000
111.816321,4293.194464,3256.906145,306.438199
111.816642,5181.441594,4367.215058,306.438199
111.816962,4737.318029,6883.915261,-1608.800546
111.817283,5255.462188,9548.656652,-2145.067394
111.817604,6291.750507,11917.315666,-766.095498
111.817925,5181.441594,12139.377449,766.095498
111.818245,4219.173869,10288.862594,1378.971896
111.818566,4367.215058,6957.935855,383.047749
111.818887,3627.009116,4811.338623,153.219100
111.819207,3404.947333,4515.256246,995.924147
111.819528,2590.720797,5107.421000,-383.047749
111.819849,3849.070898,6809.894666,-2298.286494
111.820170,5699.585753,9474.636058,-383.047749
111.820490,5921.647536,12731.542202,1302.362347
111.820811,4959.379811,12435.459826,842.705048
111.821132,4367.215058,9992.780217,-229.828649
111.821453,4737.318029,7550.100608,0.000000
111.821773,5033.400406,5995.668130,689.485948
111.822094,3182.885551,4737.318029,766.095498
111.822415,3478.967927,5403.503377,-919.314598
111.822736,4737.318029,7772.162391,-1991.848295
111.823055,5477.523971,10362.883188,-842.705048
111.823376,5847.626942,11843.295072,536.266849
111.823697,5477.523971,11251.130318,1072.533697
111.824018,4811.338623,9918.759623,766.095498
111.824338,5033.400406,7031.956449,1149.143247
111.824659,5329.482782,4145.153275,536.266849
111.824980,4737.318029,4145.153275,-306.438199
111.825301,5033.400406,5995.668130,-1762.019645
111.825622,5329.482782,7772.162391,-1838.629195
111.825943,6069.688724,9252.574275,-1532.190996
111.826264,7476.080014,9844.739029,612.876398
111.826584,8512.368333,10510.924376,1378.971896
111.826905,6735.874072,9030.512492,383.047749
111.827226,5921.647536,6883.915261,-689.485948
111.827547,5921.647536,4663.297435,-689.485948
111.827868,5847.626942,3849.070898,-842.705048
111.828189,5551.544565,5329.482782,-1149.143247
111.828510,5551.544565,7476.080014,-1225.752797
111.828830,5995.668130,9548.656652,-1225.752797
111.829151,6735.874072,11251.130318,536.266849
111.829472,6513.812290,11621.233289,766.095498
111.829793,5255.462188,8956.491898,153.219100
111.830114,4811.338623,7031.956449,229.828649
111.830435,4145.153275,5551.544565,383.047749
111.830756,3923.091493,4959.379811,383.047749
111.831076,3627.009116,5773.606348,0.000000
111.831397,4367.215058,7550.100608,-1225.752797
111.831718,4811.338623,10214.842000,229.828649
111.832039,4885.359217,12065.356855,919.314598
111.832360,4959.379811,11695.253884,689.485948
111.832681,4885.359217,8956.491898,153.219100
111.833002,4959.379811,6735.874072,0.000000
111.833322,4441.235652,5033.400406,229.828649
111.833643,3552.988522,4959.379811,0.000000
111.833964,3923.091493,6883.915261,-1608.800546
111.834285,4811.338623,8438.347739,-2068.457845
111.834606,6069.688724,10807.006753,-536.266849
111.834927,6365.771101,12139.377449,459.657299
111.835248,5403.503377,11399.171507,0.000000
111.835568,4737.318029,9844.739029,-612.876398
111.835889,4367.215058,6735.874072,-306.438199
111.836210,3552.988522,4293.194464,306.438199
111.836531,2886.803174,4293.194464,153.219100
111.836852,3404.947333,5625.565159,-766.095498
111.837173,4071.132681,8512.368333,-306.438199
111.837494,5181.441594,11547.212695,306.438199
111.837814,5625.565159,12287.418637,306.438199
111.838135,5699.585753,11177.109724,76.609550
111.838456,4663.297435,9400.615463,76.609550
111.838777,3997.112087,6291.750507,-76.609550
111.839098,4219.173869,4515.256246,612.876398
111.839419,3552.988522,4737.318029,-153.219100
111.839740,4071.132681,6587.832884,-1302.362347
111.840060,4959.379811,9622.677246,-1532.190996
111.840381,6587.832884,11843.295072,-383.047749
111.840702,5477.523971,12805.562797,-306.438199
111.841023,4959.379811,10881.027347,76.609550
111.841344,5625.565159,7846.182985,76.609550
111.841665,5181.441594,4885.359217,536.266849
111.841986,4441.235652,3627.009116,1532.190996
111.842306,3849.070898,4589.276840,0.000000
111.842627,4293.194464,6513.812290,-1915.238745
111.842948,5551.544565,9104.533087,-1762.019645
111.843269,7179.997637,11251.130318,229.828649
111.843590,7328.038826,11473.192101,689.485948
111.843911,6513.812290,9918.759623,766.095498
111.844231,5625.565159,7031.956449,76.609550
111.844552,5033.400406,4959.379811,153.219100
111.844873,4811.338623,3775.050304,383.047749
111.845194,5773.606348,4589.276840,-229.828649
111.845515,6143.709319,6735.874072,-1991.848295
111.845836,6439.791695,9178.553681,-2221.676944
111.846157,6661.853478,10658.965565,-536.266849
111.846477,6735.874072,10955.047942,1302.362347
111.846798,6291.750507,9178.553681,1455.581446
111.847119,6069.688724,6365.771101,536.266849
111.847440,4885.359217,3997.112087,0.000000
111.847761,4737.318029,4441.235652,0.000000
111.848082,4811.338623,5921.647536,-1149.143247
111.848403,4885.359217,7179.997637,-2451.505594
111.848723,6809.894666,8808.450710,-1762.019645
111.849044,7179.997637,10807.006753,612.876398
111.849365,5773.606348,11103.089130,1225.752797
111.849686,4663.297435,9918.759623,459.657299
111.850007,4515.256246,8290.306550,0.000000
111.850328,4071.132681,5921.647536,229.828649
111.850649,4441.235652,4811.338623,612.876398
111.850969,3701.029710,5551.544565,-842.705048
111.851290,3256.906145,7624.121203,-2298.286494
111.851611,4071.132681,10510.924376,-612.876398
111.851932,4293.194464,12065.356855,766.095498
111.852253,5107.421000,12065.356855,1532.190996
111.852574,4737.318029,10658.965565,1149.143247
111.852895,4071.132681,8660.409521,0.000000
111.853215,2886.803174,6069.688724,383.047749
111.853536,2664.741391,5033.400406,306.438199
111.853857,3108.864956,6069.688724,-1302.362347
111.854178,3849.070898,8068.244768,-1991.848295
111.854499,5329.482782,10584.944971,-766.095498
111.854820,5625.565159,12879.583391,689.485948
111.855141,4959.379811,12805.562797,919.314598
111.855461,4959.379811,10140.821405,0.000000
111.855782,4663.297435,7254.018232,-842.705048
111.856103,3997.112087,5107.421000,689.485948
111.856424,4811.338623,4145.153275,919.314598
111.856745,4515.256246,5255.462188,-842.705048
111.857066,4663.297435,8216.285956,-2451.505594
111.857387,5773.606348,11029.068536,-612.876398
111.857707,6513.812290,12213.398043,689.485948
111.858028,5921.647536,11621.233289,995.924147
111.858349,5699.585753,8882.471304,536.266849
111.858670,5329.482782,5995.668130,0.000000
111.858991,4441.235652,3775.050304,536.266849
111.859312,3701.029710,3775.050304,229.828649
111.859633,4145.153275,5329.482782,-995.924147
111.859953,5625.565159,7772.162391,-1455.581446
111.860274,6513.812290,10732.986159,153.219100
111.860595,6735.874072,11621.233289,919.314598
111.860916,5625.565159,10288.862594,306.438199
111.861237,5699.585753,7994.224174,0.000000
111.861558,5255.462188,5551.544565,306.438199
111.861879,5181.441594,3330.926739,919.314598
111.862199,5033.400406,3404.947333,153.219100
111.862520,5181.441594,5699.585753,-1915.238745
111.862841,5773.606348,8364.327145,-2604.724693
111.863162,6957.935855,10658.965565,-766.095498
111.863483,6735.874072,11769.274478,689.485948
111.863804,6069.688724,10510.924376,1455.581446
111.864125,5329.482782,8142.265362,612.876398
111.864445,4589.276840,5551.544565,0.000000
111.864766,3552.988522,4293.194464,459.657299
111.865087,3256.906145,5033.400406,0.000000
111.865408,4145.153275,6439.791695,-2221.676944
111.865729,4737.318029,8364.327145,-1838.629195
111.866050,5773.606348,10732.986159,0.000000
111.866371,5847.626942,12213.398043,1225.752797
111.866691,4959.379811,11399.171507,1149.143247
111.867012,3923.091493,9474.636058,-306.438199
111.867333,4145.153275,6143.709319,-153.219100
111.867654,4663.297435,4663.297435,459.657299
111.867975,4219.173869,5033.400406,-76.609550
111.868296,3849.070898,7254.018232,-2221.676944
111.868617,4145.153275,10066.800811,-2604.724693
111.868937,5255.462188,12361.439231,-689.485948
111.869258,5255.462188,12583.501014,1072.533697
111.869579,4737.318029,11177.109724,1149.143247
111.869900,4589.276840,8734.430116,995.924147
111.870221,3034.844362,6143.709319,536.266849
111.870542,3404.947333,5181.441594,1072.533697
111.870863,3478.967927,5625.565159,-229.828649
111.871183,3775.050304,7328.038826,-1915.238745
111.871504,4737.318029,9770.718434,-2068.457845
111.871825,6439.791695,12213.398043,153.219100
111.872146,5995.668130,12509.480420,1378.971896
111.872467,4885.359217,10510.924376,689.485948
111.872788,5255.462188,7402.059420,-153.219100
111.873109,4589.276840,5847.626942,0.000000
111.873429,4219.173869,5107.421000,689.485948
111.873750,4367.215058,5995.668130,-689.485948
111.874071,5403.503377,7550.100608,-2528.115143
111.874392,6143.709319,9400.615463,-1915.238745
111.874713,6439.791695,11473.192101,612.876398
111.875034,6217.729913,11325.150913,1762.019645
111.875355,5181.441594,9696.697840,1455.581446
111.875675,4663.297435,7476.080014,612.876398
111.875996,3997.112087,4959.379811,306.438199
111.876317,4145.153275,4071.132681,536.266849
111.876638,4589.276840,5329.482782,-842.705048
111.876959,5181.441594,7105.977043,-1762.019645
111.877280,5921.647536,9104.533087,-689.485948
111.877601,5773.606348,10584.944971,1225.752797
111.877921,5551.544565,10881.027347,1225.752797
111.878242,4737.318029,9400.615463,995.924147
111.878563,4811.338623,6661.853478,536.266849
111.878884,5329.482782,4515.256246,919.314598
111.879205,4737.318029,4737.318029,612.876398
111.879526,4589.276840,5477.523971,-1608.800546
111.879847,4959.379811,6513.812290,-2528.115143
111.880167,6365.771101,8808.450710,-1225.752797
111.880488,6587.832884,10288.862594,689.485948
111.880809,6513.812290,10510.924376,1455.581446
111.881130,5847.626942,9474.636058,306.438199
111.881451,5181.441594,7179.997637,-306.438199
111.881772,4589.276840,4737.318029,76.609550
111.882093,5033.400406,3552.988522,306.438199
111.882413,4293.194464,4811.338623,-1532.190996
111.882734,4367.215058,7254.018232,-2528.115143
111.883055,5477.523971,9918.759623,-1685.410096
111.883376,6143.709319,11843.295072,383.047749
111.883697,5551.544565,11695.253884,766.095498
111.884018,5107.421000,9992.780217,536.266849
111.884339,4071.132681,7105.977043,-306.438199
111.884659,3478.967927,5329.482782,306.438199
111.884980,3108.864956,5477.523971,842.705048
111.885301,3330.926739,6587.832884,-1149.143247
111.885622,4219.173869,8586.388927,-1915.238745
111.885943,5033.400406,10584.944971,-1225.752797
111.886264,5699.585753,12657.521608,229.828649
111.886585,5107.421000,12361.439231,1378.971896
111.886905,4441.235652,10584.944971,383.047749
111.887226,3923.091493,7920.203579,0.000000
111.887547,3997.112087,5329.482782,689.485948
111.887868,4071.132681,5107.421000,689.485948
111.888189,3923.091493,6439.791695,-1455.581446
111.888510,5033.400406,8586.388927,-2528.115143
111.888831,5995.668130,11029.068536,-1225.752797
111.889151,5847.626942,11843.295072,842.705048
111.889472,5329.482782,11177.109724,1302.362347
111.889793,5847.626942,9400.615463,383.047749
111.890114,4737.318029,6883.915261,0.000000
111.890435,4663.297435,5033.400406,0.000000
111.890756,4293.194464,4515.256246,-153.219100
111.891077,4589.276840,5921.647536,-2145.067394
111.891397,5625.565159,8216.285956,-2374.896044
111.891718,5995.668130,10510.924376,-459.657299
111.892039,5625.565159,12065.356855,612.876398
111.892360,5107.421000,11547.212695,995.924147
111.892681,4885.359217,9252.574275,306.438199
111.893002,4293.194464,6069.688724,76.609550
111.893323,3775.050304,4293.194464,1072.533697
111.893643,3182.885551,4737.318029,0.000000
111.893964,3552.988522,6513.812290,-1149.143247
111.894285,4441.235652,8660.409521,-1149.143247
111.894606,5403.503377,11103.089130,0.000000
111.894927,4885.359217,11251.130318,1149.143247
111.895248,5107.421000,9770.718434,1225.752797
111.895569,5255.462188,7402.059420,1072.533697
111.895889,5403.503377,5181.441594,612.876398
111.896210,4589.276840,3701.029710,306.438199
111.896531,5033.400406,4367.215058,-995.924147
111.896852,5107.421000,6069.688724,-2528.115143
111.897173,6217.729913,8586.388927,-1762.019645
111.897494,7031.956449,9918.759623,76.609550
111.897815,7031.956449,11029.068536,919.314598
111.898135,6513.812290,10362.883188,766.095498
111.898456,5107.421000,8216.285956,-76.609550
111.898777,4663.297435,4663.297435,76.609550
111.899098,4589.276840,3997.112087,0.000000
111.899419,4811.338623,4885.359217,-612.876398
111.899740,4885.359217,6809.894666,-1532.190996
111.900061,6069.688724,8068.244768,-1532.190996
111.900381,6661.853478,9992.780217,-459.657299
111.900702,6217.729913,10658.965565,1685.410096
111.901023,5625.565159,10362.883188,1532.190996
111.901344,5255.462188,8364.327145,383.047749
111.901665,4811.338623,5847.626942,0.000000
111.901986,6143.709319,4811.338623,229.828649
111.902307,4737.318029,5181.441594,-1072.533697
111.902627,4663.297435,6069.688724,-2221.676944
111.902948,5477.523971,8956.491898,-1762.019645
111.903269,6069.688724,11251.130318,153.219100
111.903590,6217.729913,12287.418637,1991.848295
111.903911,5477.523971,11843.295072,1455.581446
111.904232,4737.318029,8512.368333,-459.657299
111.904553,4071.132681,6439.791695,-306.438199
111.904873,3404.947333,5033.400406,919.314598
111.905194,3627.009116,5847.626942,-306.438199
111.905515,3923.091493,7031.956449,-1838.629195
111.905836,4663.297435,8808.450710,-1302.362347
111.906157,5255.462188,11177.109724,153.219100
111.906478,4663.297435,11991.336260,995.924147
111.906798,4145.153275,11251.130318,0.000000
111.907119,4367.215058,8882.471304,-459.657299
111.907440,4589.276840,6513.812290,0.000000
111.907761,4071.132681,5477.523971,229.828649
111.908082,3701.029710,5625.565159,-689.485948
111.908403,3775.050304,7402.059420,-2604.724693
111.908724,4885.359217,9918.759623,-1915.238745
111.909044,4885.359217,11695.253884,0.000000
111.909365,5625.565159,12139.377449,536.266849
111.909686,4959.379811,10362.883188,612.876398
111.910007,3849.070898,7772.162391,459.657299
111.910328,3552.988522,5181.441594,1225.752797
111.910649,2886.803174,4885.359217,766.095498
111.910970,3404.947333,5625.565159,-536.266849
111.911290,4515.256246,7328.038826,-1455.581446
111.911611,5699.585753,9252.574275,-995.924147
111.911932,5477.523971,11103.089130,766.095498
111.912253,4737.318029,11695.253884,766.095498
111.912574,5033.400406,10584.944971,76.609550
111.912895,4811.338623,7105.977043,-153.219100
111.913216,4737.318029,4145.153275,536.266849
111.913536,5921.647536,4071.132681,229.828649
111.913857,5699.585753,5847.626942,-995.924147
111.914178,5181.441594,7550.100608,-2834.553343
111.914499,6513.812290,9696.697840,-2221.676944
111.914820,7550.100608,11177.109724,229.828649
111.915141,7105.977043,11177.109724,1685.410096
111.915462,6735.874072,8956.491898,1072.533697
111.915782,5329.482782,5995.668130,-306.438199
111.916103,4737.318029,4367.215058,229.828649
111.916424,4811.338623,4441.235652,995.924147
111.916745,5181.441594,5551.544565,-229.828649
111.917066,5551.544565,7105.977043,-1149.143247
111.917387,6217.729913,9252.574275,-612.876398
111.917708,6217.729913,10732.986159,612.876398
111.918028,6069.688724,10807.006753,1149.143247
111.918349,5847.626942,8512.368333,1149.143247
111.918670,5847.626942,6365.771101,-229.828649
111.918991,5033.400406,4145.153275,153.219100
111.919312,4885.359217,4071.132681,383.047749
111.919633,4737.318029,5625.565159,-1149.143247
111.919954,5107.421000,7994.224174,-1915.238745
111.920274,5995.668130,10436.903782,-1225.752797
111.920595,5995.668130,12139.377449,-306.438199
111.920916,5551.544565,11695.253884,0.000000
111.921237,4811.338623,9548.656652,306.438199
111.921558,4811.338623,6217.729913,536.266849
111.921879,3330.926739,4367.215058,689.485948
111.922200,3108.864956,4441.235652,536.266849
111.922520,3849.070898,5847.626942,-1149.143247
111.922841,3923.091493,7772.162391,-2145.067394
111.923162,5477.523971,10436.903782,-919.314598
111.923483,5921.647536,11547.212695,306.438199
111.923804,5181.441594,11325.150913,383.047749
111.924125,5255.462188,9400.615463,-383.047749
111.924445,5329.482782,7254.018232,-383.047749
111.924766,4441.235652,5329.482782,0.000000
111.925087,3775.050304,5181.441594,153.219100
111.925408,3775.050304,6365.771101,-1149.143247
111.925729,4811.338623,8586.388927,-2451.505594
111.926050,5921.647536,11547.212695,-1149.143247
111.926370,5699.585753,12731.542202,689.485948
111.926691,5033.400406,11843.295072,612.876398
111.927012,4811.338623,9178.553681,383.047749
111.927333,3552.988522,6587.832884,459.657299
111.927654,2664.741391,5255.462188,1302.362347
111.927975,3108.864956,5329.482782,689.485948
111.928295,3552.988522,6735.874072,-1225.752797
111.928616,4663.297435,8364.327145,-1225.752797
111.928937,5921.647536,10362.883188,-229.828649
111.929258,6661.853478,11473.192101,536.266849
111.929579,5699.585753,10732.986159,689.485948
111.929899,5625.565159,9474.636058,0.000000
111.930220,5477.523971,6365.771101,0.000000
111.930541,5329.482782,4219.173869,995.924147
111.930862,4589.276840,3849.070898,153.219100
111.931183,4589.276840,5625.565159,-1762.019645
111.931504,5255.462188,8216.285956,-2911.162892
111.931824,6587.832884,10732.986159,-1532.190996
111.932145,7031.956449,11917.315666,612.876398
111.932466,7031.956449,10955.047942,689.485948
111.932787,5477.523971,9104.533087,-383.047749
111.933108,3478.967927,6291.750507,-306.438199
111.933429,3627.009116,3701.029710,1838.629195
111.933749,4367.215058,3256.906145,2068.457845
111.934070,4441.235652,4515.256246,-842.705048
111.934391,4071.132681,7920.203579,-2604.724693
111.934712,5255.462188,11473.192101,-1608.800546
111.935033,5477.523971,13027.624579,-229.828649
111.935354,5403.503377,11177.109724,383.047749
111.935674,7254.018232,7105.977043,766.095498
111.935995,6587.832884,4663.297435,919.314598
111.936316,4663.297435,3108.864956,1608.800546
111.936637,3997.112087,3182.885551,842.705048
111.936958,6291.750507,4737.318029,-2068.457845
111.937279,7920.203579,7402.059420,-2451.505594
111.937599,9770.718434,10140.821405,-612.876398
111.937920,9252.574275,10658.965565,0.000000
111.938241,8808.450710,9030.512492,-229.828649
111.938562,8068.244768,6217.729913,-229.828649
111.938883,7920.203579,3627.009116,919.314598
111.939204,6883.915261,1850.514855,536.266849
111.939524,6513.812290,2590.720797,-689.485948
111.939845,6809.894666,5699.585753,-2221.676944
111.940166,7328.038826,9030.512492,-2451.505594
111.940487,7105.977043,11325.150913,-2145.067394
111.940808,6587.832884,12361.439231,-612.876398
111.941129,5625.565159,11991.336260,-229.828649
111.941449,3478.967927,9622.677246,-536.266849
111.941770,1924.535449,6439.791695,-306.438199
111.942091,1554.432478,5181.441594,1149.143247
111.942412,370.102971,6883.915261,459.657299
111.942733,-1036.288319,9622.677246,-1225.752797
111.943053,296.082377,13101.645173,-1608.800546
111.943374,1998.556043,16580.613101,0.000000
111.943695,0.000000,16802.674883,2068.457845
111.944016,-1480.411884,14285.974681,1302.362347
111.944337,-1480.411884,10658.965565,919.314598
111.944658,-1924.535449,7920.203579,2834.553343
111.944978,-1850.514855,8290.306550,2604.724693
111.945299,-2146.597232,9178.553681,689.485948
111.945620,-592.164754,10584.944971,-1991.848295
111.945941,888.247130,13027.624579,-1838.629195
111.946262,2590.720797,14656.077652,612.876398
111.946583,2738.761985,13619.789333,1608.800546
111.946903,3182.885551,11547.212695,1072.533697
111.947224,4219.173869,8586.388927,383.047749
111.947545,4293.194464,5921.647536,-153.219100
111.947866,4663.297435,4515.256246,306.438199
111.948187,4515.256246,4885.359217,-1915.238745
111.948508,5477.523971,6735.874072,-3140.991542
111.948828,7550.100608,8586.388927,-2451.505594
111.949149,8290.306550,10288.862594,-995.924147
111.949470,8364.327145,10362.883188,76.609550
111.949791,7920.203579,8734.430116,-306.438199
111.950112,7254.018232,5995.668130,-1149.143247
111.950433,7105.977043,3404.947333,76.609550
111.950753,6735.874072,2146.597232,1225.752797
111.951074,6365.771101,2442.679609,0.000000
111.951395,6217.729913,4145.153275,-1149.143247
111.951716,7328.038826,6735.874072,-689.485948
111.952037,7920.203579,8290.306550,536.266849
111.952358,8364.327145,8364.327145,1072.533697
111.952678,8956.491898,7031.956449,459.657299
111.952999,8364.327145,5107.421000,919.314598
111.953320,7624.121203,2886.803174,1838.629195
111.953641,7328.038826,1924.535449,1532.190996
111.953962,7031.956449,1998.556043,-536.266849
111.954282,7550.100608,4145.153275,-2298.286494
111.954603,9030.512492,7550.100608,-1608.800546
111.954924,10066.800811,9252.574275,383.047749
111.955245,9622.677246,9474.636058,689.485948
111.955566,9326.594869,7994.224174,0.000000
111.955887,8290.306550,6513.812290,-536.266849
111.956207,6735.874072,4811.338623,-383.047749
111.956528,5551.544565,3923.091493,-153.219100
111.956849,6439.791695,4441.235652,-1072.533697
111.957170,5625.565159,6513.812290,-2145.067394
111.957491,5625.565159,8734.430116,-1378.971896
111.957812,6809.894666,11695.253884,0.000000
111.958132,6143.709319,13027.624579,306.438199
111.958453,4737.318029,12435.459826,-995.924147
111.958774,4219.173869,8512.368333,-766.095498
111.959095,3701.029710,6291.750507,0.000000
111.959416,2220.617826,6217.729913,1302.362347
111.959737,740.205942,7179.997637,0.000000
111.960057,1776.494261,9696.697840,-2451.505594
111.960378,2664.741391,12657.521608,-1608.800546
111.960699,2886.803174,14804.118840,76.609550
111.961020,3034.844362,15544.324782,766.095498
111.961341,2368.659014,13175.665768,306.438199
111.961662,1406.391290,9400.615463,153.219100
111.961982,1184.329507,6143.709319,1762.019645
111.962303,888.247130,5403.503377,1762.019645
111.962624,296.082377,7105.977043,-612.876398
111.962945,1332.370696,10288.862594,-2451.505594
111.963266,3478.967927,13101.645173,-2221.676944
111.963587,4219.173869,14730.098246,-306.438199
111.963907,4367.215058,13101.645173,306.438199
111.964228,4367.215058,9844.739029,-153.219100
111.964549,3775.050304,7105.977043,0.000000
111.964870,2072.576638,5181.441594,153.219100
111.965191,2368.659014,4959.379811,-229.828649
111.965511,3552.988522,6143.709319,-2298.286494
111.965832,5625.565159,8586.388927,-2987.772442
111.966153,6735.874072,11325.150913,-1072.533697
111.966474,6513.812290,12065.356855,-76.609550
111.966795,5181.441594,11177.109724,306.438199
111.967116,5181.441594,8512.368333,919.314598
111.967436,4663.297435,4737.318029,766.095498
111.967757,4959.379811,3478.967927,1532.190996
111.968078,3849.070898,3256.906145,383.047749
111.968399,4737.318029,5255.462188,-1149.143247
111.968720,6291.750507,7698.141797,-1608.800546
111.969041,7031.956449,9548.656652,-229.828649
111.969361,6957.935855,10140.821405,1762.019645
111.969682,7772.162391,9474.636058,1532.190996
111.970003,7031.956449,7550.100608,919.314598
111.970324,6883.915261,4737.318029,1225.752797
111.970645,6587.832884,2442.679609,919.314598
111.970966,7105.977043,1924.535449,-383.047749
111.971286,6809.894666,3552.988522,-1762.019645
111.971607,7624.121203,6661.853478,-1378.971896
111.971928,8882.471304,8142.265362,-383.047749
111.972249,9474.636058,9548.656652,153.219100
111.972570,9178.553681,9918.759623,1149.143247
111.972891,8290.306550,7105.977043,1149.143247
111.973211,7328.038826,4737.318029,1072.533697
111.973532,6735.874072,3034.844362,842.705048
111.973853,5847.626942,2886.803174,-229.828649
111.974174,5921.647536,4071.132681,-2451.505594
111.974495,6069.688724,6069.688724,-3064.381992
111.974816,6439.791695,8956.491898,-1762.019645
111.975136,7994.224174,11917.315666,919.314598
111.975457,6587.832884,11991.336260,1149.143247
111.975778,5181.441594,8808.450710,76.609550
111.976099,4737.318029,6365.771101,229.828649
111.976420,2812.782580,5403.503377,536.266849
111.976741,962.267725,5625.565159,-766.095498
111.977061,1850.514855,7624.121203,-3064.381992
111.977382,3330.926739,10881.027347,-2834.553343
111.977703,3034.844362,13693.809927,-689.485948
111.978024,2664.741391,14878.139434,536.266849
111.978345,1776.494261,14063.912898,612.876398
111.978665,740.205942,12213.398043,766.095498
111.978986,-518.144159,8956.491898,1072.533697
111.979307,666.185348,6587.832884,1302.362347
111.979628,0.000000,6661.853478,0.000000
111.979949,148.041188,9400.615463,-1685.410096
111.980270,1480.411884,13101.645173,-1838.629195
111.980590,2442.679609,15914.427753,-1455.581446
111.980911,3404.947333,15766.386565,-306.438199
111.981232,3849.070898,13471.748144,689.485948
111.981553,3701.029710,9918.759623,536.266849
111.981874,2812.782580,6883.915261,306.438199
111.982195,1998.556043,5403.503377,76.609550
111.982515,2220.617826,5995.668130,-1149.143247
111.982836,4071.132681,8290.306550,-2221.676944
111.983157,5255.462188,11177.109724,-1915.238745
111.983478,6661.853478,13101.645173,0.000000
111.983799,6069.688724,13471.748144,612.876398
111.984120,5699.585753,11621.233289,612.876398
111.984440,5551.544565,7254.018232,0.000000
111.984761,5847.626942,3775.050304,536.266849
111.985082,5847.626942,2220.617826,1455.581446
111.985403,4589.276840,2442.679609,0.000000
111.985724,5921.647536,5033.400406,-1225.752797
111.986045,7846.182985,8438.347739,-536.266849
111.986365,8290.306550,10288.862594,76.609550
111.986686,9326.594869,9326.594869,1225.752797
111.987007,9918.759623,6291.750507,1455.581446
111.987328,8216.285956,3478.967927,995.924147
111.987649,7328.038826,1628.453072,2145.067394
111.987970,7254.018232,-222.061783,842.705048
111.988290,7994.224174,148.041188,-1225.752797
111.988611,8808.450710,3330.926739,-2068.457845
111.988932,9474.636058,6809.894666,-1762.019645
111.989253,9474.636058,8660.409521,-1149.143247
111.989574,9696.697840,9252.574275,0.000000
111.989894,9844.739029,7698.141797,1072.533697
111.990215,8216.285956,4811.338623,536.266849
111.990536,6661.853478,1776.494261,306.438199
111.990857,5699.585753,1628.453072,-306.438199
111.991178,5403.503377,3330.926739,-1455.581446
111.991499,5477.523971,6217.729913,-2374.896044
111.991819,6143.709319,8586.388927,-2221.676944
111.992140,6439.791695,11029.068536,-536.266849
111.992461,6291.750507,12731.542202,842.705048
111.992782,3997.112087,10807.006753,1685.410096
111.993103,2960.823768,7698.141797,919.314598
111.993424,2516.700203,6217.729913,1302.362347
111.993744,1776.494261,5921.647536,306.438199
111.994065,1184.329507,7402.059420,-1378.971896
111.994386,1628.453072,9474.636058,-2221.676944
111.994707,3108.864956,12435.459826,-1302.362347
111.995028,3923.091493,14656.077652,383.047749
111.995349,3478.967927,15618.345376,1149.143247
111.995669,2442.679609,13471.748144,919.314598
111.995990,1554.432478,9770.718434,766.095498
111.996311,1850.514855,7550.100608,1455.581446
111.996632,666.185348,6735.874072,229.828649
111.996953,296.082377,8808.450710,-995.924147
111.997274,1924.535449,10658.965565,-2451.505594
111.997594,2886.803174,13323.706956,-1302.362347
111.997915,3923.091493,14508.036463,76.609550
111.998236,4367.215058,13619.789333,229.828649
111.998557,3256.906145,11547.212695,0.000000
111.998878,3108.864956,8586.388927,-766.095498
111.999199,3478.967927,5551.544565,0.000000
111.999519,3701.029710,4589.276840,0.000000
111.999840,3849.070898,6143.709319,-1455.581446
112.000161,4737.318029,9770.718434,-1915.238745
112.000482,5847.626942,12139.377449,-1838.629195
112.000803,6365.771101,13249.686362,-612.876398
112.001123,7105.977043,11547.212695,383.047749
112.001444,6957.935855,8364.327145,919.314598
112.001765,5403.503377,4737.318029,306.438199
112.002086,4367.215058,2590.720797,919.314598
112.002407,4145.153275,2368.659014,612.876398
112.002728,5921.647536,4293.194464,-919.314598
112.003048,7994.224174,6439.791695,-995.924147
112.003369,8586.388927,8882.471304,-459.657299
112.003690,8512.368333,9622.677246,153.219100
112.004011,8882.471304,8808.450710,612.876398
112.004332,8512.368333,5847.626942,1149.143247
112.004653,8808.450710,3182.885551,1455.581446
112.004973,7105.977043,518.144159,1072.533697
112.005294,7179.997637,1110.308913,-1149.143247
112.005615,8142.265362,3478.967927,-1991.848295
112.005936,8660.409521,6439.791695,-1762.019645
112.006257,9178.553681,8068.244768,-1532.190996
112.006578,9918.759623,9548.656652,-536.266849
112.006898,9622.677246,9400.615463,536.266849
112.007219,7476.080014,6957.935855,1225.752797
112.007540,6587.832884,3478.967927,1378.971896
112.007861,5329.482782,1850.514855,689.485948
112.008182,4589.276840,2812.782580,-689.485948
112.008503,4663.297435,5181.441594,-1302.362347
112.008823,4959.379811,8808.450710,-1685.410096
112.009144,4885.359217,11695.253884,-689.485948
112.009465,5181.441594,13397.727550,306.438199
112.009786,3404.947333,13101.645173,766.095498
112.010107,1480.411884,10584.944971,612.876398
112.010428,1110.308913,7476.080014,1838.629195
112.010748,1332.370696,6143.709319,1838.629195
112.011069,-370.102971,7105.977043,689.485948
112.011390,-74.020594,9844.739029,-1762.019645
112.011711,370.102971,12731.542202,-2298.286494
112.012032,1554.432478,15470.304188,0.000000
112.012353,1702.473667,15618.345376,1915.238745
112.012673,1554.432478,13619.789333,1608.800546
112.012994,1036.288319,10362.883188,919.314598
112.013315,370.102971,7105.977043,919.314598
112.013636,148.041188,6957.935855,1378.971896
112.013957,1036.288319,7698.141797,-459.657299
112.014277,2442.679609,9918.759623,-2374.896044
112.014598,4293.194464,12287.418637,-1608.800546
112.014919,4885.359217,13249.686362,-766.095498
112.015240,5255.462188,12731.542202,0.000000
112.015561,5847.626942,10288.862594,153.219100
112.015882,5329.482782,7402.059420,0.000000
112.016202,5625.565159,4737.318029,0.000000
112.016523,5773.606348,4071.132681,-995.924147
112.016844,5995.668130,4737.318029,-2757.943793
112.017165,6809.894666,6957.935855,-2604.724693
112.017486,8068.244768,8956.491898,-1072.533697
112.017807,8364.327145,9696.697840,-306.438199
112.018127,8586.388927,9474.636058,0.000000
112.018448,7994.224174,8586.388927,0.000000
112.018769,6291.750507,6143.709319,-76.609550
112.019090,5773.606348,3330.926739,842.705048
112.019411,5551.544565,2590.720797,76.609550
112.019732,5995.668130,3182.885551,-919.314598
112.020052,6439.791695,5551.544565,-1455.581446
112.020373,6957.935855,7846.182985,-1455.581446
112.020694,6513.812290,9474.636058,0.000000
112.021015,7698.141797,10214.842000,1378.971896
112.021336,7920.203579,8068.244768,1149.143247
112.021657,7402.059420,5403.503377,766.095498
112.021977,6513.812290,4219.173869,995.924147
112.022298,5181.441594,3775.050304,-153.219100
112.022619,4737.318029,3627.009116,-2221.676944
112.022940,7105.977043,5329.482782,-2298.286494
112.023261,8068.244768,8142.265362,-919.314598
112.023582,8068.244768,9992.780217,0.000000
112.023902,7624.121203,11621.233289,995.924147
112.024223,6291.750507,10140.821405,1149.143247
112.024544,5181.441594,6735.874072,459.657299
112.024865,5551.544565,4515.256246,919.314598
112.025186,4737.318029,4071.132681,-76.609550
112.025506,3775.050304,5921.647536,-1915.238745
112.025827,4293.194464,8734.430116,-1225.752797
112.026148,4737.318029,11029.068536,-612.876398
112.026469,4441.235652,12435.459826,919.314598
112.026790,3701.029710,12509.480420,1455.581446
112.027111,2960.823768,11029.068536,229.828649
112.027431,1776.494261,8142.265362,459.657299
112.027752,1258.350101,6143.709319,1455.581446
112.028073,1332.370696,6217.729913,842.705048
112.028394,1776.494261,7328.038826,-689.485948
112.028715,2220.617826,10584.944971,-1532.190996
112.029036,3256.906145,12583.501014,-842.705048
112.029356,3775.050304,13841.851115,383.047749
112.029677,4219.173869,12953.603985,1149.143247
112.029998,3330.926739,9844.739029,766.095498
112.030319,2738.761985,6439.791695,995.924147
112.030640,2146.597232,4885.359217,1225.752797
112.030961,1998.556043,5329.482782,-306.438199
112.031281,3552.988522,7105.977043,-2451.505594
112.031602,5181.441594,9326.594869,-2528.115143
112.031923,5995.668130,11251.130318,-1378.971896
112.032244,6587.832884,11621.233289,229.828649
112.032565,5995.668130,11177.109724,383.047749
112.032886,4885.359217,9104.533087,-383.047749
112.033206,4071.132681,4959.379811,383.047749
112.033527,4737.318029,3182.885551,536.266849
112.033848,4441.235652,3849.070898,-383.047749
112.034169,4885.359217,6513.812290,-2221.676944
112.034490,6291.750507,9400.615463,-2451.505594
112.034811,7031.956449,11621.233289,-1302.362347
112.035131,7105.977043,11695.253884,-76.609550
112.035452,6883.915261,9696.697840,459.657299
112.035773,6217.729913,6883.915261,306.438199
112.036094,5181.441594,4811.338623,1225.752797
112.036415,4885.359217,3923.091493,1225.752797
112.036736,4885.359217,4219.173869,-383.047749
112.037056,5921.647536,6217.729913,-2451.505594
112.037377,7328.038826,8438.347739,-1762.019645
112.037698,6661.853478,9992.780217,-306.438199
112.038019,7031.956449,10732.986159,842.705048
112.038340,6513.812290,9474.636058,1302.362347
112.038660,6291.750507,7920.203579,1685.410096
112.038981,5847.626942,5699.585753,1608.800546
112.039302,4737.318029,4293.194464,459.657299
112.039623,5181.441594,4589.276840,-1532.190996
112.039944,6143.709319,6365.771101,-2221.676944
112.040265,6735.874072,9178.553681,-1455.581446
112.040585,6957.935855,10288.862594,-459.657299
112.040906,7179.997637,11399.171507,383.047749
112.041227,5921.647536,10436.903782,459.657299
112.041548,4959.379811,7772.162391,153.219100
112.041869,3997.112087,5181.441594,919.314598
112.042190,3552.988522,4811.338623,0.000000
112.042510,3775.050304,6365.771101,-536.266849
112.042831,4293.194464,8512.368333,-1762.019645
112.043152,4737.318029,10288.862594,-842.705048
112.043473,4737.318029,11547.212695,229.828649
112.043794,4293.194464,11769.274478,995.924147
112.044115,3256.906145,10510.924376,459.657299
112.044435,2960.823768,7698.141797,306.438199
112.044756,3256.906145,6217.729913,842.705048
112.045077,2738.761985,5921.647536,229.828649
112.045398,2442.679609,7179.997637,-1149.143247
112.045719,3108.864956,8882.471304,-2298.286494
112.046040,4071.132681,10658.965565,-995.924147
112.046360,4663.297435,12065.356855,766.095498
112.046681,4367.215058,11991.336260,995.924147
112.047002,3478.967927,10658.965565,536.266849
112.047323,2368.659014,8216.285956,-306.438199
112.047644,2590.720797,5773.606348,689.485948
112.047965,2886.803174,4885.359217,689.485948
112.048285,3478.967927,6143.709319,-536.266849
112.048606,4663.297435,8142.265362,-1532.190996
112.048927,5625.565159,10288.862594,-1149.143247
112.049248,5329.482782,11103.089130,0.000000
112.049569,5699.585753,10732.986159,0.000000
112.049890,6217.729913,9030.512492,153.219100
112.050210,5773.606348,7254.018232,-229.828649
112.050531,5107.421000,5625.565159,229.828649
112.050852,4811.338623,5255.462188,-536.266849
112.051173,5551.544565,5625.565159,-1838.629195
112.051494,5773.606348,7550.100608,-1302.362347
112.051814,6809.894666,9918.759623,-383.047749
112.052135,6661.853478,10955.047942,153.219100
112.052456,6143.709319,10955.047942,459.657299
112.052777,6217.729913,8364.327145,689.485948
112.053098,5773.606348,6661.853478,1149.143247
112.053419,4293.194464,4367.215058,1685.410096
112.053739,4589.276840,4367.215058,612.876398
112.054060,5403.503377,5551.544565,-229.828649
112.054381,6587.832884,7179.997637,-536.266849
112.054702,7105.977043,8882.471304,0.000000
112.055023,6587.832884,9326.594869,0.000000
112.055344,6587.832884,10214.842000,0.000000
112.055664,6809.894666,9252.574275,612.876398
112.055985,6069.688724,6365.771101,459.657299
112.056306,5329.482782,3330.926739,536.266849
112.056627,6069.688724,3849.070898,-383.047749
112.056948,5033.400406,5847.626942,-1608.800546
112.057269,5625.565159,7698.141797,-1532.190996
112.057589,7328.038826,9326.594869,-1149.143247
112.057910,8438.347739,10807.006753,-153.219100
112.058231,6661.853478,10807.006753,76.609550
112.058552,5403.503377,8216.285956,-306.438199
112.058873,4293.194464,5699.585753,-306.438199
112.059194,3775.050304,4663.297435,766.095498
112.059514,4219.173869,5329.482782,153.219100
112.059835,4441.235652,6735.874072,-1532.190996
112.060156,4367.215058,8216.285956,-1838.629195
112.060477,4367.215058,11399.171507,-1225.752797
112.060798,4293.194464,12065.356855,383.047749
112.061119,3923.091493,11029.068536,459.657299
112.061439,4219.173869,9400.615463,0.000000
112.061760,3182.885551,6809.894666,536.266849
112.062081,2960.823768,5699.585753,1225.752797
112.062402,2368.659014,5699.585753,0.000000
112.062723,2442.679609,8290.306550,-1685.410096
112.063044,4145.153275,10362.883188,-1378.971896
112.063364,4441.235652,12139.377449,-689.485948
112.063685,4737.318029,12953.603985,-612.876398
112.064006,4515.256246,11917.315666,153.219100
112.064327,3182.885551,9178.553681,153.219100
112.064648,3034.844362,6365.771101,459.657299
112.064968,2960.823768,5181.441594,536.266849
112.065289,2886.803174,6735.874072,-306.438199
112.065610,3627.009116,7994.224174,-1762.019645
112.065931,4737.318029,10362.883188,-842.705048
112.066252,4959.379811,11843.295072,-689.485948
112.066573,5181.441594,12065.356855,-153.219100
112.066893,5921.647536,10436.903782,76.609550
112.067214,5255.462188,8216.285956,229.828649
112.067535,4145.153275,5921.647536,995.924147
112.067856,3923.091493,5255.462188,536.266849
112.068177,4959.379811,5773.606348,-536.266849
112.068498,5551.544565,6883.915261,-1302.362347
112.068818,6735.874072,8734.430116,-1225.752797
112.069139,6957.935855,10658.965565,-306.438199
112.069460,6291.750507,11029.068536,383.047749
112.069781,6365.771101,9548.656652,1072.533697
112.070102,7031.956449,7105.977043,1149.143247
112.070423,5181.441594,4219.173869,459.657299
112.070743,4959.379811,3404.947333,306.438199
112.071064,5625.565159,5033.400406,-229.828649
112.071385,5625.565159,6735.874072,-1225.752797
112.071706,6439.791695,7920.203579,-1149.143247
112.072027,7698.141797,9178.553681,-306.438199
112.072348,7476.080014,9696.697840,0.000000
112.072668,6217.729913,8660.409521,919.314598
112.072989,7105.977043,6661.853478,919.314598
112.073310,6143.709319,4737.318029,0.000000
112.073631,5033.400406,3701.029710,153.219100
112.073952,5107.421000,3997.112087,-689.485948
112.074273,5551.544565,6661.853478,-1762.019645
112.074593,5847.626942,8512.368333,-995.924147
112.074914,6291.750507,10436.903782,0.000000
112.075235,6365.771101,11251.130318,-229.828649
112.075556,5255.462188,9326.594869,-76.609550
112.075877,4367.215058,7179.997637,383.047749
112.076198,4663.297435,5181.441594,919.314598
112.076518,3034.844362,4737.318029,459.657299
112.076839,3627.009116,5995.668130,-612.876398
112.077160,4145.153275,8068.244768,-1302.362347
112.077481,5329.482782,10807.006753,-1532.190996
