#time,accel_x,accel_y,accel_z
550.817508,5181.441594,8068.244768,0.000000
550.817829,4959.379811,7920.203579,-229.828649
550.818149,4737.318029,8068.244768,0.000000
550.818470,5181.441594,8216.285956,-229.828649
550.818790,4959.379811,7994.224174,-383.047749
550.819111,4959.379811,8068.244768,-306.438199
550.819431,4959.379811,7846.182985,0.000000
550.819752,4811.338623,8216.285956,0.000000
550.820072,5181.441594,7994.224174,0.000000
550.820393,5181.441594,7994.224174,-153.219100
550.820714,4885.359217,7920.203579,0.000000
550.821034,4959.379811,8068.244768,-229.828649
550.821355,5107.421000,7920.203579,-229.828649
550.821675,5255.462188,7920.203579,76.609550
550.821996,5033.400406,7698.141797,0.000000
550.822316,4737.318029,8216.285956,0.000000
550.822637,4959.379811,7846.182985,-383.047749
550.822957,4959.379811,8142.265362,-229.828649
550.823278,5033.400406,7846.182985,-459.657299
550.823598,4959.379811,7994.224174,0.000000
550.823919,4811.338623,8290.306550,-153.219100
550.824239,4811.338623,7994.224174,-383.047749
550.824560,5033.400406,7994.224174,-459.657299
550.824880,5181.441594,8290.306550,0.000000
550.825201,4885.359217,7994.224174,0.000000
550.825521,4811.338623,8068.244768,-229.828649
550.825842,5033.400406,7994.224174,-229.828649
550.826162,5033.400406,8068.244768,-306.438199
550.826483,4811.338623,8290.306550,-459.657299
550.826803,4885.359217,8216.285956,-153.219100
550.827124,5033.400406,8068.244768,-229.828649
550.827445,4737.318029,8068.244768,-76.609550
550.827765,4959.379811,7698.141797,-229.828649
550.828086,4663.297435,7624.121203,-612.876398
550.828406,4219.173869,7920.203579,-306.438199
550.828727,4293.194464,9030.512492,-306.438199
550.829047,4441.235652,9992.780217,-919.314598
550.829368,4737.318029,10140.821405,-1302.362347
550.829688,4663.297435,9844.739029,-1225.752797
550.830009,4293.194464,8956.491898,0.000000
550.830329,3404.947333,8586.388927,459.657299
550.830650,2812.782580,8956.491898,766.095498
550.830970,2442.679609,9252.574275,766.095498
550.831291,2812.782580,8882.471304,0.000000
550.831611,2812.782580,8882.471304,-306.438199
550.831932,3182.885551,9030.512492,-306.438199
550.832252,3108.864956,9696.697840,229.828649
550.832573,2368.659014,9474.636058,536.266849
550.832893,2368.659014,8660.409521,306.438199
550.833214,2294.638420,9178.553681,0.000000
550.833534,2220.617826,9844.739029,-689.485948
550.833855,1776.494261,11473.192101,-1608.800546
550.834175,1480.411884,11991.336260,-1149.143247
550.834496,1036.288319,12287.418637,-766.095498
550.834817,0.000000,11251.130318,-995.924147
550.835137,0.000000,11103.089130,-1225.752797
550.835458,-1036.288319,11843.295072,-1225.752797
550.835778,-1480.411884,12583.501014,0.000000
550.836099,-1998.556043,12657.521608,842.705048
550.836419,-1480.411884,11695.253884,1378.971896
550.836740,-1258.350101,11769.274478,1532.190996
550.837060,-1554.432478,12065.356855,1608.800546
550.837381,-2590.720797,12065.356855,1072.533697
550.837701,-2368.659014,10732.986159,-383.047749
550.838022,-1406.391290,9992.780217,-612.876398
550.838342,-592.164754,9696.697840,229.828649
550.838663,-148.041188,10214.842000,689.485948
550.838983,0.000000,10584.944971,612.876398
550.839304,814.226536,10955.047942,-919.314598
550.839624,1480.411884,11325.150913,-1532.190996
550.839945,2146.597232,10140.821405,-1225.752797
550.840265,2442.679609,9918.759623,-229.828649
550.840586,3330.926739,10436.903782,229.828649
550.840906,2442.679609,10140.821405,-689.485948
550.841227,2368.659014,9104.533087,-2451.505594
550.841548,2072.576638,8808.450710,-2068.457845
550.841868,2368.659014,9474.636058,-842.705048
550.842189,1998.556043,10066.800811,0.000000
550.842509,1998.556043,10510.924376,0.000000
550.842830,1258.350101,10955.047942,0.000000
550.843150,296.082377,11399.171507,153.219100
550.843471,0.000000,10732.986159,459.657299
550.843791,-444.123565,9918.759623,459.657299
550.844112,-666.185348,9770.718434,536.266849
550.844432,-518.144159,10362.883188,1149.143247
550.844753,-666.185348,10584.944971,919.314598
550.845073,-888.247130,11103.089130,1072.533697
550.845394,222.061783,11547.212695,1225.752797
550.845714,1184.329507,11399.171507,919.314598
550.846035,888.247130,11547.212695,76.609550
550.846355,1036.288319,11029.068536,-689.485948
550.846676,1406.391290,10510.924376,-842.705048
550.846996,1850.514855,10140.821405,-383.047749
550.847317,2072.576638,9474.636058,0.000000
550.847637,1998.556043,8734.430116,0.000000
550.847958,2294.638420,9178.553681,0.000000
550.848278,2294.638420,10362.883188,-229.828649
550.848599,2072.576638,10436.903782,-229.828649
550.848920,2960.823768,10066.800811,-689.485948
550.849240,3552.988522,10066.800811,-766.095498
550.849561,3478.967927,10140.821405,-1072.533697
550.849881,2812.782580,10066.800811,-1149.143247
550.850202,2368.659014,10362.883188,-1302.362347
550.850522,1850.514855,11103.089130,-229.828649
550.850843,888.247130,11473.192101,76.609550
550.851163,962.267725,11251.130318,-536.266849
550.851484,370.102971,11029.068536,-1532.190996
550.851804,-370.102971,10658.965565,-2145.067394
550.852125,-1480.411884,10140.821405,-1532.190996
550.852445,-1998.556043,9400.615463,0.000000
550.852766,-1702.473667,9844.739029,1532.190996
550.853086,-666.185348,11547.212695,2451.505594
550.853407,-592.164754,12583.501014,2298.286494
550.853727,-888.247130,13027.624579,1072.533697
550.854048,74.020594,13101.645173,229.828649
550.854368,814.226536,12139.377449,0.000000
550.854689,888.247130,10955.047942,-153.219100
550.855009,1184.329507,9844.739029,-1608.800546
550.855330,814.226536,9030.512492,-1915.238745
550.855651,-296.082377,8956.491898,-1991.848295
550.855971,-1184.329507,9474.636058,-1378.971896
550.856292,-592.164754,10658.965565,-1072.533697
550.856612,666.185348,13027.624579,0.000000
550.856933,1702.473667,13619.789333,-153.219100
550.857253,1628.453072,13397.727550,-612.876398
550.857574,1184.329507,13101.645173,-383.047749
550.857894,592.164754,13101.645173,-153.219100
550.858215,148.041188,11399.171507,-306.438199
550.858535,814.226536,9030.512492,-229.828649
550.858856,1480.411884,7920.203579,-383.047749
550.859176,888.247130,9326.594869,0.000000
550.859497,370.102971,10584.944971,766.095498
550.859817,592.164754,11695.253884,1532.190996
550.860138,444.123565,10362.883188,1532.190996
550.860458,1702.473667,8142.265362,842.705048
550.860779,2072.576638,7179.997637,612.876398
550.861099,962.267725,8660.409521,0.000000
550.861420,222.061783,11695.253884,-766.095498
550.861740,814.226536,13619.789333,-2145.067394
550.862061,814.226536,12953.603985,-3140.991542
550.862381,1924.535449,12361.439231,-1532.190996
550.862702,2368.659014,12805.562797,76.609550
550.863023,296.082377,13027.624579,-153.219100
550.863343,-592.164754,13027.624579,-689.485948
550.863664,-962.267725,11399.171507,153.219100
550.863984,-888.247130,9030.512492,536.266849
550.864305,-148.041188,7179.997637,2451.505594
550.864625,-1406.391290,7179.997637,2451.505594
550.864946,-2812.782580,8068.244768,689.485948
550.865266,-814.226536,9696.697840,0.000000
550.865587,740.205942,11843.295072,-383.047749
550.865907,1776.494261,12435.459826,-536.266849
550.866228,2146.597232,12583.501014,0.000000
550.866548,1998.556043,12361.439231,-536.266849
550.866869,296.082377,9992.780217,-1838.629195
550.867189,1332.370696,8734.430116,-689.485948
550.867510,1924.535449,9178.553681,0.000000
550.867830,1998.556043,11103.089130,0.000000
550.868151,1258.350101,12731.542202,-919.314598
550.868471,1628.453072,12287.418637,-2681.334243
550.868792,740.205942,10658.965565,-3524.039291
550.869112,-296.082377,8512.368333,-1838.629195
550.869433,0.000000,7994.224174,-612.876398
550.869754,74.020594,9696.697840,536.266849
550.870074,-592.164754,12583.501014,842.705048
550.870395,-1554.432478,14730.098246,1225.752797
550.870715,-2220.617826,14508.036463,229.828649
550.871036,-1776.494261,13693.809927,306.438199
550.871356,-1332.370696,12953.603985,1225.752797
550.871677,-1110.308913,11325.150913,1072.533697
550.871997,-962.267725,10214.842000,-612.876398
550.872318,-148.041188,9770.718434,-995.924147
550.872638,0.000000,9770.718434,153.219100
550.872959,-740.205942,9844.739029,766.095498
550.873279,592.164754,9252.574275,2145.067394
550.873600,2590.720797,9696.697840,2145.067394
550.873920,3627.009116,11177.109724,1685.410096
550.874241,3849.070898,11177.109724,-536.266849
550.874561,4367.215058,10584.944971,-2451.505594
550.874882,4737.318029,9992.780217,-2298.286494
550.875202,3923.091493,9178.553681,-1991.848295
550.875523,3182.885551,8142.265362,-1608.800546
550.875843,2590.720797,7698.141797,-612.876398
550.876164,2812.782580,11177.109724,-306.438199
550.876484,2072.576638,12805.562797,919.314598
550.876805,1258.350101,12361.439231,-306.438199
550.877126,1110.308913,10881.027347,-1378.971896
550.877446,-740.205942,9178.553681,-153.219100
550.877767,-2368.659014,8734.430116,536.266849
550.878087,-1628.453072,9696.697840,612.876398
550.878408,-888.247130,11991.336260,-383.047749
550.878728,-1332.370696,14730.098246,-1378.971896
550.879049,-2664.741391,14211.954086,-1532.190996
550.879370,-2368.659014,12287.418637,229.828649
550.879690,-1480.411884,12065.356855,3600.648841
550.880011,-1258.350101,11917.315666,4826.401637
550.880331,-2072.576638,10881.027347,919.314598
550.880652,-888.247130,9696.697840,-1378.971896
550.880972,-148.041188,9178.553681,-459.657299
550.881293,518.144159,8142.265362,1532.190996
550.881614,2294.638420,7920.203579,2221.676944
550.881934,3775.050304,8660.409521,689.485948
550.882255,3034.844362,10362.883188,-1149.143247
550.882575,2812.782580,10807.006753,-1532.190996
550.882896,5033.400406,10881.027347,-1762.019645
550.883216,4811.338623,9252.574275,-1225.752797
550.883537,4145.153275,8660.409521,-536.266849
550.883857,4219.173869,9696.697840,-1302.362347
550.884178,962.267725,10288.862594,-2834.553343
550.884499,518.144159,10584.944971,-3370.820191
550.884819,2886.803174,10584.944971,-2221.676944
550.885140,518.144159,9622.677246,-1532.190996
550.885460,0.000000,10140.821405,-995.924147
550.885781,-666.185348,10214.842000,-153.219100
550.886101,-1184.329507,11917.315666,689.485948
550.886422,-1184.329507,13545.768739,2451.505594
550.886743,-2220.617826,13249.686362,1991.848295
550.887063,-3034.844362,11769.274478,76.609550
550.887384,-1998.556043,11251.130318,-153.219100
550.887704,-1998.556043,11621.233289,1685.410096
550.888025,-444.123565,12509.480420,1838.629195
550.888345,-1406.391290,12213.398043,1225.752797
550.888666,-2294.638420,11621.233289,0.000000
550.888987,-666.185348,12583.501014,-919.314598
550.889307,-740.205942,12583.501014,2068.457845
550.889628,222.061783,11695.253884,1915.238745
550.889948,1850.514855,9178.553681,1685.410096
550.890269,1850.514855,8216.285956,1225.752797
550.890589,2368.659014,8216.285956,-842.705048
550.890910,2812.782580,7772.162391,-1838.629195
550.891231,4959.379811,8956.491898,-2068.457845
550.891551,5255.462188,10288.862594,-1685.410096
550.891872,4589.276840,9770.718434,-1532.190996
550.892192,5625.565159,8512.368333,-1762.019645
550.892513,6143.709319,9474.636058,-1455.581446
550.892833,3923.091493,10288.862594,-1532.190996
550.893154,2294.638420,9918.759623,-3064.381992
550.893475,3108.864956,9622.677246,-3677.258390
550.893795,3256.906145,10510.924376,-2298.286494
550.894116,2146.597232,10510.924376,459.657299
550.894436,962.267725,9474.636058,1378.971896
550.894757,296.082377,9474.636058,459.657299
550.895077,-962.267725,9992.780217,1378.971896
550.895398,0.000000,10288.862594,2145.067394
550.895719,1110.308913,9992.780217,2451.505594
550.896039,592.164754,8512.368333,2987.772442
550.896360,1702.473667,9178.553681,2681.334243
550.896680,1110.308913,8882.471304,1225.752797
550.897001,1776.494261,9400.615463,229.828649
550.897321,3997.112087,9622.677246,1302.362347
550.897642,4441.235652,8808.450710,1072.533697
550.897963,5329.482782,7402.059420,0.000000
550.898283,6735.874072,7550.100608,-306.438199
550.898604,7254.018232,7105.977043,-1532.190996
550.898924,6439.791695,6513.812290,-919.314598
550.899245,7328.038826,5181.441594,-1302.362347
550.899565,9104.533087,6735.874072,-1685.410096
550.899886,7920.203579,7920.203579,-1762.019645
550.900207,7624.121203,7402.059420,-1762.019645
550.900527,8216.285956,6587.832884,-1532.190996
550.900848,7105.977043,6143.709319,-1915.238745
550.901168,7846.182985,7772.162391,-1149.143247
550.901489,6365.771101,7624.121203,-766.095498
550.901809,5329.482782,7179.997637,-1532.190996
550.902130,5033.400406,8142.265362,76.609550
550.902451,3923.091493,8216.285956,612.876398
550.902771,3034.844362,7624.121203,-306.438199
550.903092,3330.926739,9400.615463,153.219100
550.903412,2294.638420,9474.636058,0.000000
550.903733,2294.638420,9474.636058,689.485948
550.904053,2294.638420,8586.388927,2451.505594
550.904374,2590.720797,7772.162391,1838.629195
550.904695,2368.659014,7772.162391,2528.115143
550.905015,3627.009116,9252.574275,2681.334243
550.905336,3034.844362,10362.883188,76.609550
550.905656,4145.153275,8586.388927,-1302.362347
550.905977,5329.482782,7105.977043,-766.095498
550.906297,7105.977043,6661.853478,-383.047749
550.906618,5773.606348,6143.709319,-459.657299
550.906939,7550.100608,5699.585753,-1149.143247
550.907259,7920.203579,6439.791695,-2834.553343
550.907580,8438.347739,8364.327145,-2451.505594
550.907900,8290.306550,8734.430116,-306.438199
550.908221,9178.553681,7179.997637,-536.266849
550.908541,9326.594869,6809.894666,-2068.457845
550.908862,9030.512492,7402.059420,-1915.238745
550.909183,6513.812290,6809.894666,-3753.867940
550.909503,5847.626942,5625.565159,-3753.867940
550.909824,7031.956449,5995.668130,-1302.362347
550.910144,7402.059420,7031.956449,383.047749
550.910465,4959.379811,7920.203579,459.657299
550.910785,4589.276840,9548.656652,-689.485948
550.911106,3404.947333,10955.047942,-1455.581446
550.911426,3330.926739,9992.780217,459.657299
550.911747,3478.967927,8808.450710,1302.362347
550.912068,3997.112087,7772.162391,306.438199
550.912388,3034.844362,8882.471304,0.000000
550.912709,2368.659014,11843.295072,153.219100
550.913029,1628.453072,11399.171507,-536.266849
550.913350,2368.659014,8734.430116,842.705048
550.913670,2960.823768,7476.080014,1838.629195
550.913991,2664.741391,7772.162391,3217.601092
550.914312,3478.967927,10140.821405,2681.334243
550.914632,2590.720797,8808.450710,0.000000
550.914953,3627.009116,7550.100608,-2911.162892
550.915273,7328.038826,6957.935855,-1225.752797
550.915594,6513.812290,7402.059420,229.828649
550.915914,6957.935855,7105.977043,-919.314598
550.916235,9030.512492,9326.594869,-1991.848295
550.916556,6365.771101,8808.450710,-1762.019645
550.916876,6883.915261,7550.100608,-1149.143247
550.917197,8290.306550,5329.482782,0.000000
550.917517,7402.059420,6365.771101,-1455.581446
550.917838,6957.935855,10584.944971,-2298.286494
550.918158,5773.606348,9992.780217,-1608.800546
550.918479,4737.318029,6809.894666,-2068.457845
550.918800,6439.791695,6069.688724,766.095498
550.919120,4441.235652,7105.977043,1532.190996
550.919441,1480.411884,8290.306550,-459.657299
550.919761,1554.432478,8586.388927,-153.219100
550.920082,2368.659014,8512.368333,1838.629195
550.920402,2368.659014,8216.285956,3294.210641
550.920723,3478.967927,7772.162391,3600.648841
550.921044,3108.864956,8216.285956,1225.752797
550.921364,2516.700203,9252.574275,-153.219100
550.921685,3627.009116,8882.471304,0.000000
550.922005,3256.906145,5551.544565,-459.657299
550.922326,5773.606348,4959.379811,612.876398
550.922646,7698.141797,8142.265362,2987.772442
550.922967,5329.482782,10214.842000,766.095498
550.923288,4811.338623,8438.347739,-3217.601092
550.923608,7254.018232,7772.162391,-3064.381992
550.923929,7920.203579,7772.162391,0.000000
550.924249,7920.203579,7846.182985,2298.286494
550.924570,7254.018232,6143.709319,1225.752797
550.924890,5625.565159,4959.379811,-2374.896044
550.925211,6809.894666,5921.647536,-2451.505594
550.925532,7031.956449,6883.915261,-919.314598
550.925852,5403.503377,6513.812290,-1072.533697
550.926173,7846.182985,7179.997637,0.000000
550.926493,7328.038826,8512.368333,306.438199
550.926814,6809.894666,7179.997637,0.000000
550.927134,5477.523971,5181.441594,-1455.581446
550.927455,4441.235652,6365.771101,229.828649
550.927776,4367.215058,8660.409521,306.438199
550.928096,4367.215058,9104.533087,-689.485948
550.928417,2960.823768,7105.977043,-3370.820191
550.928737,7254.018232,8734.430116,-1072.533697
550.929058,6069.688724,10658.965565,2298.286494
550.929378,1998.556043,9178.553681,0.000000
550.929699,2664.741391,7402.059420,-1838.629195
550.930020,5773.606348,8956.491898,306.438199
550.930340,4663.297435,10881.027347,2911.162892
550.930661,4959.379811,10658.965565,2681.334243
550.930981,3997.112087,8290.306550,-459.657299
550.931302,3552.988522,8364.327145,-2757.943793
550.931622,4293.194464,8142.265362,383.047749
550.931943,4737.318029,7105.977043,229.828649
550.932264,4589.276840,6883.915261,-383.047749
550.932584,6513.812290,9030.512492,306.438199
550.932905,4737.318029,10140.821405,0.000000
550.933225,3997.112087,7920.203579,-229.828649
550.933546,6439.791695,6957.935855,459.657299
550.933866,7328.038826,8956.491898,536.266849
550.934187,7179.997637,9400.615463,-536.266849
550.934508,5773.606348,6587.832884,-2681.334243
550.934828,5181.441594,4589.276840,-3524.039291
550.935149,7031.956449,6809.894666,-383.047749
550.935469,7328.038826,9474.636058,459.657299
550.935790,4959.379811,9252.574275,-2298.286494
550.936110,6661.853478,9178.553681,-2911.162892
550.936431,5773.606348,9548.656652,1532.190996
550.936752,3775.050304,8512.368333,2068.457845
550.937072,3701.029710,7254.018232,1608.800546
550.937393,3775.050304,8586.388927,459.657299
550.937713,1998.556043,8882.471304,-459.657299
550.938034,2812.782580,9326.594869,229.828649
550.938354,2146.597232,7624.121203,-536.266849
550.938675,3034.844362,8956.491898,-766.095498
550.938996,3775.050304,11103.089130,2528.115143
550.939316,1036.288319,9400.615463,1378.971896
550.939637,1628.453072,6513.812290,-153.219100
550.939957,5181.441594,6809.894666,1225.752797
550.940278,4589.276840,9770.718434,2374.896044
550.940598,3478.967927,9548.656652,1532.190996
550.940919,4441.235652,7698.141797,-1149.143247
550.941239,6587.832884,6809.894666,-2451.505594
550.941560,7476.080014,6809.894666,-1762.019645
550.941881,8660.409521,6365.771101,76.609550
550.942201,7105.977043,6513.812290,-612.876398
550.942522,7402.059420,7994.224174,-612.876398
550.942842,9326.594869,8216.285956,-766.095498
550.943163,8142.265362,6143.709319,-919.314598
550.943483,6661.853478,4959.379811,-995.924147
550.943804,8586.388927,7105.977043,1225.752797
550.944125,6439.791695,7328.038826,306.438199
550.944445,4737.318029,4959.379811,-2451.505594
550.944766,7179.997637,4219.173869,-2604.724693
550.945086,7698.141797,6143.709319,-842.705048
550.945407,6661.853478,9400.615463,1072.533697
550.945727,5477.523971,9474.636058,0.000000
550.946048,6069.688724,7550.100608,-1915.238745
550.946369,7105.977043,6809.894666,383.047749
550.946689,6291.750507,6809.894666,3447.429741
550.947010,4367.215058,6439.791695,2068.457845
550.947330,4811.338623,7772.162391,-1915.238745
550.947651,4959.379811,9474.636058,-2604.724693
550.947971,5551.544565,9696.697840,-2068.457845
550.948292,5181.441594,7476.080014,0.000000
550.948613,6069.688724,8142.265362,1608.800546
550.948933,4515.256246,9474.636058,2604.724693
550.949254,2294.638420,9622.677246,1378.971896
550.949574,1850.514855,8290.306550,-459.657299
550.949895,4737.318029,8290.306550,-689.485948
550.950215,6587.832884,8438.347739,153.219100
550.950536,5403.503377,8512.368333,0.000000
550.950857,3775.050304,7550.100608,-1149.143247
550.951177,3923.091493,8882.471304,-1225.752797
550.951498,3108.864956,9474.636058,-383.047749
550.951818,4885.359217,9104.533087,-383.047749
550.952139,5403.503377,9252.574275,-383.047749
550.952459,3478.967927,11029.068536,-766.095498
550.952780,3849.070898,11473.192101,-1225.752797
550.953101,4589.276840,9622.677246,-1608.800546
550.953421,3849.070898,7476.080014,-1072.533697
550.953742,5255.462188,8512.368333,536.266849
550.954062,3182.885551,9992.780217,842.705048
550.954383,814.226536,9770.718434,-1915.238745
550.954703,2220.617826,9326.594869,-229.828649
550.955024,3849.070898,8734.430116,1762.019645
550.955345,4293.194464,8956.491898,2451.505594
550.955665,2294.638420,8734.430116,612.876398
550.955986,1110.308913,8364.327145,-2298.286494
550.956306,1998.556043,8808.450710,-919.314598
550.956627,2960.823768,9326.594869,1838.629195
550.956947,3404.947333,7846.182985,1302.362347
550.957268,3849.070898,7105.977043,306.438199
550.957589,5329.482782,9104.533087,383.047749
550.957909,3627.009116,9696.697840,306.438199
550.958230,2886.803174,7031.956449,-459.657299
550.958550,6735.874072,5181.441594,-459.657299
550.958871,7105.977043,4811.338623,229.828649
550.959191,5847.626942,6809.894666,153.219100
550.959512,7105.977043,7772.162391,-1378.971896
550.959833,7402.059420,8216.285956,-1455.581446
550.960153,7402.059420,8364.327145,-842.705048
550.960474,9030.512492,6957.935855,689.485948
550.960794,7105.977043,4663.297435,0.000000
550.961115,6809.894666,4737.318029,76.609550
550.961435,7105.977043,6883.915261,1072.533697
550.961756,5921.647536,7402.059420,0.000000
550.962077,5773.606348,6069.688724,-2374.896044
550.962397,7846.182985,6217.729913,-689.485948
550.962718,6735.874072,7920.203579,153.219100
550.963038,5551.544565,8216.285956,0.000000
550.963359,4293.194464,7254.018232,-612.876398
550.963679,4959.379811,7698.141797,-842.705048
550.964000,4737.318029,7698.141797,1838.629195
550.964321,5625.565159,7624.121203,2757.943793
550.964641,4219.173869,7920.203579,-383.047749
550.964962,4145.153275,9252.574275,-1378.971896
550.965282,4367.215058,10066.800811,229.828649
550.965603,4145.153275,8734.430116,-459.657299
550.965923,4811.338623,7402.059420,-229.828649
550.966244,7476.080014,7698.141797,919.314598
550.966565,4811.338623,8734.430116,1072.533697
550.966885,3108.864956,9400.615463,995.924147
550.967206,4071.132681,8734.430116,536.266849
550.967526,5329.482782,7772.162391,383.047749
550.967847,5847.626942,7254.018232,-306.438199
550.968167,5329.482782,7846.182985,-1072.533697
550.968488,3404.947333,8290.306550,-3524.039291
550.968808,4293.194464,9400.615463,-3294.210641
550.969129,4589.276840,10140.821405,-689.485948
550.969450,4589.276840,9326.594869,0.000000
550.969770,4293.194464,9548.656652,306.438199
550.970091,4293.194464,10140.821405,229.828649
550.970411,2294.638420,10807.006753,-1302.362347
550.970732,2664.741391,9104.533087,-229.828649
550.971052,3256.906145,6957.935855,-306.438199
550.971373,4293.194464,7994.224174,-383.047749
550.971694,3108.864956,9252.574275,-995.924147
550.972014,2368.659014,9622.677246,-2451.505594
550.972335,3849.070898,10140.821405,-1455.581446
550.972655,4663.297435,9992.780217,1915.238745
550.972976,4367.215058,9918.759623,1991.848295
550.973296,3108.864956,7920.203579,612.876398
550.973617,3404.947333,8512.368333,0.000000
550.973938,3923.091493,10510.924376,1455.581446
550.974258,3997.112087,9992.780217,612.876398
550.974579,4071.132681,6735.874072,-1915.238745
550.974899,5551.544565,6291.750507,-1685.410096
550.975220,5699.585753,7105.977043,995.924147
550.975540,5033.400406,8438.347739,1762.019645
550.975861,5181.441594,6883.915261,229.828649
550.976182,6439.791695,6291.750507,-1302.362347
550.976502,7328.038826,6957.935855,229.828649
550.976823,6883.915261,7624.121203,766.095498
550.977143,6661.853478,7254.018232,-689.485948
550.977464,6957.935855,7624.121203,-2068.457845
550.977784,6883.915261,7624.121203,-2145.067394
550.978105,6069.688724,6661.853478,-1915.238745
550.978425,5773.606348,5551.544565,-1378.971896
550.978746,6883.915261,8142.265362,76.609550
550.979066,7179.997637,11177.109724,2451.505594
550.979387,4515.256246,8808.450710,1149.143247
550.979707,3108.864956,5551.544565,536.266849
550.980027,5033.400406,4959.379811,2374.896044
550.980348,5181.441594,7624.121203,2374.896044
550.980668,2738.761985,7031.956449,-306.438199
550.980989,4293.194464,5403.503377,-3140.991542
550.981309,5255.462188,7031.956449,-1608.800546
550.981630,4293.194464,8882.471304,1072.533697
550.981950,4663.297435,8956.491898,1838.629195
550.982271,4367.215058,9104.533087,689.485948
550.982591,4737.318029,9252.574275,459.657299
550.982912,5255.462188,9178.553681,1455.581446
550.983232,3849.070898,6143.709319,-536.266849
550.983553,4737.318029,6069.688724,-2451.505594
550.983873,6883.915261,8216.285956,536.266849
550.984194,5033.400406,8142.265362,0.000000
550.984514,5255.462188,5995.668130,-2451.505594
550.984835,6291.750507,5625.565159,-1915.238745
550.985155,6365.771101,8216.285956,0.000000
550.985476,5181.441594,9992.780217,1991.848295
550.985796,5255.462188,8956.491898,0.000000
550.986117,6661.853478,8290.306550,-2604.724693
550.986437,6883.915261,7624.121203,-1378.971896
550.986758,4959.379811,8586.388927,-766.095498
550.987078,3404.947333,9178.553681,-1991.848295
550.987399,3849.070898,9548.656652,-2145.067394
550.987719,3849.070898,9622.677246,-1532.190996
550.988040,4589.276840,9104.533087,-306.438199
550.988360,4219.173869,8068.244768,919.314598
550.988681,3330.926739,9992.780217,1455.581446
550.989001,2960.823768,11177.109724,1685.410096
550.989321,3034.844362,10955.047942,1072.533697
550.989642,2738.761985,7031.956449,-612.876398
550.989962,4367.215058,6069.688724,0.000000
550.990283,5403.503377,7994.224174,1532.190996
550.990603,3404.947333,8660.409521,459.657299
550.990924,4441.235652,8068.244768,-1302.362347
550.991244,6439.791695,9548.656652,-1149.143247
550.991565,6809.894666,10362.883188,0.000000
550.991885,6291.750507,9844.739029,612.876398
550.992206,6143.709319,8882.471304,76.609550
550.992526,5329.482782,7994.224174,-536.266849
550.992847,6069.688724,7994.224174,536.266849
550.993167,6069.688724,6809.894666,-536.266849
550.993488,5403.503377,6365.771101,-1685.410096
550.993808,6587.832884,6809.894666,-459.657299
550.994129,5403.503377,7179.997637,-995.924147
550.994449,4515.256246,5921.647536,-1149.143247
550.994770,7550.100608,6957.935855,0.000000
550.995090,7031.956449,8882.471304,1532.190996
550.995411,5625.565159,8660.409521,1532.190996
550.995731,5033.400406,6735.874072,306.438199
550.996052,4145.153275,5625.565159,-1225.752797
550.996372,4737.318029,6957.935855,-76.609550
550.996693,5625.565159,8364.327145,1838.629195
550.997013,5329.482782,6439.791695,-383.047749
550.997334,6365.771101,5773.606348,-1225.752797
550.997654,5847.626942,7328.038826,0.000000
550.997974,3923.091493,8364.327145,-306.438199
550.998295,4145.153275,9400.615463,536.266849
550.998615,4811.338623,7624.121203,1225.752797
550.998936,6439.791695,7105.977043,2145.067394
550.999256,5107.421000,5995.668130,1608.800546
550.999577,2886.803174,6143.709319,-1378.971896
550.999897,2590.720797,7624.121203,-2451.505594
551.000218,3701.029710,9030.512492,-459.657299
551.000538,5403.503377,7846.182985,689.485948
551.000859,6587.832884,5699.585753,229.828649
551.001179,6069.688724,6661.853478,-229.828649
551.001500,5181.441594,10140.821405,229.828649
551.001820,3330.926739,9992.780217,153.219100
551.002141,4441.235652,7105.977043,-766.095498
551.002461,8216.285956,4811.338623,-1072.533697
551.002782,9030.512492,6735.874072,-383.047749
551.003102,6143.709319,8956.491898,-766.095498
551.003423,3552.988522,8734.430116,-3370.820191
551.003743,6143.709319,7920.203579,-1915.238745
551.004064,7031.956449,8216.285956,1762.019645
551.004384,5773.606348,7105.977043,2528.115143
551.004705,5921.647536,8586.388927,995.924147
551.005025,3775.050304,11251.130318,-995.924147
551.005346,2516.700203,11399.171507,-2221.676944
551.005666,4367.215058,8290.306550,-1532.190996
551.005987,6217.729913,5699.585753,-689.485948
551.006307,5255.462188,7402.059420,1532.190996
551.006628,2960.823768,10732.986159,2757.943793
551.006948,296.082377,10362.883188,-995.924147
551.007268,740.205942,8882.471304,-2451.505594
551.007589,4663.297435,8586.388927,153.219100
551.007909,6143.709319,9104.533087,2068.457845
551.008230,5551.544565,8956.491898,919.314598
551.008550,5181.441594,8438.347739,-1685.410096
551.008871,4663.297435,7846.182985,-2451.505594
551.009191,4515.256246,8364.327145,-383.047749
551.009512,5181.441594,8364.327145,76.609550
551.009832,6587.832884,8660.409521,-1072.533697
551.010153,8290.306550,9178.553681,-1149.143247
551.010473,7105.977043,9992.780217,-766.095498
551.010794,4811.338623,8216.285956,-1685.410096
551.011114,5403.503377,6661.853478,-842.705048
551.011435,5477.523971,7105.977043,1072.533697
551.011755,5329.482782,7476.080014,1685.410096
551.012076,4885.359217,6513.812290,383.047749
551.012396,4811.338623,6661.853478,-2451.505594
551.012717,4959.379811,8068.244768,-1378.971896
551.013037,4811.338623,8364.327145,229.828649
551.013358,5107.421000,6957.935855,459.657299
551.013678,6365.771101,6587.832884,0.000000
551.013999,5625.565159,7179.997637,0.000000
551.014319,3997.112087,7624.121203,-919.314598
551.014640,4145.153275,7105.977043,-536.266849
551.014960,5033.400406,8290.306550,306.438199
551.015281,6217.729913,8586.388927,1149.143247
551.015601,6513.812290,7624.121203,229.828649
551.015922,6069.688724,6809.894666,-1378.971896
551.016242,4737.318029,6883.915261,-612.876398
551.016562,4737.318029,7328.038826,766.095498
551.016883,6439.791695,6513.812290,153.219100
551.017203,7031.956449,6365.771101,0.000000
551.017524,6661.853478,7105.977043,842.705048
551.017844,5551.544565,9030.512492,153.219100
551.018165,4663.297435,9030.512492,-306.438199
551.018485,3404.947333,7846.182985,-1072.533697
551.018806,4737.318029,6809.894666,-383.047749
551.019126,6587.832884,7624.121203,1072.533697
551.019447,5551.544565,7772.162391,1149.143247
551.019767,3478.967927,8586.388927,-842.705048
551.020088,4293.194464,9326.594869,-1225.752797
551.020408,4737.318029,10510.924376,-76.609550
551.020729,4737.318029,9400.615463,1455.581446
551.021049,5773.606348,7550.100608,1991.848295
551.021370,5403.503377,7179.997637,612.876398
551.021690,3997.112087,8142.265362,689.485948
551.022011,2886.803174,7846.182985,459.657299
551.022331,4737.318029,7254.018232,0.000000
551.022652,6291.750507,7846.182985,153.219100
551.022972,6439.791695,8068.244768,842.705048
551.023293,4441.235652,8142.265362,306.438199
551.023613,5699.585753,9770.718434,76.609550
551.023934,4145.153275,10881.027347,0.000000
551.024254,4515.256246,7624.121203,-1532.190996
551.024575,7031.956449,4145.153275,-1378.971896
551.024895,6143.709319,5921.647536,-689.485948
551.025216,3997.112087,9474.636058,0.000000
551.025536,3627.009116,10881.027347,-766.095498
551.025856,3775.050304,8956.491898,-1991.848295
551.026177,5551.544565,7179.997637,-689.485948
551.026497,6365.771101,8068.244768,1838.629195
551.026818,4515.256246,7994.224174,-229.828649
551.027138,2294.638420,8586.388927,-2757.943793
551.027459,2516.700203,8808.450710,-1302.362347
551.027779,5181.441594,8142.265362,383.047749
551.028100,5625.565159,6957.935855,1302.362347
551.028420,4811.338623,6957.935855,229.828649
551.028741,3849.070898,9178.553681,-1532.190996
551.029061,3404.947333,10584.944971,-1072.533697
551.029382,2812.782580,9548.656652,-1225.752797
551.029702,5847.626942,6957.935855,-995.924147
551.030023,7179.997637,7105.977043,383.047749
551.030343,5329.482782,10066.800811,229.828649
551.030664,2812.782580,9770.718434,-383.047749
551.030984,3256.906145,7402.059420,-2068.457845
551.031305,5551.544565,6291.750507,-1225.752797
551.031625,7031.956449,7402.059420,612.876398
551.031946,5847.626942,7846.182985,612.876398
551.032266,6291.750507,8438.347739,-1225.752797
551.032587,5921.647536,7994.224174,-1532.190996
551.032907,6365.771101,7254.018232,-536.266849
551.033228,4959.379811,6143.709319,76.609550
551.033548,7031.956449,7476.080014,0.000000
551.033869,7105.977043,9548.656652,0.000000
551.034189,5625.565159,8808.450710,-1838.629195
551.034509,6143.709319,7105.977043,-2528.115143
551.034830,7105.977043,6439.791695,-1532.190996
551.035150,5181.441594,8216.285956,612.876398
551.035471,5847.626942,10362.883188,1149.143247
551.035791,4663.297435,9474.636058,-383.047749
551.036112,4737.318029,8586.388927,-766.095498
551.036432,4811.338623,8438.347739,689.485948
551.036753,3923.091493,8808.450710,1072.533697
551.037073,3108.864956,7402.059420,919.314598
551.037394,3034.844362,7179.997637,612.876398
551.037714,3034.844362,7105.977043,1072.533697
551.038035,4293.194464,8216.285956,919.314598
551.038355,2664.741391,9178.553681,229.828649
551.038676,3997.112087,9548.656652,-995.924147
551.038996,6365.771101,9844.739029,-153.219100
551.039317,4885.359217,7402.059420,0.000000
551.039637,5625.565159,5847.626942,-383.047749
551.039958,5403.503377,7031.956449,383.047749
551.040278,3997.112087,9252.574275,-76.609550
551.040599,5625.565159,10362.883188,0.000000
551.040919,5699.585753,8438.347739,-1149.143247
551.041240,6217.729913,7254.018232,-1838.629195
551.041560,7105.977043,7550.100608,306.438199
551.041881,3923.091493,7105.977043,689.485948
551.042201,3849.070898,7328.038826,-383.047749
551.042522,5255.462188,7105.977043,-306.438199
551.042842,5255.462188,7254.018232,-1838.629195
551.043163,4145.153275,6809.894666,-1225.752797
551.043483,4145.153275,7402.059420,536.266849
551.043803,4441.235652,10140.821405,459.657299
551.044124,3034.844362,9992.780217,306.438199
551.044444,3034.844362,8364.327145,-612.876398
551.044765,4737.318029,7179.997637,-1149.143247
551.045085,3404.947333,7550.100608,229.828649
551.045406,3256.906145,8586.388927,842.705048
551.045726,4145.153275,8068.244768,-1302.362347
551.046047,5033.400406,7846.182985,-1762.019645
551.046367,6513.812290,8660.409521,612.876398
551.046688,6809.894666,8734.430116,1455.581446
551.047008,4515.256246,7846.182985,-306.438199
551.047329,5255.462188,7254.018232,-766.095498
551.047649,5181.441594,6735.874072,-1378.971896
551.047970,7105.977043,7105.977043,-689.485948
551.048290,6809.894666,7179.997637,-766.095498
551.048611,7179.997637,8808.450710,-1762.019645
551.048931,6957.935855,11103.089130,-842.705048
551.049252,5181.441594,9696.697840,-612.876398
551.049572,4367.215058,7328.038826,-612.876398
551.049893,6513.812290,6809.894666,919.314598
551.050213,5921.647536,8660.409521,1149.143247
551.050534,4589.276840,9252.574275,306.438199
551.050854,2220.617826,8216.285956,-2298.286494
551.051175,4071.132681,8512.368333,-1762.019645
551.051495,4959.379811,9252.574275,1149.143247
551.051816,3034.844362,7476.080014,766.095498
551.052136,2886.803174,7328.038826,459.657299
551.052457,3997.112087,10362.883188,1149.143247
551.052777,3182.885551,11547.212695,-536.266849
551.053097,2886.803174,8734.430116,-1532.190996
551.053418,6439.791695,7105.977043,-1072.533697
551.053738,6587.832884,7920.203579,612.876398
551.054059,4885.359217,9548.656652,1302.362347
551.054379,3330.926739,9326.594869,-995.924147
551.054700,4219.173869,8956.491898,-1838.629195
551.055020,5921.647536,8290.306550,612.876398
551.055341,6217.729913,8808.450710,2451.505594
551.055661,4441.235652,6809.894666,229.828649
551.055982,4293.194464,7179.997637,-2374.896044
551.056302,4885.359217,7994.224174,229.828649
551.056623,4367.215058,8512.368333,1608.800546
551.056943,5107.421000,7179.997637,1225.752797
551.057264,5551.544565,6661.853478,-229.828649
551.057584,4663.297435,6291.750507,-1225.752797
551.057905,5107.421000,7179.997637,459.657299
551.058225,4737.318029,5995.668130,-229.828649
551.058546,5921.647536,6513.812290,-2068.457845
551.058866,6439.791695,8364.327145,-612.876398
551.059187,6069.688724,9548.656652,-995.924147
551.059507,4885.359217,8068.244768,-766.095498
551.059828,6143.709319,7105.977043,459.657299
551.060148,5551.544565,7254.018232,612.876398
551.060469,4515.256246,7254.018232,-306.438199
551.060789,3701.029710,7105.977043,-1532.190996
551.061110,5847.626942,9252.574275,-1072.533697
551.061430,5773.606348,10140.821405,459.657299
551.061751,4071.132681,8438.347739,459.657299
551.062071,3997.112087,6217.729913,842.705048
551.062391,3478.967927,7254.018232,76.609550
551.062712,2886.803174,9104.533087,2374.896044
551.063032,3478.967927,9400.615463,2068.457845
551.063353,3849.070898,8068.244768,-536.266849
551.063673,4367.215058,6883.915261,-995.924147
551.063994,5773.606348,7550.100608,383.047749
551.064314,4441.235652,8290.306550,0.000000
551.064635,4663.297435,7846.182985,-1608.800546
551.064955,5551.544565,7994.224174,-842.705048
551.065276,6439.791695,8142.265362,-153.219100
551.065596,6365.771101,8438.347739,229.828649
551.065917,6291.750507,9622.677246,153.219100
551.066237,5921.647536,8512.368333,-1608.800546
551.066558,6809.894666,8142.265362,-1762.019645
551.066878,5255.462188,5921.647536,-153.219100
551.067199,6513.812290,6217.729913,-689.485948
551.067519,7031.956449,8660.409521,229.828649
551.067840,4811.338623,9326.594869,-689.485948
551.068160,4515.256246,7994.224174,-1762.019645
551.068481,5033.400406,6883.915261,-689.485948
551.068801,5033.400406,6883.915261,-459.657299
551.069122,4441.235652,7994.224174,536.266849
551.069442,3330.926739,7846.182985,-306.438199
551.069763,4589.276840,8808.450710,-1455.581446
551.070083,3997.112087,9696.697840,-995.924147
551.070404,3701.029710,8882.471304,-1915.238745
551.070724,4589.276840,8586.388927,-1838.629195
551.071044,4145.153275,9104.533087,612.876398
551.071365,4219.173869,10732.986159,1608.800546
551.071685,5625.565159,9178.553681,1685.410096
551.072006,3997.112087,7254.018232,-1149.143247
551.072326,4663.297435,7476.080014,-459.657299
551.072647,5403.503377,7994.224174,1532.190996
551.072967,4811.338623,8512.368333,76.609550
551.073288,5995.668130,7402.059420,-689.485948
551.073608,5921.647536,6143.709319,-1455.581446
551.073929,6883.915261,7920.203579,0.000000
551.074249,5107.421000,8216.285956,1225.752797
551.074570,3775.050304,7624.121203,-612.876398
551.074890,5847.626942,8586.388927,-2374.896044
551.075211,5625.565159,8586.388927,-536.266849
551.075531,6291.750507,9474.636058,995.924147
551.075852,6069.688724,8882.471304,306.438199
551.076172,4811.338623,8290.306550,-1072.533697
551.076493,4663.297435,8142.265362,-1685.410096
551.076813,3997.112087,7402.059420,-612.876398
551.077134,4145.153275,6661.853478,536.266849
551.077454,5107.421000,6883.915261,1838.629195
551.077775,6809.894666,8142.265362,2068.457845
551.078095,4885.359217,7920.203579,229.828649
551.078416,4515.256246,8216.285956,-1302.362347
551.078736,5699.585753,8512.368333,-842.705048
551.079057,6661.853478,8882.471304,689.485948
551.079377,4811.338623,7105.977043,1149.143247
551.079698,6365.771101,5625.565159,0.000000
551.080018,6883.915261,7624.121203,612.876398
551.080339,4663.297435,9030.512492,689.485948
551.080660,4441.235652,7328.038826,0.000000
551.080980,6217.729913,5773.606348,-1149.143247
551.081301,5255.462188,5995.668130,0.000000
551.081621,4885.359217,8216.285956,995.924147
551.081942,4441.235652,7698.141797,-459.657299
551.082263,4367.215058,6735.874072,-1762.019645
551.082583,7105.977043,6957.935855,76.609550
551.082904,7031.956449,7920.203579,306.438199
551.083225,4589.276840,7550.100608,-1455.581446
551.083545,4885.359217,8364.327145,-1378.971896
551.083866,4959.379811,8512.368333,76.609550
551.084186,6661.853478,8364.327145,1225.752797
551.084507,6587.832884,6735.874072,1225.752797
551.084828,5033.400406,6513.812290,-2681.334243
551.085148,4441.235652,9178.553681,-2528.115143
551.085469,3775.050304,9918.759623,-306.438199
551.085790,4441.235652,7994.224174,0.000000
551.086110,7031.956449,6143.709319,536.266849
551.086431,6661.853478,8290.306550,306.438199
551.086751,4145.153275,9178.553681,-995.924147
551.087072,1480.411884,8808.450710,-306.438199
551.087393,2664.741391,9548.656652,842.705048
551.087713,4071.132681,9252.574275,2221.676944
551.088034,4811.338623,9104.533087,1685.410096
551.088355,4441.235652,9326.594869,-383.047749
551.088675,3923.091493,9474.636058,-1608.800546
551.088996,4885.359217,9992.780217,0.000000
551.089317,5255.462188,8512.368333,306.438199
551.089637,5033.400406,5995.668130,76.609550
551.089958,6513.812290,7772.162391,1915.238745
551.090278,6809.894666,10288.862594,1838.629195
551.090599,5181.441594,10362.883188,-383.047749
551.090920,5107.421000,8586.388927,-2834.553343
551.091240,5921.647536,7550.100608,-2374.896044
551.091561,7254.018232,7698.141797,-536.266849
551.091882,7105.977043,7698.141797,919.314598
551.092202,5995.668130,6587.832884,-153.219100
551.092523,5699.585753,7550.100608,-1225.752797
551.092843,4737.318029,8808.450710,-689.485948
551.093164,4145.153275,8142.265362,153.219100
551.093485,5995.668130,6513.812290,612.876398
551.093805,7179.997637,7031.956449,1149.143247
551.094126,4959.379811,7031.956449,229.828649
551.094447,3849.070898,6365.771101,-995.924147
551.094767,3478.967927,5995.668130,-1762.019645
551.095088,6143.709319,7550.100608,-612.876398
551.095408,6809.894666,7772.162391,306.438199
551.095729,6069.688724,7105.977043,612.876398
551.096050,4367.215058,6809.894666,612.876398
551.096370,4293.194464,9474.636058,842.705048
551.096691,3404.947333,9696.697840,536.266849
551.097012,5477.523971,7402.059420,76.609550
551.097332,7031.956449,6143.709319,-1225.752797
551.097653,3775.050304,6513.812290,-1225.752797
551.097973,3108.864956,7698.141797,0.000000
551.098294,4441.235652,8364.327145,1072.533697
551.098615,4441.235652,7328.038826,1302.362347
551.098935,5995.668130,8512.368333,842.705048
551.099256,5551.544565,7994.224174,-919.314598
551.099577,2812.782580,7031.956449,-3217.601092
551.099897,4441.235652,8290.306550,-306.438199
551.100218,5551.544565,8438.347739,1072.533697
551.100538,6661.853478,8438.347739,-536.266849
551.100859,5995.668130,7920.203579,-1149.143247
551.101180,4293.194464,8142.265362,-2604.724693
551.101500,4959.379811,9030.512492,-1302.362347
551.101821,6291.750507,9474.636058,1915.238745
551.102142,5477.523971,8142.265362,689.485948
551.102462,5847.626942,6143.709319,-306.438199
551.102783,6735.874072,7698.141797,0.000000
551.103103,5699.585753,10066.800811,229.828649
551.103424,3627.009116,9474.636058,-229.828649
551.103745,4071.132681,7105.977043,-1455.581446
551.104065,5329.482782,7254.018232,-1532.190996
551.104386,5625.565159,8512.368333,689.485948
551.104707,5477.523971,9326.594869,1302.362347
551.105027,5403.503377,9918.759623,229.828649
551.105348,3923.091493,9400.615463,-1149.143247
551.105668,2294.638420,8364.327145,-995.924147
551.105989,3775.050304,7179.997637,383.047749
551.106310,5107.421000,7698.141797,1378.971896
551.106630,4959.379811,9326.594869,1072.533697
551.106951,4441.235652,8956.491898,-1608.800546
551.107272,3849.070898,7328.038826,-3524.039291
551.107592,4589.276840,7920.203579,-1685.410096
551.107913,6513.812290,9844.739029,383.047749
551.108233,7031.956449,9400.615463,383.047749
551.108554,5847.626942,7772.162391,-383.047749
551.108875,5033.400406,7105.977043,-536.266849
551.109195,5921.647536,7105.977043,76.609550
551.109516,4737.318029,7105.977043,229.828649
551.109837,5477.523971,6957.935855,-612.876398
551.110157,5921.647536,7328.038826,-1072.533697
551.110478,5699.585753,7254.018232,0.000000
551.110799,4811.338623,7105.977043,76.609550
551.111119,6217.729913,8068.244768,383.047749
551.111440,6291.750507,8438.347739,-459.657299
551.111760,5403.503377,7846.182985,-536.266849
551.112081,3701.029710,6439.791695,-919.314598
551.112402,4367.215058,8586.388927,0.000000
551.112722,3849.070898,9770.718434,1991.848295
551.113043,4663.297435,9548.656652,689.485948
551.113364,5773.606348,8290.306550,-995.924147
551.113684,4811.338623,7105.977043,-2145.067394
551.114005,4145.153275,7550.100608,-1072.533697
551.114325,4737.318029,7772.162391,1072.533697
551.114646,4885.359217,7920.203579,2451.505594
551.114967,5699.585753,8586.388927,3064.381992
551.115287,6143.709319,8808.450710,1532.190996
551.115608,5033.400406,8068.244768,-766.095498
551.115929,3775.050304,8216.285956,-1302.362347
551.116249,3627.009116,7105.977043,-306.438199
551.116570,6587.832884,7105.977043,229.828649
551.116890,6587.832884,6587.832884,-383.047749
551.117211,4071.132681,6661.853478,-995.924147
551.117532,3701.029710,9252.574275,-383.047749
551.117852,4219.173869,11177.109724,1608.800546
551.118173,3627.009116,10288.862594,1225.752797
551.118494,4885.359217,6365.771101,306.438199
551.118814,5995.668130,5921.647536,-1532.190996
551.119135,3997.112087,7994.224174,-459.657299
551.119455,2220.617826,8512.368333,-536.266849
551.119776,3552.988522,7772.162391,-689.485948
551.120097,5107.421000,8216.285956,-1378.971896
551.120417,6069.688724,9474.636058,306.438199
551.120738,4441.235652,9622.677246,1378.971896
551.121059,4737.318029,9474.636058,1149.143247
551.121379,4145.153275,8882.471304,1225.752797
551.121700,4441.235652,6883.915261,306.438199
551.122020,5107.421000,4737.318029,-612.876398
551.122341,5699.585753,5699.585753,-919.314598
551.122662,6069.688724,8290.306550,-306.438199
551.122982,5847.626942,9104.533087,-383.047749
551.123303,6513.812290,7994.224174,-1072.533697
551.123624,6735.874072,7179.997637,-383.047749
551.123944,6217.729913,7624.121203,536.266849
551.124265,5995.668130,8438.347739,459.657299
551.124585,5403.503377,8660.409521,-919.314598
551.124906,4293.194464,7179.997637,-1149.143247
551.125227,5625.565159,6439.791695,-1378.971896
551.125547,5773.606348,7698.141797,-536.266849
551.125868,4071.132681,9474.636058,-1225.752797
551.126189,4737.318029,10140.821405,-842.705048
551.126509,4811.338623,9918.759623,-459.657299
551.126830,4441.235652,7846.182985,-1302.362347
551.127150,4885.359217,7031.956449,306.438199
551.127471,5255.462188,7772.162391,1225.752797
551.127792,4293.194464,9104.533087,919.314598
551.128112,4589.276840,10436.903782,689.485948
551.128433,4515.256246,9326.594869,-919.314598
551.128754,3775.050304,8364.327145,-2451.505594
551.129074,4589.276840,7772.162391,-689.485948
551.129395,5625.565159,7994.224174,459.657299
551.129715,4885.359217,8956.491898,919.314598
551.130036,4515.256246,9030.512492,995.924147
551.130357,3701.029710,9474.636058,766.095498
551.130677,2738.761985,8438.347739,842.705048
551.130998,4367.215058,8290.306550,1685.410096
551.131319,4737.318029,7328.038826,842.705048
551.131639,4071.132681,6291.750507,-1532.190996
551.131960,3552.988522,5921.647536,-2221.676944
551.132281,4145.153275,7920.203579,-2374.896044
551.132601,5033.400406,10214.842000,0.000000
551.132922,6957.935855,10362.883188,689.485948
551.133242,7105.977043,8512.368333,-919.314598
551.133563,5477.523971,7031.956449,-1762.019645
551.133884,5921.647536,7624.121203,612.876398
551.134204,5329.482782,8364.327145,2451.505594
551.134525,4663.297435,6735.874072,842.705048
551.134846,6439.791695,5995.668130,-1378.971896
551.135166,6143.709319,5995.668130,-2757.943793
551.135487,4367.215058,6439.791695,-2068.457845
551.135807,5329.482782,7698.141797,612.876398
551.136128,5773.606348,8808.450710,1608.800546
551.136449,6069.688724,10288.862594,1302.362347
551.136769,4737.318029,8438.347739,0.000000
551.137090,2812.782580,7328.038826,-1225.752797
551.137411,3034.844362,7550.100608,306.438199
551.137731,2368.659014,8882.471304,2451.505594
551.138052,2368.659014,9178.553681,1149.143247
551.138372,3701.029710,8364.327145,-689.485948
551.138693,4219.173869,8882.471304,-1532.190996
551.139014,4441.235652,9770.718434,-383.047749
551.139334,4071.132681,8660.409521,0.000000
551.139655,3552.988522,6883.915261,0.000000
551.139976,4737.318029,6661.853478,766.095498
551.140296,6143.709319,9326.594869,2528.115143
551.140617,4589.276840,10436.903782,1149.143247
551.140937,3849.070898,9178.553681,-2068.457845
551.141258,6809.894666,9696.697840,-2757.943793
551.141579,5773.606348,8586.388927,-2681.334243
551.141899,3923.091493,6217.729913,-2068.457845
551.142220,6735.874072,6069.688724,536.266849
551.142541,5773.606348,8290.306550,2068.457845
551.142861,4737.318029,9918.759623,2221.676944
551.143182,4663.297435,10066.800811,76.609550
551.143502,3775.050304,8512.368333,-2298.286494
551.143823,5773.606348,8142.265362,-612.876398
551.144144,6439.791695,8290.306550,2221.676944
551.144464,4737.318029,6883.915261,1072.533697
551.144785,4663.297435,5847.626942,-1225.752797
551.145106,3701.029710,7772.162391,-1762.019645
551.145426,2886.803174,9104.533087,-2757.943793
551.145747,3849.070898,9474.636058,-1762.019645
551.146067,6661.853478,9326.594869,995.924147
551.146388,5551.544565,8512.368333,1302.362347
551.146709,3997.112087,7772.162391,842.705048
551.147029,4441.235652,8586.388927,-919.314598
551.147350,4367.215058,8290.306550,-2451.505594
551.147671,5699.585753,7550.100608,-1378.971896
551.147991,9030.512492,7105.977043,-995.924147
551.148312,6809.894666,6809.894666,-1532.190996
551.148632,5403.503377,7105.977043,-306.438199
551.148953,6957.935855,10066.800811,1072.533697
551.149274,6365.771101,8142.265362,383.047749
551.149594,5181.441594,5403.503377,0.000000
551.149915,5921.647536,4737.318029,-383.047749
551.150236,5773.606348,6143.709319,-766.095498
551.150556,5255.462188,8586.388927,459.657299
551.150877,4959.379811,8956.491898,0.000000
551.151197,7254.018232,8290.306550,-1991.848295
551.151518,6291.750507,7179.997637,-1532.190996
551.151839,3256.906145,5995.668130,-1302.362347
551.152159,2442.679609,6883.915261,-919.314598
551.152480,2516.700203,8142.265362,919.314598
551.152801,3182.885551,9622.677246,612.876398
551.153121,4811.338623,11103.089130,-306.438199
551.153442,4515.256246,11695.253884,-1072.533697
551.153763,2738.761985,11251.130318,-2068.457845
551.154083,2960.823768,10584.944971,-1378.971896
551.154404,2886.803174,7698.141797,-153.219100
551.154724,4589.276840,6143.709319,612.876398
551.155045,5329.482782,6957.935855,1762.019645
551.155366,3552.988522,9326.594869,536.266849
551.155686,3404.947333,11325.150913,536.266849
551.156007,3923.091493,10584.944971,612.876398
551.156328,4737.318029,8660.409521,-459.657299
551.156648,5847.626942,7179.997637,1225.752797
551.156969,5033.400406,6735.874072,1838.629195
551.157289,3552.988522,6661.853478,306.438199
551.157610,5033.400406,7698.141797,-612.876398
551.157931,5995.668130,8660.409521,-842.705048
551.158251,6069.688724,8956.491898,-1685.410096
551.158572,7105.977043,8142.265362,-536.266849
551.158893,7254.018232,9030.512492,919.314598
551.159213,7105.977043,8586.388927,1225.752797
551.159534,6069.688724,7179.997637,229.828649
551.159854,5921.647536,4959.379811,-1762.019645
551.160175,4367.215058,5181.441594,-2911.162892
551.160496,5921.647536,6735.874072,0.000000
551.160816,5847.626942,6809.894666,919.314598
551.161137,5847.626942,7179.997637,459.657299
551.161458,5773.606348,10436.903782,383.047749
551.161778,4441.235652,10732.986159,-689.485948
551.162099,3775.050304,7476.080014,-612.876398
551.162419,5847.626942,5403.503377,842.705048
551.162740,5699.585753,5699.585753,1838.629195
551.163061,3108.864956,6809.894666,1072.533697
551.163381,3330.926739,7179.997637,-536.266849
551.163702,4959.379811,7920.203579,-1149.143247
551.164023,5921.647536,9030.512492,-153.219100
551.164343,6439.791695,7476.080014,-383.047749
551.164664,4145.153275,5625.565159,-1302.362347
551.164984,4589.276840,5995.668130,-459.657299
551.165305,5773.606348,8142.265362,2834.553343
551.165626,5551.544565,8512.368333,1608.800546
551.165946,6291.750507,8734.430116,-1915.238745
551.166267,5255.462188,8882.471304,-4060.306139
551.166588,4737.318029,9030.512492,-3294.210641
551.166908,5625.565159,7698.141797,-612.876398
551.167229,5403.503377,7105.977043,766.095498
551.167549,5995.668130,8882.471304,306.438199
551.167870,4959.379811,10288.862594,0.000000
551.168191,1776.494261,11325.150913,-1455.581446
551.168511,4367.215058,10881.027347,-1072.533697
551.168832,5181.441594,8512.368333,919.314598
551.169153,5255.462188,7920.203579,306.438199
551.169473,3108.864956,6291.750507,-1149.143247
551.169794,3108.864956,7105.977043,-1302.362347
551.170114,4515.256246,9696.697840,-1302.362347
551.170435,4737.318029,9918.759623,0.000000
551.170756,4589.276840,8734.430116,-306.438199
551.171076,5995.668130,8586.388927,383.047749
551.171397,4737.318029,10214.842000,2604.724693
551.171718,5329.482782,9992.780217,2374.896044
551.172038,5551.544565,7698.141797,842.705048
551.172359,5329.482782,5847.626942,-1378.971896
551.172679,5699.585753,7179.997637,-2451.505594
551.173000,5477.523971,7994.224174,-1072.533697
551.173321,5625.565159,9030.512492,-689.485948
551.173641,7624.121203,9696.697840,76.609550
551.173962,6291.750507,9474.636058,1072.533697
551.174283,5181.441594,8808.450710,459.657299
551.174603,4367.215058,7624.121203,-153.219100
551.174924,4663.297435,7624.121203,383.047749
551.175245,3552.988522,7550.100608,842.705048
551.175565,4071.132681,6143.709319,1072.533697
551.175886,5255.462188,7772.162391,-842.705048
551.176206,5551.544565,8512.368333,-1225.752797
551.176527,3478.967927,7105.977043,-1455.581446
551.176848,6439.791695,5921.647536,-1149.143247
551.177168,5921.647536,5107.421000,76.609550
551.177489,4811.338623,5181.441594,1225.752797
551.177810,6291.750507,7772.162391,1608.800546
551.178130,6661.853478,9178.553681,0.000000
551.178451,5625.565159,9992.780217,-1685.410096
551.178771,6069.688724,8142.265362,-1455.581446
551.179092,6513.812290,6069.688724,-2528.115143
551.179413,6217.729913,5403.503377,-766.095498
551.179733,5551.544565,5773.606348,1302.362347
551.180054,6069.688724,7698.141797,1378.971896
551.180374,5255.462188,9474.636058,306.438199
551.180695,2590.720797,8438.347739,-229.828649
551.181016,4663.297435,7031.956449,383.047749
551.181336,5033.400406,6883.915261,2374.896044
551.181657,3849.070898,7920.203579,1838.629195
551.181977,3034.844362,6217.729913,153.219100
551.182298,3775.050304,5773.606348,-2757.943793
551.182619,4367.215058,8438.347739,-2374.896044
551.182939,5699.585753,10584.944971,383.047749
551.183260,5033.400406,9696.697840,0.000000
551.183580,6143.709319,9030.512492,-1378.971896
551.183901,7254.018232,9622.677246,766.095498
551.184222,5847.626942,8586.388927,2221.676944
551.184542,4959.379811,6661.853478,1149.143247
551.184863,5773.606348,6513.812290,-383.047749
551.185183,5699.585753,7624.121203,-2221.676944
551.185504,4589.276840,7328.038826,-2374.896044
551.185825,5329.482782,7624.121203,-612.876398
551.186145,7328.038826,9030.512492,995.924147
551.186466,5551.544565,10658.965565,1608.800546
551.186787,3330.926739,9326.594869,76.609550
551.187107,3404.947333,7624.121203,-919.314598
551.187428,4589.276840,7772.162391,612.876398
551.187748,4663.297435,9474.636058,2145.067394
551.188069,4367.215058,10066.800811,229.828649
551.188390,3404.947333,8364.327145,-3140.991542
551.188710,3997.112087,8290.306550,-2528.115143
551.189031,5107.421000,8660.409521,-306.438199
551.189351,4589.276840,7698.141797,919.314598
551.189672,3182.885551,6365.771101,-459.657299
551.189993,4219.173869,6883.915261,-306.438199
551.190313,6143.709319,10584.944971,2145.067394
551.190634,4145.153275,10881.027347,1225.752797
551.190954,4959.379811,8364.327145,-1532.190996
551.191275,7920.203579,7105.977043,-2451.505594
551.191596,6143.709319,7550.100608,-1608.800546
551.191916,3923.091493,6365.771101,-612.876398
551.192237,5625.565159,6143.709319,-919.314598
551.192557,7254.018232,8290.306550,76.609550
551.192878,6587.832884,10140.821405,1455.581446
551.193199,5107.421000,10214.842000,1072.533697
551.193519,3997.112087,7105.977043,-1762.019645
551.193840,4885.359217,7402.059420,-1532.190996
551.194160,3849.070898,7105.977043,1838.629195
551.194481,3478.967927,5699.585753,1149.143247
551.194802,5255.462188,6439.791695,76.609550
551.195122,4515.256246,7772.162391,-1302.362347
551.195443,4071.132681,9326.594869,-2068.457845
551.195763,4737.318029,8956.491898,-995.924147
551.196084,5551.544565,8956.491898,76.609550
551.196405,5995.668130,8068.244768,1378.971896
551.196725,6291.750507,7402.059420,1838.629195
551.197046,5477.523971,7402.059420,76.609550
551.197367,4959.379811,7698.141797,-919.314598
551.197687,5625.565159,7772.162391,-689.485948
551.198008,6513.812290,7920.203579,-919.314598
551.198328,7105.977043,7105.977043,-536.266849
551.198649,7698.141797,7402.059420,1072.533697
551.198970,6957.935855,7254.018232,1455.581446
551.199290,4811.338623,7402.059420,919.314598
551.199611,3034.844362,6365.771101,-306.438199
551.199931,2664.741391,5773.606348,-612.876398
551.200252,4145.153275,7031.956449,842.705048
551.200573,6291.750507,9400.615463,1762.019645
551.200893,5181.441594,8068.244768,0.000000
551.201214,4219.173869,7031.956449,-2451.505594
551.201534,5995.668130,6957.935855,-2451.505594
551.201855,4515.256246,8290.306550,0.000000
551.202176,4885.359217,8956.491898,842.705048
551.202496,6365.771101,8956.491898,306.438199
551.202817,6069.688724,9400.615463,-766.095498
551.203137,4811.338623,8364.327145,-766.095498
551.203458,4219.173869,8660.409521,-229.828649
551.203779,4071.132681,7476.080014,-995.924147
551.204099,5403.503377,7328.038826,-1072.533697
551.204420,4441.235652,6587.832884,76.609550
551.204740,4663.297435,9104.533087,0.000000
551.205061,2812.782580,9474.636058,1302.362347
551.205382,2886.803174,9548.656652,1378.971896
551.205702,5181.441594,9030.512492,1149.143247
551.206023,4367.215058,8586.388927,459.657299
551.206343,3775.050304,7402.059420,0.000000
551.206664,3997.112087,8216.285956,153.219100
551.206985,3775.050304,8364.327145,-229.828649
551.207305,5551.544565,8808.450710,-536.266849
551.207626,6217.729913,9104.533087,-766.095498
551.207946,5255.462188,9474.636058,-2451.505594
551.208267,4737.318029,9104.533087,-2374.896044
551.208588,3849.070898,8216.285956,689.485948
551.208908,4959.379811,8512.368333,2145.067394
551.209229,5403.503377,7994.224174,2451.505594
551.209550,4737.318029,6143.709319,-766.095498
551.209870,5403.503377,7698.141797,-3294.210641
551.210191,5403.503377,8882.471304,-1991.848295
551.210511,4959.379811,9252.574275,-459.657299
551.210832,6439.791695,7254.018232,229.828649
551.211153,6217.729913,6735.874072,0.000000
551.211473,5921.647536,8882.471304,306.438199
551.211794,4219.173869,9326.594869,0.000000
551.212114,3701.029710,7624.121203,-995.924147
551.212435,5107.421000,6809.894666,-1762.019645
551.212756,5403.503377,7402.059420,0.000000
551.213076,6069.688724,7920.203579,689.485948
551.213397,6587.832884,7920.203579,-459.657299
551.213717,4959.379811,6809.894666,-612.876398
551.214038,5033.400406,7105.977043,-459.657299
551.214359,5033.400406,5847.626942,689.485948
551.214679,5995.668130,6587.832884,1149.143247
551.215000,7254.018232,8068.244768,1915.238745
551.215320,6365.771101,9104.533087,842.705048
551.215641,4589.276840,8142.265362,-919.314598
551.215962,3923.091493,6809.894666,-1838.629195
551.216282,5255.462188,6365.771101,-1378.971896
551.216603,6513.812290,8734.430116,0.000000
551.216923,5773.606348,8438.347739,-459.657299
551.217244,5773.606348,8142.265362,-1532.190996
551.217565,5699.585753,9326.594869,-842.705048
551.217885,4071.132681,10436.903782,306.438199
551.218206,4145.153275,8438.347739,689.485948
551.218526,5403.503377,6291.750507,306.438199
551.218847,4737.318029,5255.462188,0.000000
551.219168,4441.235652,7476.080014,76.609550
551.219488,2368.659014,8142.265362,-536.266849
551.219809,3108.864956,7772.162391,-1991.848295
551.220130,7328.038826,8956.491898,-306.438199
551.220450,7402.059420,9104.533087,689.485948
551.220771,5477.523971,8364.327145,-536.266849
551.221091,5329.482782,7920.203579,-383.047749
551.221412,4663.297435,8660.409521,612.876398
551.221733,5033.400406,9326.594869,1685.410096
551.222053,5847.626942,8512.368333,995.924147
551.222374,5107.421000,7105.977043,-2451.505594
551.222694,5255.462188,8734.430116,-2681.334243
551.223015,4367.215058,9918.759623,459.657299
551.223336,2960.823768,8808.450710,536.266849
551.223656,5255.462188,8512.368333,536.266849
551.223977,5181.441594,8660.409521,383.047749
551.224297,2812.782580,8142.265362,0.000000
551.224618,2664.741391,7105.977043,229.828649
551.224939,3404.947333,8512.368333,1149.143247
551.225259,3997.112087,8586.388927,612.876398
551.225580,4441.235652,7994.224174,0.000000
551.225900,5847.626942,8216.285956,-2068.457845
551.226221,5107.421000,8808.450710,-2221.676944
551.226542,4737.318029,9178.553681,-995.924147
551.226862,5403.503377,7772.162391,-842.705048
551.227183,5181.441594,5847.626942,-1072.533697
551.227503,6513.812290,7105.977043,689.485948
551.227824,7402.059420,9474.636058,2451.505594
551.228145,5107.421000,9104.533087,383.047749
551.228465,3849.070898,8216.285956,-2221.676944
551.228786,5625.565159,7846.182985,-2528.115143
551.229106,6143.709319,7624.121203,-1225.752797
551.229427,5995.668130,6291.750507,1149.143247
551.229748,6143.709319,7105.977043,1455.581446
551.230068,5033.400406,8438.347739,995.924147
551.230389,3256.906145,10288.862594,1149.143247
551.230709,2368.659014,8512.368333,842.705048
551.231030,4589.276840,8068.244768,-459.657299
551.231351,5699.585753,7550.100608,-153.219100
551.231671,4515.256246,7476.080014,842.705048
551.231992,3552.988522,6883.915261,-153.219100
551.232313,4071.132681,6809.894666,-995.924147
551.232633,4737.318029,8438.347739,-459.657299
551.232954,5329.482782,9548.656652,-459.657299
551.233274,5477.523971,9030.512492,-459.657299
551.233595,7105.977043,7772.162391,383.047749
551.233916,7031.956449,7328.038826,459.657299
551.234236,5107.421000,6587.832884,536.266849
551.234557,5181.441594,7550.100608,0.000000
551.234877,5329.482782,7772.162391,-1302.362347
551.235198,4663.297435,7476.080014,-1991.848295
551.235519,7920.203579,7846.182985,-689.485948
551.235839,5921.647536,8142.265362,-612.876398
551.236160,5107.421000,7772.162391,0.000000
551.236480,5995.668130,9030.512492,1838.629195
551.236801,6143.709319,8290.306550,919.314598
551.237122,3997.112087,6809.894666,-536.266849
551.237442,3256.906145,6439.791695,-1225.752797
551.237763,3627.009116,7254.018232,-1685.410096
551.238083,3997.112087,9474.636058,842.705048
551.238404,4515.256246,9030.512492,612.876398
551.238725,6661.853478,7624.121203,-1302.362347
551.239045,5773.606348,8290.306550,-995.924147
551.239366,2368.659014,8438.347739,-689.485948
551.239686,2294.638420,7550.100608,229.828649
551.240007,5107.421000,6957.935855,1762.019645
551.240328,7105.977043,9770.718434,1685.410096
551.240648,5773.606348,9844.739029,0.000000
551.240969,3478.967927,8808.450710,-3140.991542
551.241289,4145.153275,9622.677246,-3140.991542
551.241610,4219.173869,9104.533087,0.000000
551.241931,5255.462188,7031.956449,919.314598
551.242251,6587.832884,5477.523971,0.000000
551.242572,6883.915261,7994.224174,-153.219100
551.242892,4737.318029,11177.109724,1455.581446
551.243213,3182.885551,9696.697840,995.924147
551.243534,5107.421000,7031.956449,-536.266849
551.243854,6143.709319,5921.647536,0.000000
551.244175,5773.606348,6735.874072,842.705048
551.244496,4367.215058,6957.935855,0.000000
551.244816,4811.338623,7476.080014,-995.924147
551.245137,5773.606348,8586.388927,-919.314598
551.245457,7846.182985,8734.430116,-306.438199
551.245778,7624.121203,8808.450710,-689.485948
551.246099,6513.812290,9104.533087,-536.266849
551.246419,5477.523971,8142.265362,689.485948
551.246740,5255.462188,6735.874072,1762.019645
551.247060,4737.318029,5773.606348,1072.533697
551.247381,5329.482782,6957.935855,-766.095498
551.247702,4219.173869,8142.265362,-2145.067394
551.248022,5773.606348,8956.491898,-1762.019645
551.248343,4293.194464,7550.100608,-536.266849
551.248663,3997.112087,6069.688724,919.314598
551.248984,5107.421000,8882.471304,1915.238745
551.249305,4219.173869,10436.903782,1532.190996
551.249625,740.205942,8882.471304,-919.314598
551.249946,4959.379811,7105.977043,-1838.629195
551.250266,5181.441594,8216.285956,306.438199
551.250587,3182.885551,8586.388927,459.657299
551.250908,2886.803174,7920.203579,-995.924147
551.251228,5551.544565,8142.265362,-1378.971896
551.251549,7179.997637,9474.636058,-842.705048
551.251869,4663.297435,8364.327145,1455.581446
551.252190,3552.988522,5773.606348,-459.657299
551.252511,5033.400406,7105.977043,-1149.143247
551.252831,5033.400406,10362.883188,2451.505594
551.253152,4441.235652,9770.718434,1838.629195
551.253472,5329.482782,7772.162391,-1608.800546
551.253793,4589.276840,7402.059420,-2681.334243
551.254114,4145.153275,9400.615463,-1608.800546
551.254434,3108.864956,9030.512492,612.876398
551.254755,5403.503377,8734.430116,536.266849
551.255076,5921.647536,9548.656652,306.438199
551.255396,3997.112087,9770.718434,1149.143247
551.255717,2368.659014,9474.636058,306.438199
551.256037,3997.112087,8808.450710,0.000000
551.256358,3849.070898,7698.141797,153.219100
551.256679,4737.318029,7031.956449,-306.438199
551.256999,5181.441594,6069.688724,-1608.800546
551.257320,5403.503377,8290.306550,-1378.971896
551.257640,5477.523971,9696.697840,459.657299
551.257961,6661.853478,9770.718434,-153.219100
551.258282,5773.606348,8438.347739,-1685.410096
551.258602,6365.771101,7031.956449,-689.485948
551.258923,6069.688724,7105.977043,1915.238745
551.259243,6291.750507,7772.162391,2757.943793
551.259564,5107.421000,7105.977043,766.095498
551.259885,5773.606348,5847.626942,-2757.943793
551.260205,7105.977043,7105.977043,-3140.991542
551.260526,6883.915261,9104.533087,-842.705048
551.260846,6069.688724,8660.409521,1225.752797
551.261167,7105.977043,6661.853478,1149.143247
551.261488,7031.956449,7254.018232,1225.752797
551.261808,4811.338623,7698.141797,1149.143247
551.262129,2442.679609,6513.812290,-689.485948
551.262449,4959.379811,5921.647536,-1378.971896
551.262770,6143.709319,7179.997637,76.609550
551.263091,4737.318029,6957.935855,1455.581446
551.263411,4737.318029,7624.121203,-229.828649
551.263732,4737.318029,9178.553681,-1991.848295
551.264052,3182.885551,9770.718434,-1455.581446
551.264373,5181.441594,7550.100608,0.000000
551.264694,6587.832884,7179.997637,229.828649
551.265014,4293.194464,7550.100608,-306.438199
551.265335,4071.132681,8808.450710,766.095498
551.265655,3627.009116,8734.430116,306.438199
551.265976,4293.194464,8808.450710,-689.485948
551.266297,4737.318029,8512.368333,-459.657299
551.266617,5107.421000,8808.450710,-2374.896044
551.266938,3701.029710,8734.430116,-3600.648841
551.267259,4145.153275,9252.574275,-306.438199
551.267579,5033.400406,8586.388927,3294.210641
551.267900,6587.832884,9918.759623,3217.601092
551.268220,3034.844362,8290.306550,306.438199
551.268541,1998.556043,7476.080014,-2911.162892
551.268862,3552.988522,8216.285956,-919.314598
551.269182,4515.256246,8438.347739,1532.190996
551.269503,4145.153275,8216.285956,1302.362347
551.269823,5773.606348,7476.080014,-995.924147
551.270144,3849.070898,9696.697840,-3217.601092
551.270465,4293.194464,11547.212695,-919.314598
551.270785,3997.112087,10584.944971,306.438199
551.271106,5181.441594,7698.141797,76.609550
551.271426,6217.729913,7772.162391,229.828649
551.271747,6365.771101,9252.574275,2068.457845
551.272068,4441.235652,7920.203579,229.828649
551.272388,5033.400406,7105.977043,-1302.362347
551.272709,4959.379811,7179.997637,-2451.505594
551.273029,4737.318029,6291.750507,-2068.457845
551.273350,5551.544565,6809.894666,306.438199
551.273671,7402.059420,8438.347739,1225.752797
551.273991,6809.894666,10807.006753,1302.362347
551.274312,5403.503377,8956.491898,0.000000
551.274632,4737.318029,7031.956449,-1838.629195
551.274953,4737.318029,6439.791695,-612.876398
551.275274,5551.544565,7254.018232,1149.143247
551.275594,5625.565159,6587.832884,1455.581446
551.275915,5847.626942,6439.791695,-919.314598
551.276235,5551.544565,7328.038826,-1455.581446
551.276556,4737.318029,7772.162391,-995.924147
551.276877,4589.276840,6957.935855,-842.705048
551.277197,5625.565159,5551.544565,-842.705048
551.277518,5551.544565,4441.235652,536.266849
551.277839,6069.688724,7772.162391,1455.581446
551.278159,6143.709319,10066.800811,153.219100
551.278480,3552.988522,9252.574275,-2681.334243
551.278800,6143.709319,7994.224174,-2987.772442
551.279121,8512.368333,9104.533087,-1455.581446
551.279442,3478.967927,7698.141797,-842.705048
551.279762,4367.215058,7105.977043,0.000000
551.280083,5625.565159,8956.491898,689.485948
551.280403,4145.153275,10436.903782,689.485948
551.280724,3034.844362,9326.594869,689.485948
551.281045,4737.318029,8956.491898,0.000000
551.281365,3404.947333,9030.512492,-2068.457845
551.281686,2960.823768,8956.491898,919.314598
551.282006,2368.659014,7698.141797,1378.971896
551.282327,4959.379811,7105.977043,76.609550
551.282648,4441.235652,9178.553681,689.485948
551.282968,3478.967927,10362.883188,-1072.533697
551.283289,3034.844362,10140.821405,-2604.724693
551.283609,5625.565159,10584.944971,-229.828649
551.283930,6143.709319,10807.006753,2145.067394
551.284251,6957.935855,8512.368333,2757.943793
551.284571,4737.318029,6809.894666,76.609550
551.284892,4885.359217,7254.018232,-1838.629195
551.285213,3775.050304,7476.080014,-919.314598
551.285533,4959.379811,7328.038826,-76.609550
551.285854,5995.668130,6661.853478,-842.705048
551.286174,7550.100608,8068.244768,0.000000
551.286495,7254.018232,11029.068536,536.266849
551.286816,4811.338623,10066.800811,229.828649
551.287136,3108.864956,5921.647536,-1532.190996
551.287457,4441.235652,5329.482782,-842.705048
551.287777,4959.379811,8216.285956,919.314598
551.288098,2960.823768,9548.656652,1608.800546
551.288419,3478.967927,9474.636058,-995.924147
551.288739,4737.318029,8734.430116,-1915.238745
551.289060,4441.235652,8216.285956,-919.314598
551.289380,3034.844362,6217.729913,612.876398
551.289701,3775.050304,5921.647536,76.609550
551.290022,4515.256246,7105.977043,-153.219100
551.290342,4811.338623,9696.697840,842.705048
551.290663,4441.235652,8956.491898,383.047749
551.290983,5403.503377,7624.121203,-459.657299
551.291304,6365.771101,8438.347739,-153.219100
551.291625,6291.750507,8512.368333,-842.705048
551.291945,4441.235652,5847.626942,-1225.752797
551.292266,5551.544565,5847.626942,-383.047749
551.292587,6957.935855,8734.430116,1838.629195
551.292907,5107.421000,10214.842000,2451.505594
551.293228,4515.256246,8364.327145,-229.828649
551.293548,7105.977043,7402.059420,-1991.848295
551.293869,4811.338623,6661.853478,-459.657299
551.294190,3775.050304,6217.729913,1532.190996
551.294510,3182.885551,5551.544565,536.266849
551.294831,4885.359217,6809.894666,-1532.190996
551.295151,6365.771101,9770.718434,-1608.800546
551.295472,5033.400406,9548.656652,-1532.190996
551.295793,4145.153275,8882.471304,-3217.601092
551.296113,5329.482782,10140.821405,-842.705048
551.296434,3182.885551,10214.842000,1455.581446
551.296754,5255.462188,9992.780217,1991.848295
551.297075,5477.523971,9030.512492,1762.019645
551.297396,3627.009116,6809.894666,-1302.362347
551.297716,4367.215058,6587.832884,-995.924147
551.298037,6809.894666,7402.059420,459.657299
551.298357,5181.441594,7994.224174,153.219100
551.298678,7772.162391,7402.059420,1455.581446
551.298999,8734.430116,7105.977043,1455.581446
551.299319,8290.306550,6217.729913,1072.533697
551.299640,7328.038826,6217.729913,1608.800546
551.299961,8734.430116,6143.709319,1149.143247
551.300281,9030.512492,5773.606348,-766.095498
551.300602,12139.377449,4663.297435,-766.095498
551.300922,12953.603985,4219.173869,-153.219100
551.301243,11769.274478,3404.947333,-1149.143247
551.301564,10214.842000,3404.947333,-1991.848295
551.301884,9178.553681,2960.823768,-1685.410096
551.302205,9696.697840,3701.029710,-1378.971896
551.302525,11843.295072,5255.462188,229.828649
551.302846,11029.068536,6661.853478,0.000000
551.303167,8512.368333,6143.709319,-1915.238745
551.303487,6439.791695,5699.585753,-2451.505594
551.303808,7105.977043,6365.771101,-1991.848295
551.304128,7179.997637,7105.977043,-1072.533697
551.304449,7402.059420,6883.915261,0.000000
551.304770,6365.771101,7772.162391,0.000000
551.305090,4811.338623,8734.430116,842.705048
551.305411,2960.823768,8512.368333,2145.067394
551.305731,5255.462188,7105.977043,2451.505594
551.306052,5995.668130,5329.482782,1991.848295
551.306373,7105.977043,5181.441594,1915.238745
551.306693,6217.729913,4589.276840,1915.238745
551.307014,6957.935855,3256.906145,842.705048
551.307335,8512.368333,3256.906145,306.438199
551.307655,11325.150913,4515.256246,153.219100
551.307976,13693.809927,4663.297435,-306.438199
551.308296,14285.974681,5699.585753,-1302.362347
551.308617,13323.706956,5403.503377,-1302.362347
551.308938,15026.180623,5477.523971,-1302.362347
551.309258,14137.933492,4367.215058,-766.095498
551.309579,14285.974681,4293.194464,-995.924147
551.309899,14804.118840,4367.215058,-1762.019645
551.310220,11251.130318,3256.906145,-2681.334243
551.310541,9992.780217,2664.741391,-2298.286494
551.310861,9548.656652,3997.112087,306.438199
551.311182,8512.368333,5699.585753,842.705048
551.311502,9104.533087,7476.080014,229.828649
551.311823,7994.224174,8142.265362,229.828649
551.312144,5995.668130,7476.080014,-919.314598
551.312464,5255.462188,7031.956449,1149.143247
551.312785,4663.297435,7105.977043,2221.676944
551.313105,4811.338623,6957.935855,995.924147
551.313426,5551.544565,7031.956449,766.095498
551.313747,6217.729913,6883.915261,306.438199
551.314067,6661.853478,7402.059420,995.924147
551.314388,5477.523971,7179.997637,1915.238745
551.314709,7105.977043,5181.441594,1685.410096
551.315029,8956.491898,4145.153275,919.314598
551.315350,10807.006753,3775.050304,919.314598
551.315670,11177.109724,4145.153275,1072.533697
551.315991,10658.965565,3627.009116,-383.047749
551.316312,11769.274478,3552.988522,-1991.848295
551.316632,13471.748144,4589.276840,-1762.019645
551.316953,14878.139434,4589.276840,-1685.410096
551.317273,14878.139434,4811.338623,-1302.362347
551.317594,12435.459826,4219.173869,-2145.067394
551.317915,11621.233289,3552.988522,-2221.676944
551.318235,11325.150913,3182.885551,-689.485948
551.318556,10362.883188,3923.091493,-1991.848295
551.318876,10066.800811,4737.318029,-1838.629195
551.319197,8364.327145,5625.565159,-1838.629195
551.319518,7846.182985,5477.523971,-536.266849
551.319838,6809.894666,5181.441594,689.485948
551.320159,6365.771101,5773.606348,689.485948
551.320479,5699.585753,8216.285956,-306.438199
551.320800,4441.235652,9474.636058,-612.876398
551.321121,4219.173869,9474.636058,306.438199
551.321441,6365.771101,7846.182985,1991.848295
551.321762,6735.874072,7402.059420,2298.286494
551.322083,6069.688724,8142.265362,1225.752797
551.322403,6069.688724,8068.244768,689.485948
551.322724,6883.915261,6661.853478,229.828649
551.323044,9326.594869,3627.009116,2221.676944
551.323365,11029.068536,2738.761985,3524.039291
551.323686,11029.068536,3034.844362,2068.457845
551.324006,10658.965565,4145.153275,-306.438199
551.324327,12435.459826,4367.215058,-1072.533697
551.324647,14211.954086,3330.926739,-1072.533697
551.324968,16210.510130,1998.556043,-842.705048
551.325289,16358.551318,2664.741391,-1762.019645
551.325609,14434.015869,4737.318029,-2757.943793
551.325930,13989.892304,6883.915261,-2451.505594
551.326250,13767.830521,5921.647536,-1608.800546
551.326571,13545.768739,3256.906145,-995.924147
551.326892,12879.583391,2294.638420,-153.219100
551.327212,9104.533087,3775.050304,-842.705048
551.327533,6957.935855,4959.379811,-2911.162892
551.327853,6217.729913,5107.421000,-2145.067394
551.328174,7402.059420,4145.153275,689.485948
551.328495,7328.038826,4885.359217,2451.505594
551.328815,5847.626942,6957.935855,2221.676944
551.329136,3182.885551,8660.409521,-383.047749
551.329457,2442.679609,9326.594869,-1149.143247
551.329777,4071.132681,8660.409521,842.705048
551.330098,5921.647536,8142.265362,1991.848295
551.330418,6291.750507,8142.265362,2757.943793
551.330739,5403.503377,8364.327145,766.095498
551.331060,4811.338623,8068.244768,-383.047749
551.331380,4811.338623,5995.668130,-153.219100
551.331701,8364.327145,3923.091493,1608.800546
551.332021,10807.006753,3256.906145,2528.115143
551.332342,10955.047942,4219.173869,2451.505594
551.332663,11399.171507,5329.482782,842.705048
551.332983,11991.336260,4589.276840,-842.705048
551.333304,12805.562797,2738.761985,-1608.800546
551.333624,14211.954086,2294.638420,-1378.971896
551.333945,15174.221811,2368.659014,-2145.067394
551.334266,16136.489536,4737.318029,-2834.553343
551.334586,14434.015869,6809.894666,-3064.381992
551.334907,13841.851115,6513.812290,-2987.772442
551.335227,13397.727550,5551.544565,-2145.067394
551.335548,11399.171507,4219.173869,-306.438199
551.335869,8956.491898,3478.967927,229.828649
551.336189,8142.265362,3775.050304,-153.219100
551.336510,6957.935855,4367.215058,0.000000
551.336831,6143.709319,5033.400406,229.828649
551.337151,7402.059420,6143.709319,995.924147
551.337472,7550.100608,7476.080014,1378.971896
551.337792,6143.709319,8142.265362,1072.533697
551.338113,4811.338623,7550.100608,1455.581446
551.338434,5551.544565,6217.729913,1608.800546
551.338754,5699.585753,5477.523971,2451.505594
551.339075,6735.874072,5033.400406,2298.286494
551.339395,7994.224174,5329.482782,612.876398
551.339716,9104.533087,5773.606348,-842.705048
551.340037,9770.718434,6809.894666,-1302.362347
551.340357,10732.986159,6217.729913,-842.705048
551.340678,11843.295072,4885.359217,-306.438199
551.340998,12731.542202,3330.926739,766.095498
551.341319,12657.521608,2886.803174,229.828649
551.341640,11991.336260,2590.720797,-612.876398
551.341960,11473.192101,3108.864956,-1532.190996
551.342281,11695.253884,3997.112087,-1915.238745
551.342601,12287.418637,4885.359217,-2528.115143
551.342922,12361.439231,5995.668130,-2987.772442
551.343243,11769.274478,6809.894666,-3064.381992
551.343563,10658.965565,6661.853478,-1838.629195
551.343884,9326.594869,5847.626942,0.000000
551.344205,7994.224174,4737.318029,1838.629195
551.344525,7624.121203,4959.379811,1608.800546
551.344846,7105.977043,6217.729913,612.876398
551.345166,6217.729913,6809.894666,-612.876398
551.345487,6513.812290,7254.018232,-995.924147
551.345808,7328.038826,6735.874072,-229.828649
551.346128,7476.080014,5625.565159,1072.533697
551.346449,7624.121203,5773.606348,1838.629195
551.346769,7105.977043,6587.832884,1455.581446
551.347090,7105.977043,6957.935855,229.828649
551.347411,7550.100608,6217.729913,842.705048
551.347731,8808.450710,5255.462188,1072.533697
551.348052,9844.739029,6143.709319,1072.533697
551.348372,9918.759623,7105.977043,-306.438199
551.348693,9844.739029,7772.162391,-1378.971896
551.349014,10214.842000,7476.080014,-1149.143247
551.349334,10807.006753,5699.585753,0.000000
551.349655,11029.068536,4071.132681,995.924147
551.349975,10658.965565,3182.885551,766.095498
551.350296,9992.780217,2886.803174,612.876398
551.350617,10436.903782,2590.720797,76.609550
551.350937,11029.068536,1702.473667,-919.314598
551.351258,11325.150913,1924.535449,-1915.238745
551.351579,11103.089130,3404.947333,-2298.286494
551.351899,11621.233289,5477.523971,-1991.848295
551.352220,12065.356855,7179.997637,-2451.505594
551.352540,12287.418637,7772.162391,-2451.505594
551.352861,11769.274478,7772.162391,-1991.848295
551.353182,10362.883188,7179.997637,-995.924147
551.353502,8438.347739,6957.935855,229.828649
551.353823,7179.997637,6069.688724,2221.676944
551.354143,7031.956449,4811.338623,2681.334243
551.354464,6365.771101,4071.132681,3140.991542
551.354785,5477.523971,4293.194464,3140.991542
551.355105,4811.338623,4663.297435,2374.896044
551.355426,5403.503377,4219.173869,536.266849
551.355746,6883.915261,3849.070898,383.047749
551.356067,8216.285956,4737.318029,689.485948
551.356388,9178.553681,5995.668130,306.438199
551.356708,9918.759623,7476.080014,-689.485948
551.357029,10658.965565,8290.306550,-1302.362347
551.357349,11621.233289,7920.203579,-1302.362347
551.357670,11843.295072,7105.977043,-919.314598
551.357991,11251.130318,5995.668130,-766.095498
551.358311,11103.089130,4589.276840,-766.095498
551.358632,10881.027347,3182.885551,-689.485948
551.358953,10732.986159,2072.576638,-689.485948
551.359273,10807.006753,1776.494261,-306.438199
551.359594,10658.965565,3404.947333,-536.266849
551.359914,10732.986159,5847.626942,-229.828649
551.360235,9622.677246,8068.244768,383.047749
551.360556,9474.636058,8808.450710,459.657299
551.360876,8364.327145,8216.285956,536.266849
551.361197,6809.894666,7994.224174,459.657299
551.361517,5477.523971,7920.203579,459.657299
551.361838,4441.235652,7994.224174,229.828649
551.362159,4071.132681,7698.141797,76.609550
551.362479,4293.194464,7994.224174,76.609550
551.362800,3775.050304,8586.388927,919.314598
551.363120,3478.967927,8956.491898,2068.457845
551.363441,4071.132681,10214.842000,3370.820191
551.363762,4293.194464,10288.862594,4213.525239
551.364082,5329.482782,9104.533087,4519.963438
551.364403,5329.482782,8290.306550,4290.134789
551.364723,5181.441594,7402.059420,3217.601092
551.365044,5255.462188,7698.141797,3447.429741
551.365365,6069.688724,7994.224174,3140.991542
551.365685,7179.997637,9104.533087,2757.943793
551.366006,7994.224174,9548.656652,3294.210641
551.366327,7624.121203,9400.615463,3524.039291
551.366647,7476.080014,8512.368333,3983.696590
551.366968,7328.038826,7105.977043,4596.572988
551.367288,7624.121203,7254.018232,4290.134789
551.367609,7846.182985,7624.121203,3600.648841
551.367930,7328.038826,8290.306550,3524.039291
551.368250,7328.038826,8290.306550,3830.477490
551.368571,7328.038826,8660.409521,5439.278036
551.368891,6883.915261,9030.512492,6665.030833
551.369212,6069.688724,8364.327145,8120.612279
551.369533,5329.482782,7994.224174,7967.393179
551.369853,4441.235652,7254.018232,7431.126331
551.370174,4441.235652,6217.729913,7890.783629
551.370494,4145.153275,5699.585753,8273.831378
551.370815,3997.112087,6069.688724,7737.564530
551.371136,4219.173869,7402.059420,7201.297681
551.371456,3923.091493,8290.306550,6588.421283
551.371777,3775.050304,8216.285956,6435.202183
551.372097,3997.112087,7402.059420,6971.469032
551.372418,3627.009116,6883.915261,7890.783629
551.372739,3182.885551,6291.750507,7814.174080
551.373059,3404.947333,6513.812290,6665.030833
551.373380,3182.885551,6661.853478,6358.592633
551.373701,3182.885551,6587.832884,6052.154434
551.374021,4145.153275,5625.565159,5898.935335
551.374342,3701.029710,5551.544565,5362.668486
551.374662,3552.988522,5847.626942,5592.497135
551.374983,3775.050304,6291.750507,6052.154434
551.375304,3997.112087,6069.688724,6128.763984
551.375624,4145.153275,6439.791695,5975.544884
551.375945,4515.256246,7105.977043,5669.106685
551.376265,4737.318029,7846.182985,5132.839837
551.376586,4811.338623,7179.997637,4903.011187
551.376907,4589.276840,6587.832884,4903.011187
551.377227,4441.235652,6217.729913,4290.134789
551.377548,3923.091493,5033.400406,4596.572988
551.377868,3701.029710,5033.400406,3907.087040
551.378189,3775.050304,5921.647536,2911.162892
551.378510,4515.256246,7179.997637,2987.772442
551.378830,5033.400406,8808.450710,3677.258390
551.379151,5403.503377,10066.800811,3907.087040
551.379471,5847.626942,10732.986159,3830.477490
551.379792,5921.647536,10955.047942,4290.134789
551.380113,6217.729913,11547.212695,5132.839837
551.380433,5477.523971,11473.192101,5515.887586
551.380754,4959.379811,10658.965565,5975.544884
551.381074,4515.256246,9548.656652,6281.983084
551.381395,3627.009116,7920.203579,6052.154434
551.381716,2590.720797,5477.523971,4903.011187
551.382036,2812.782580,3330.926739,3524.039291
551.382357,3256.906145,3108.864956,1991.848295
551.382677,4293.194464,4589.276840,153.219100
551.382998,6587.832884,8290.306550,-536.266849
551.383318,8734.430116,13101.645173,-1685.410096
551.383639,9844.739029,17024.736666,-2145.067394
551.383959,10807.006753,18949.272115,-459.657299
551.384280,10955.047942,18357.107362,2298.286494
551.384600,9178.553681,15248.242405,4979.620737
551.384921,7031.956449,10066.800811,6741.640382
551.385242,5477.523971,7031.956449,7354.516781
551.385562,3256.906145,5033.400406,8120.612279
551.385883,-222.061783,5255.462188,6741.640382
551.386203,0.000000,4589.276840,5592.497135
551.386524,2368.659014,4145.153275,4519.963438
551.386844,2960.823768,4071.132681,4060.306139
551.387165,4071.132681,6291.750507,4136.915689
551.387485,6439.791695,9104.533087,2987.772442
551.387806,7105.977043,13101.645173,2451.505594
551.388126,5995.668130,15248.242405,1915.238745
551.388447,8290.306550,15914.427753,1991.848295
551.388768,10362.883188,14285.974681,2451.505594
551.389088,6513.812290,11251.130318,3677.258390
551.389409,3997.112087,5847.626942,4443.353888
551.389729,5551.544565,3108.864956,5822.325785
551.390050,1480.411884,2812.782580,7201.297681
551.390370,666.185348,4589.276840,5362.668486
551.390691,3775.050304,5995.668130,4060.306139
551.391011,5847.626942,7476.080014,4519.963438
551.391332,3701.029710,6217.729913,6665.030833
551.391652,4367.215058,5033.400406,8273.831378
551.391973,6883.915261,7476.080014,8656.879127
551.392294,4293.194464,11547.212695,7354.516781
551.392614,1406.391290,11103.089130,4903.011187
551.392935,4515.256246,9400.615463,2911.162892
551.393255,5699.585753,7254.018232,3294.210641
551.393576,3997.112087,6143.709319,7507.735880
551.393896,6069.688724,8586.388927,10418.898773
551.394217,3182.885551,9178.553681,7354.516781
551.394537,1258.350101,9178.553681,4979.620737
551.394858,2368.659014,5847.626942,6052.154434
551.395178,4811.338623,2960.823768,6358.592633
551.395499,4367.215058,2368.659014,7660.954980
551.395820,6217.729913,5477.523971,8350.440928
551.396140,6809.894666,10288.862594,6435.202183
551.396461,4441.235652,11029.068536,4596.572988
551.396781,3182.885551,8068.244768,4596.572988
551.397102,4145.153275,5847.626942,5592.497135
551.397422,3256.906145,5477.523971,6588.421283
551.397743,2368.659014,6365.771101,8350.440928
551.398063,6439.791695,9844.739029,8580.269578
551.398384,4663.297435,12731.542202,5975.544884
551.398705,3256.906145,13841.851115,4903.011187
551.399025,3849.070898,11695.253884,3447.429741
551.399346,3552.988522,7772.162391,3524.039291
551.399666,1628.453072,2664.741391,5745.716235
551.399987,4885.359217,1110.308913,7354.516781
551.400307,6587.832884,3997.112087,7354.516781
551.400628,4441.235652,7105.977043,6205.373534
551.400948,3849.070898,9474.636058,4596.572988
551.401269,6661.853478,11843.295072,4596.572988
551.401589,6069.688724,11769.274478,5822.325785
551.401910,5699.585753,9548.656652,7048.078582
551.402231,7105.977043,7105.977043,6665.030833
551.402551,6661.853478,7254.018232,4213.525239
551.402872,4885.359217,6439.791695,2374.896044
551.403192,4589.276840,6069.688724,459.657299
551.403513,5477.523971,8142.265362,2068.457845
551.403833,5329.482782,9696.697840,5132.839837
551.404154,5921.647536,10732.986159,7277.907231
551.404474,5995.668130,10362.883188,5745.716235
551.404795,5403.503377,10140.821405,3983.696590
551.405115,4885.359217,10510.924376,3677.258390
551.405436,4441.235652,9474.636058,3907.087040
551.405757,4737.318029,8882.471304,4903.011187
551.406077,4737.318029,8956.491898,5439.278036
551.406398,4959.379811,9918.759623,5439.278036
551.406718,5033.400406,10436.903782,4826.401637
551.407039,3701.029710,9992.780217,4826.401637
551.407359,3923.091493,9104.533087,5362.668486
551.407680,5477.523971,7254.018232,6435.202183
551.408000,5329.482782,6217.729913,4979.620737
551.408321,5107.421000,7328.038826,3907.087040
551.408641,5551.544565,8364.327145,3370.820191
551.408962,6217.729913,7994.224174,2681.334243
551.409283,8068.244768,7846.182985,4443.353888
551.409603,8364.327145,7846.182985,4903.011187
551.409924,7328.038826,7994.224174,4136.915689
551.410244,6735.874072,9104.533087,3064.381992
551.410565,5921.647536,9992.780217,3600.648841
551.410885,5477.523971,8438.347739,4826.401637
551.411206,5773.606348,5033.400406,4826.401637
551.411526,4959.379811,4219.173869,4749.792088
551.411847,3404.947333,5551.544565,4290.134789
551.412168,1702.473667,7254.018232,4673.182538
551.412488,1998.556043,8068.244768,3753.867940
551.412809,2368.659014,7846.182985,3753.867940
551.413129,3997.112087,8142.265362,4596.572988
551.413450,4515.256246,9104.533087,4903.011187
551.413770,4145.153275,10807.006753,4673.182538
551.414091,3701.029710,12879.583391,4213.525239
551.414411,3108.864956,11843.295072,5056.230287
551.414732,3330.926739,8512.368333,5822.325785
551.415052,4885.359217,6513.812290,7124.688131
551.415373,5699.585753,8290.306550,8044.002729
551.415694,3849.070898,9474.636058,6435.202183
551.416014,2146.597232,7624.121203,4290.134789
551.416335,4367.215058,4367.215058,3753.867940
551.416655,7105.977043,4219.173869,7201.297681
551.416976,6883.915261,5181.441594,8810.098227
551.417296,5773.606348,6809.894666,6665.030833
551.417617,5625.565159,7994.224174,3140.991542
551.417937,7105.977043,7402.059420,3140.991542
551.418258,9770.718434,7328.038826,5669.106685
551.418578,10955.047942,8586.388927,6665.030833
551.418899,7402.059420,9844.739029,3983.696590
551.419220,4293.194464,9326.594869,1685.410096
551.419540,5477.523971,7105.977043,2681.334243
551.419861,6069.688724,5699.585753,5362.668486
551.420181,6365.771101,6143.709319,5822.325785
551.420502,3849.070898,7698.141797,3983.696590
551.420822,888.247130,7550.100608,1378.971896
551.421143,1776.494261,6883.915261,3524.039291
551.421463,4071.132681,7550.100608,6741.640382
551.421784,4219.173869,8660.409521,6588.421283
551.422104,2442.679609,10288.862594,3524.039291
551.422425,1998.556043,11843.295072,2374.896044
551.422746,1480.411884,10066.800811,4136.915689
551.423066,3701.029710,8512.368333,6818.249932
551.423387,4737.318029,8586.388927,5592.497135
551.423707,2294.638420,9992.780217,2834.553343
551.424028,888.247130,9622.677246,3294.210641
551.424348,3478.967927,9178.553681,3140.991542
551.424669,5033.400406,6439.791695,4519.963438
551.424989,3330.926739,4071.132681,4213.525239
551.425310,4071.132681,4441.235652,2528.115143
551.425631,4441.235652,6513.812290,1608.800546
551.425951,5773.606348,7624.121203,1225.752797
551.426272,8734.430116,7402.059420,76.609550
551.426592,9918.759623,6513.812290,-1838.629195
551.426913,8586.388927,7994.224174,76.609550
551.427233,9252.574275,9548.656652,2528.115143
551.427554,8290.306550,7550.100608,1149.143247
551.427874,9474.636058,6883.915261,-1378.971896
551.428195,8586.388927,7920.203579,-612.876398
551.428515,6217.729913,8512.368333,1532.190996
551.428836,5329.482782,6735.874072,2451.505594
551.429157,6143.709319,5921.647536,1532.190996
551.429477,3923.091493,4515.256246,0.000000
551.429798,3997.112087,5477.523971,-306.438199
551.430118,3404.947333,7550.100608,0.000000
551.430439,3775.050304,9992.780217,0.000000
551.430759,4145.153275,10362.883188,229.828649
551.431080,5551.544565,10214.842000,0.000000
551.431400,4145.153275,10140.821405,766.095498
551.431721,2886.803174,10214.842000,2374.896044
551.432041,2368.659014,9548.656652,306.438199
551.432362,3552.988522,8438.347739,-1532.190996
551.432683,2664.741391,7402.059420,-995.924147
551.433003,6365.771101,9104.533087,0.000000
551.433324,6809.894666,10732.986159,383.047749
551.433644,4959.379811,10584.944971,459.657299
551.433965,5625.565159,8290.306550,76.609550
551.434285,7476.080014,5477.523971,0.000000
551.434606,5255.462188,2960.823768,995.924147
551.434926,7031.956449,3849.070898,689.485948
551.435247,7772.162391,7105.977043,-2374.896044
551.435567,7328.038826,10362.883188,-4903.011187
551.435888,7105.977043,11325.150913,-3370.820191
551.436209,10140.821405,11251.130318,-1915.238745
551.436529,8734.430116,9400.615463,-2451.505594
551.436850,5699.585753,8216.285956,-1915.238745
551.437170,3997.112087,8142.265362,-2528.115143
551.437491,4219.173869,8882.471304,-1225.752797
551.437811,3256.906145,8660.409521,1378.971896
551.438132,5329.482782,9548.656652,612.876398
551.438452,4145.153275,10436.903782,-689.485948
551.438773,1184.329507,10140.821405,536.266849
551.439093,740.205942,8290.306550,995.924147
551.439414,2738.761985,6365.771101,1762.019645
551.439735,2294.638420,6587.832884,2374.896044
551.440055,1998.556043,6809.894666,1991.848295
551.440376,2738.761985,8660.409521,1072.533697
551.440696,4071.132681,10436.903782,459.657299
551.441017,4219.173869,10510.924376,-383.047749
551.441337,5255.462188,9178.553681,-1072.533697
551.441658,6513.812290,8882.471304,-536.266849
551.441978,5551.544565,8586.388927,1302.362347
551.442299,5847.626942,7624.121203,229.828649
551.442620,5847.626942,6735.874072,-536.266849
551.442940,6143.709319,6513.812290,-766.095498
551.443261,5551.544565,6661.853478,0.000000
551.443581,5551.544565,7031.956449,0.000000
551.443902,5477.523971,5551.544565,-459.657299
551.444222,7179.997637,4589.276840,-1608.800546
551.444543,6587.832884,4441.235652,-2068.457845
551.444863,6365.771101,6735.874072,-1225.752797
551.445184,5551.544565,7476.080014,-995.924147
551.445504,7105.977043,8290.306550,-2145.067394
551.445825,6661.853478,8142.265362,-153.219100
551.446146,6217.729913,9104.533087,919.314598
551.446466,5033.400406,7328.038826,0.000000
551.446787,5329.482782,5773.606348,-1608.800546
551.447107,3923.091493,5403.503377,-1608.800546
551.447428,4959.379811,6217.729913,-536.266849
551.447748,4959.379811,8142.265362,229.828649
551.448069,3701.029710,8216.285956,1302.362347
551.448389,2664.741391,8068.244768,1378.971896
551.448710,4737.318029,7846.182985,76.609550
551.449030,3552.988522,6883.915261,-229.828649
551.449351,3552.988522,5847.626942,-229.828649
551.449672,4589.276840,7105.977043,-1225.752797
551.449992,4737.318029,8808.450710,-2451.505594
551.450313,3478.967927,8956.491898,-3524.039291
551.450633,6439.791695,9252.574275,-2374.896044
551.450954,7624.121203,9696.697840,-459.657299
551.451274,5329.482782,8734.430116,-1149.143247
551.451595,4515.256246,7846.182985,-3907.087040
551.451915,5847.626942,8364.327145,-4136.915689
551.452236,5847.626942,9400.615463,-459.657299
551.452556,6291.750507,9548.656652,1378.971896
551.452877,7105.977043,9400.615463,-2374.896044
551.453198,5181.441594,8734.430116,-4596.572988
551.453518,4737.318029,8956.491898,-2451.505594
551.453839,4737.318029,7698.141797,536.266849
551.454159,5033.400406,6957.935855,-536.266849
551.454480,5107.421000,6735.874072,-1608.800546
551.454800,5847.626942,9104.533087,-2451.505594
551.455121,4959.379811,9992.780217,-1302.362347
551.455441,5551.544565,12065.356855,0.000000
551.455762,6069.688724,13027.624579,-229.828649
551.456083,5033.400406,11695.253884,-1608.800546
551.456403,4071.132681,8290.306550,-76.609550
551.456724,4367.215058,6217.729913,-306.438199
551.457044,3256.906145,5329.482782,-1991.848295
551.457365,4071.132681,7328.038826,-2451.505594
551.457685,3701.029710,8660.409521,-2757.943793
551.458006,6809.894666,11843.295072,-1225.752797
551.458326,6513.812290,12139.377449,2145.067394
551.458647,5995.668130,10362.883188,2145.067394
551.458967,4293.194464,6365.771101,306.438199
551.459288,4737.318029,5329.482782,153.219100
551.459609,3849.070898,5625.565159,-842.705048
551.459929,6069.688724,6513.812290,-2221.676944
551.460250,6957.935855,7772.162391,-2604.724693
551.460570,6439.791695,8808.450710,-1378.971896
551.460891,5551.544565,9770.718434,536.266849
551.461211,5995.668130,10140.821405,842.705048
551.461532,3330.926739,8216.285956,76.609550
551.461852,4219.173869,5551.544565,-306.438199
551.462173,4959.379811,5107.421000,-842.705048
551.462493,3404.947333,5551.544565,229.828649
551.462814,3182.885551,7105.977043,459.657299
551.463135,7105.977043,9548.656652,-995.924147
551.463455,5551.544565,9548.656652,-1915.238745
551.463776,3849.070898,7476.080014,-842.705048
551.464096,3997.112087,5995.668130,766.095498
551.464417,5625.565159,6439.791695,2681.334243
551.464737,4663.297435,8142.265362,3447.429741
551.465058,4071.132681,8142.265362,1225.752797
551.465378,4293.194464,6957.935855,-1991.848295
551.465699,5107.421000,7254.018232,-306.438199
551.466019,4737.318029,7105.977043,1685.410096
551.466340,4145.153275,5699.585753,459.657299
551.466661,3552.988522,6217.729913,-1915.238745
551.466981,3775.050304,7031.956449,-2451.505594
551.467302,5033.400406,7994.224174,-919.314598
551.467622,5551.544565,7772.162391,1225.752797
551.467943,6291.750507,9696.697840,1225.752797
551.468263,5255.462188,12065.356855,306.438199
551.468584,4293.194464,11473.192101,-842.705048
551.468904,3404.947333,7179.997637,-1685.410096
551.469225,4367.215058,4663.297435,-1225.752797
551.469546,4885.359217,5107.421000,306.438199
551.469866,4515.256246,7105.977043,-536.266849
551.470187,3552.988522,8734.430116,-2604.724693
551.470507,4811.338623,9918.759623,-2145.067394
551.470828,4071.132681,8734.430116,536.266849
551.471148,5181.441594,7846.182985,1608.800546
551.471469,5847.626942,8956.491898,306.438199
551.471789,4145.153275,9104.533087,-995.924147
551.472110,4071.132681,7772.162391,-3753.867940
551.472430,6883.915261,7772.162391,-3447.429741
551.472751,5181.441594,8882.471304,-1532.190996
551.473072,5255.462188,9770.718434,995.924147
551.473392,6587.832884,11917.315666,995.924147
551.473713,4737.318029,11325.150913,-1685.410096
551.474033,2146.597232,7920.203579,-1685.410096
551.474354,5551.544565,6291.750507,0.000000
551.474674,5181.441594,7105.977043,842.705048
551.474995,3182.885551,7772.162391,536.266849
551.475315,4589.276840,9104.533087,-3140.991542
551.475636,6513.812290,8364.327145,-5439.278036
551.475956,4071.132681,7476.080014,-1378.971896
551.476277,7105.977043,8290.306550,3217.601092
551.476598,7920.203579,9770.718434,842.705048
551.476918,5033.400406,10436.903782,-1608.800546
551.477239,5329.482782,11103.089130,-1072.533697
551.477559,7105.977043,9622.677246,0.000000
551.477880,5995.668130,7846.182985,766.095498
551.478200,5329.482782,7179.997637,766.095498
551.478521,5329.482782,7179.997637,-2451.505594
551.478841,4293.194464,7476.080014,-2221.676944
551.479162,4737.318029,7624.121203,1455.581446
551.479482,6069.688724,6883.915261,2451.505594
551.479803,7328.038826,9252.574275,2451.505594
551.480124,5329.482782,10881.027347,2145.067394
551.480444,3552.988522,9400.615463,0.000000
551.480765,3775.050304,7328.038826,-689.485948
551.481086,6735.874072,7772.162391,2451.505594
551.481406,5033.400406,7254.018232,2451.505594
551.481727,4515.256246,5625.565159,0.000000
551.482048,3997.112087,6069.688724,-2068.457845
551.482368,3552.988522,7179.997637,-1685.410096
551.482689,3849.070898,7550.100608,0.000000
551.483010,5477.523971,7624.121203,1455.581446
551.483330,4515.256246,8512.368333,919.314598
551.483651,4885.359217,8586.388927,0.000000
551.483972,5033.400406,7698.141797,153.219100
551.484293,2886.803174,4441.235652,-689.485948
551.484613,2368.659014,3849.070898,-1378.971896
551.484934,4737.318029,7550.100608,459.657299
551.485255,3849.070898,9178.553681,-153.219100
551.485575,4367.215058,8438.347739,-459.657299
551.485896,6661.853478,8734.430116,153.219100
551.486217,3849.070898,7105.977043,612.876398
551.486537,1332.370696,5477.523971,1455.581446
551.486858,4811.338623,6735.874072,1455.581446
551.487179,4811.338623,7994.224174,383.047749
551.487499,3256.906145,7550.100608,-919.314598
551.487820,4811.338623,8438.347739,-2221.676944
551.488141,5921.647536,7328.038826,-1378.971896
551.488461,3923.091493,7179.997637,1072.533697
551.488782,6513.812290,9030.512492,1762.019645
551.489103,5847.626942,10140.821405,-1838.629195
551.489423,3256.906145,8734.430116,-1608.800546
551.489744,4737.318029,8290.306550,1455.581446
551.490065,7698.141797,8734.430116,2451.505594
551.490385,5921.647536,9622.677246,1608.800546
551.490706,5033.400406,9104.533087,-1302.362347
551.491027,5477.523971,8364.327145,-4213.525239
551.491347,5181.441594,7550.100608,-995.924147
551.491668,7179.997637,7550.100608,3907.087040
551.491989,7624.121203,7328.038826,1915.238745
551.492309,6587.832884,9918.759623,-1762.019645
551.492630,4737.318029,11843.295072,-1378.971896
551.492951,5107.421000,10066.800811,-229.828649
551.493272,7105.977043,7994.224174,1685.410096
551.493592,7624.121203,9178.553681,3294.210641
551.493913,5181.441594,9474.636058,1608.800546
551.494234,4663.297435,9474.636058,-1608.800546
551.494554,4367.215058,7994.224174,-1149.143247
551.494875,5773.606348,7550.100608,2451.505594
551.495196,6439.791695,8438.347739,3830.477490
551.495516,4959.379811,9474.636058,2987.772442
551.495837,2442.679609,9474.636058,0.000000
551.496158,3775.050304,9326.594869,-766.095498
551.496478,4145.153275,7031.956449,766.095498
551.496799,3997.112087,5847.626942,2604.724693
551.497120,4959.379811,7105.977043,2528.115143
551.497440,4663.297435,9696.697840,-306.438199
551.497761,2886.803174,9474.636058,-3370.820191
551.498082,4293.194464,7846.182985,-1225.752797
551.498402,6587.832884,8216.285956,2681.334243
551.498723,5995.668130,8586.388927,4673.182538
551.499044,3182.885551,8734.430116,2145.067394
551.499364,2960.823768,6291.750507,-1915.238745
551.499685,3330.926739,5329.482782,-2451.505594
551.500006,4589.276840,5255.462188,1915.238745
551.500326,5625.565159,6143.709319,2681.334243
551.500647,5847.626942,7476.080014,-459.657299
551.500968,3775.050304,8512.368333,-2604.724693
551.501288,3034.844362,6513.812290,-612.876398
551.501609,4515.256246,4071.132681,1838.629195
551.501930,5403.503377,5403.503377,3524.039291
551.502251,4293.194464,8290.306550,1762.019645
551.502571,4145.153275,8956.491898,-2145.067394
551.502892,4885.359217,7772.162391,-3294.210641
551.503213,4811.338623,5255.462188,-229.828649
551.503533,5995.668130,6291.750507,2604.724693
551.503854,6439.791695,8290.306550,842.705048
551.504175,1628.453072,7105.977043,-3447.429741
551.504495,4515.256246,6735.874072,-3447.429741
551.504816,7476.080014,6883.915261,0.000000
551.505137,6365.771101,7402.059420,1991.848295
551.505457,4959.379811,8660.409521,536.266849
551.505778,5699.585753,10955.047942,-3753.867940
551.506099,4515.256246,10658.965565,-4136.915689
551.506419,4737.318029,7920.203579,-612.876398
551.506740,7254.018232,6735.874072,1072.533697
551.507061,5255.462188,7402.059420,306.438199
551.507381,3182.885551,9844.739029,919.314598
551.507702,4811.338623,11399.171507,-689.485948
551.508023,6143.709319,9992.780217,-2451.505594
551.508343,5995.668130,8512.368333,-1149.143247
551.508664,5995.668130,7920.203579,766.095498
551.508985,4737.318029,8586.388927,0.000000
551.509305,4737.318029,9104.533087,-536.266849
551.509626,5551.544565,9770.718434,-1072.533697
551.509947,6661.853478,9622.677246,-1225.752797
551.510268,5551.544565,10288.862594,229.828649
551.510588,5403.503377,10214.842000,153.219100
551.510909,5329.482782,9992.780217,-76.609550
551.511230,7105.977043,9770.718434,-766.095498
551.511550,5699.585753,8438.347739,-536.266849
551.511871,5995.668130,6957.935855,306.438199
551.512192,5699.585753,7772.162391,1302.362347
551.512512,5033.400406,9400.615463,612.876398
551.512833,4737.318029,9992.780217,-612.876398
551.513154,6661.853478,9104.533087,-1455.581446
551.513474,6883.915261,7476.080014,0.000000
551.513795,6587.832884,7328.038826,1225.752797
551.514116,5699.585753,6883.915261,919.314598
551.514436,5773.606348,7031.956449,-1072.533697
551.514757,4737.318029,9252.574275,0.000000
551.515078,3552.988522,9400.615463,1915.238745
551.515398,5255.462188,7624.121203,1838.629195
551.515719,5995.668130,6735.874072,1455.581446
551.516040,3849.070898,7179.997637,1378.971896
551.516360,2886.803174,7254.018232,842.705048
551.516681,3923.091493,6735.874072,-1302.362347
551.517002,2664.741391,3923.091493,-1302.362347
551.517322,3478.967927,4589.276840,1072.533697
551.517643,5255.462188,7105.977043,2757.943793
551.517964,3627.009116,10288.862594,0.000000
551.518284,1184.329507,9400.615463,-2221.676944
551.518605,5181.441594,9104.533087,-612.876398
551.518926,5181.441594,6439.791695,1838.629195
551.519247,3997.112087,4737.318029,2681.334243
551.519567,2072.576638,6143.709319,459.657299
551.519888,3108.864956,9918.759623,-2528.115143
551.520209,2590.720797,9104.533087,-1225.752797
551.520529,6587.832884,7624.121203,1838.629195
551.520850,7254.018232,6513.812290,2374.896044
551.521171,4441.235652,6439.791695,2145.067394
551.521491,1184.329507,5403.503377,612.876398
551.521812,3997.112087,5255.462188,-995.924147
551.522133,5921.647536,6883.915261,-536.266849
551.522453,7698.141797,8660.409521,919.314598
551.522774,7402.059420,8734.430116,-383.047749
551.523095,6661.853478,8956.491898,-766.095498
551.523415,4441.235652,8956.491898,229.828649
551.523736,5255.462188,7105.977043,536.266849
551.524057,6365.771101,5255.462188,-536.266849
551.524377,5847.626942,5107.421000,-1915.238745
551.524698,5181.441594,8660.409521,-1915.238745
551.525019,7105.977043,12287.418637,-612.876398
551.525339,5847.626942,11473.192101,-689.485948
551.525660,6217.729913,8660.409521,-383.047749
551.525981,5921.647536,7031.956449,0.000000
551.526301,3997.112087,6217.729913,-459.657299
551.526622,3256.906145,7402.059420,-383.047749
551.526943,5329.482782,8216.285956,-536.266849
551.527263,7179.997637,10214.842000,-2068.457845
551.527584,5995.668130,10732.986159,-2298.286494
551.527905,4959.379811,10066.800811,-1915.238745
551.528226,5995.668130,8364.327145,-536.266849
551.528546,6291.750507,8512.368333,306.438199
551.528867,3330.926739,6587.832884,-459.657299
551.529188,5255.462188,6513.812290,-2834.553343
551.529508,6957.935855,8882.471304,-2145.067394
551.529829,5625.565159,11177.109724,153.219100
551.530150,4811.338623,10362.883188,306.438199
551.530470,7476.080014,10362.883188,-2221.676944
551.530791,4441.235652,9252.574275,-2528.115143
551.531112,2368.659014,6735.874072,-383.047749
551.531432,4145.153275,5847.626942,1225.752797
551.531753,5625.565159,7550.100608,0.000000
551.532074,2664.741391,9474.636058,-1532.190996
551.532394,4293.194464,10955.047942,-2451.505594
551.532715,3997.112087,9548.656652,-2451.505594
551.533036,4441.235652,8364.327145,229.828649
551.533356,5033.400406,8142.265362,2145.067394
551.533677,6143.709319,8512.368333,76.609550
551.533998,3997.112087,7920.203579,-1072.533697
551.534318,4737.318029,7698.141797,-766.095498
551.534639,5403.503377,7772.162391,-842.705048
551.534960,6217.729913,9400.615463,383.047749
551.535280,5255.462188,9844.739029,536.266849
551.535601,5107.421000,7624.121203,-689.485948
551.535922,5181.441594,6143.709319,-612.876398
551.536242,5773.606348,4737.318029,1225.752797
551.536563,4293.194464,4885.359217,612.876398
551.536884,4737.318029,6143.709319,0.000000
551.537205,4737.318029,9400.615463,-1225.752797
551.537525,5181.441594,9622.677246,-766.095498
551.537846,6587.832884,8290.306550,-153.219100
551.538167,7179.997637,7179.997637,1532.190996
551.538487,4589.276840,6513.812290,1378.971896
551.538808,2146.597232,5625.565159,-306.438199
551.539129,3182.885551,5329.482782,-2068.457845
551.539449,6143.709319,6291.750507,-536.266849
551.539770,6143.709319,8660.409521,919.314598
551.540091,4219.173869,9252.574275,0.000000
551.540411,4515.256246,9178.553681,-1838.629195
551.540732,4959.379811,7994.224174,-1302.362347
551.541053,5255.462188,6957.935855,842.705048
551.541373,3330.926739,5033.400406,1608.800546
551.541694,2960.823768,5403.503377,-459.657299
551.542015,4441.235652,7698.141797,-612.876398
551.542335,5033.400406,10362.883188,-1149.143247
551.542656,4293.194464,9400.615463,-1685.410096
551.542977,6069.688724,9770.718434,-919.314598
551.543297,5921.647536,9696.697840,383.047749
551.543618,3849.070898,7920.203579,2145.067394
551.543939,3182.885551,6439.791695,1532.190996
551.544259,4811.338623,7179.997637,-229.828649
551.544580,3552.988522,8956.491898,-689.485948
551.544901,4737.318029,9918.759623,0.000000
551.545221,5477.523971,9326.594869,-1149.143247
551.545542,5773.606348,7994.224174,-1302.362347
551.545863,4737.318029,7328.038826,-383.047749
551.546184,4367.215058,6587.832884,-459.657299
551.546504,2960.823768,6365.771101,-1378.971896
551.546825,5107.421000,7772.162391,-1991.848295
551.547146,6735.874072,9992.780217,-2834.553343
551.547466,7624.121203,11547.212695,-2221.676944
551.547787,6217.729913,12361.439231,-995.924147
551.548108,6291.750507,10510.924376,-612.876398
551.548428,5181.441594,7846.182985,-1225.752797
551.548749,3997.112087,5107.421000,-612.876398
551.549070,4737.318029,5255.462188,-842.705048
551.549390,6069.688724,8142.265362,-1378.971896
551.549711,3923.091493,10214.842000,-1532.190996
551.550032,4663.297435,10436.903782,-995.924147
551.550352,5625.565159,10214.842000,229.828649
551.550673,5699.585753,8216.285956,1991.848295
551.550994,3627.009116,6587.832884,1685.410096
551.551314,4367.215058,6735.874072,-306.438199
551.551635,4663.297435,7994.224174,-1991.848295
551.551956,5181.441594,8734.430116,-459.657299
551.552276,7105.977043,10066.800811,536.266849
551.552597,8364.327145,11621.233289,1608.800546
551.552918,5255.462188,10584.944971,0.000000
551.553238,2960.823768,6143.709319,-2221.676944
551.553559,4293.194464,4071.132681,-2145.067394
551.553880,5625.565159,5625.565159,612.876398
551.554200,7476.080014,8586.388927,1302.362347
551.554521,7328.038826,10584.944971,-842.705048
551.554842,6513.812290,12287.418637,-2221.676944
551.555163,4885.359217,10362.883188,1455.581446
551.555483,7031.956449,8808.450710,4443.353888
551.555804,5773.606348,5921.647536,4136.915689
551.556125,2960.823768,5329.482782,1762.019645
551.556445,2146.597232,4959.379811,0.000000
551.556766,4293.194464,5847.626942,-1455.581446
551.557087,3627.009116,6439.791695,-919.314598
551.557407,5403.503377,8882.471304,383.047749
551.557728,5477.523971,10510.924376,383.047749
551.558049,4071.132681,9326.594869,536.266849
551.558369,2368.659014,6809.894666,459.657299
551.558690,4145.153275,5181.441594,1838.629195
551.559011,4219.173869,6217.729913,3370.820191
551.559331,3775.050304,8216.285956,995.924147
551.559652,3256.906145,9030.512492,-2528.115143
551.559973,4293.194464,9400.615463,-3447.429741
551.560293,4885.359217,8882.471304,-995.924147
551.560614,5181.441594,6735.874072,1915.238745
551.560935,4441.235652,5181.441594,1762.019645
551.561255,4441.235652,4959.379811,-383.047749
551.561576,3182.885551,5107.421000,-995.924147
551.561897,4367.215058,5255.462188,0.000000
551.562217,6365.771101,8512.368333,1915.238745
551.562538,5033.400406,9400.615463,1302.362347
551.562859,4515.256246,8512.368333,-2374.896044
551.563179,5181.441594,6069.688724,-4519.963438
551.563500,5699.585753,5847.626942,-3217.601092
551.563821,5107.421000,6143.709319,229.828649
551.564142,5033.400406,7920.203579,842.705048
551.564462,4515.256246,10510.924376,-1149.143247
551.564783,4219.173869,12139.377449,-1762.019645
551.565104,4589.276840,9474.636058,229.828649
551.565424,4367.215058,5107.421000,-995.924147
551.565745,4219.173869,4071.132681,-3140.991542
551.566066,4071.132681,6143.709319,-3677.258390
551.566386,4441.235652,7328.038826,-4060.306139
551.566707,8142.265362,10214.842000,-3217.601092
551.567028,7698.141797,12657.521608,-1685.410096
551.567348,7698.141797,14063.912898,0.000000
551.567669,6513.812290,12139.377449,1072.533697
551.567990,5773.606348,10288.862594,995.924147
551.568310,5255.462188,7920.203579,1149.143247
551.568631,7105.977043,8808.450710,1072.533697
551.568952,3997.112087,7920.203579,-612.876398
551.569272,2812.782580,8512.368333,-1608.800546
551.569593,5847.626942,10362.883188,0.000000
551.569914,5995.668130,10658.965565,0.000000
551.570234,4071.132681,9326.594869,0.000000
551.570555,5773.606348,7920.203579,766.095498
551.570876,4737.318029,8290.306550,-612.876398
551.571196,5477.523971,10510.924376,306.438199
551.571517,6217.729913,11695.253884,1685.410096
551.571838,7624.121203,11843.295072,383.047749
551.572158,7105.977043,11103.089130,153.219100
551.572479,6439.791695,11399.171507,995.924147
551.572800,4589.276840,9178.553681,459.657299
551.573121,4885.359217,6809.894666,842.705048
551.573441,5403.503377,5551.544565,1225.752797
551.573762,3997.112087,5255.462188,1762.019645
551.574083,4293.194464,6217.729913,3370.820191
551.574403,4293.194464,6587.832884,2987.772442
551.574724,3034.844362,7550.100608,2528.115143
551.575045,3627.009116,7402.059420,2068.457845
551.575365,3997.112087,6661.853478,-842.705048
551.575686,4071.132681,4589.276840,-1532.190996
551.576007,5551.544565,5403.503377,0.000000
551.576327,4811.338623,6291.750507,612.876398
551.576648,3256.906145,6365.771101,0.000000
551.576969,2590.720797,6217.729913,0.000000
551.577289,5995.668130,8808.450710,0.000000
551.577610,4885.359217,8364.327145,689.485948
551.577931,3997.112087,6143.709319,1149.143247
551.578251,3627.009116,3330.926739,919.314598
551.578572,4293.194464,3849.070898,0.000000
551.578893,814.226536,2812.782580,-842.705048
551.579213,3108.864956,4219.173869,-1455.581446
551.579534,5107.421000,5255.462188,-1378.971896
551.579855,4959.379811,6587.832884,-536.266849
551.580175,4737.318029,6735.874072,-766.095498
551.580496,5329.482782,8290.306550,-1149.143247
551.580816,3627.009116,9104.533087,76.609550
551.581137,6069.688724,9992.780217,2451.505594
551.581457,6883.915261,9770.718434,1378.971896
551.581778,4367.215058,8290.306550,-2374.896044
551.582099,2886.803174,7105.977043,-2528.115143
551.582419,5255.462188,8586.388927,-536.266849
551.582740,4367.215058,7994.224174,612.876398
551.583060,5477.523971,7328.038826,689.485948
551.583381,5107.421000,7105.977043,-1838.629195
551.583701,4293.194464,7846.182985,-1455.581446
551.584022,3478.967927,9548.656652,2221.676944
551.584343,7328.038826,11621.233289,1915.238745
551.584663,8438.347739,13397.727550,-842.705048
551.584984,7402.059420,14359.995275,-1378.971896
551.585304,6735.874072,13397.727550,-2145.067394
551.585625,7105.977043,9400.615463,-229.828649
551.585945,7105.977043,8882.471304,2145.067394
551.586266,6957.935855,9696.697840,1149.143247
551.586587,5033.400406,10955.047942,-3064.381992
551.586907,5255.462188,11399.171507,-1762.019645
551.587228,6217.729913,11473.192101,2757.943793
551.587548,6735.874072,10510.924376,4903.011187
551.587869,5847.626942,9400.615463,2528.115143
551.588189,4071.132681,8068.244768,-766.095498
551.588510,3182.885551,8290.306550,-1455.581446
551.588831,5625.565159,9326.594869,1455.581446
551.589151,6883.915261,9252.574275,2757.943793
551.589472,6143.709319,7550.100608,689.485948
551.589792,4959.379811,8216.285956,-306.438199
551.590113,4145.153275,7994.224174,383.047749
551.590433,3552.988522,6809.894666,-383.047749
551.590754,4589.276840,5625.565159,-1149.143247
551.591075,6439.791695,7846.182985,76.609550
551.591395,2812.782580,7105.977043,-383.047749
551.591716,2590.720797,5921.647536,-2757.943793
551.592036,4145.153275,4441.235652,-3677.258390
551.592357,4071.132681,3849.070898,-2068.457845
551.592677,4885.359217,5255.462188,-536.266849
551.592998,5255.462188,8364.327145,-1532.190996
551.593319,3552.988522,9918.759623,-1991.848295
551.593639,5255.462188,8882.471304,383.047749
551.593960,6217.729913,5995.668130,2834.553343
551.594280,3478.967927,2960.823768,2451.505594
551.594601,1406.391290,2960.823768,842.705048
551.594921,3552.988522,5403.503377,-1302.362347
551.595242,1776.494261,4737.318029,-3907.087040
551.595563,4293.194464,3478.967927,-2221.676944
551.595883,7624.121203,6809.894666,0.000000
551.596204,4959.379811,8364.327145,1149.143247
551.596524,2220.617826,7476.080014,229.828649
551.596845,5477.523971,7772.162391,-1838.629195
551.597165,6513.812290,9770.718434,-2145.067394
551.597486,6809.894666,11103.089130,1608.800546
551.597807,6439.791695,10140.821405,383.047749
551.598127,7179.997637,9178.553681,-2451.505594
551.598448,4885.359217,9770.718434,-536.266849
551.598768,4959.379811,9252.574275,1378.971896
551.599089,5403.503377,7402.059420,383.047749
551.599409,5033.400406,7550.100608,1149.143247
551.599730,4663.297435,9696.697840,1455.581446
551.600051,5403.503377,9104.533087,306.438199
551.600371,4959.379811,7846.182985,76.609550
551.600692,7328.038826,10214.842000,2068.457845
551.601012,7328.038826,12435.459826,1149.143247
551.601333,4293.194464,11473.192101,-1532.190996
551.601653,4589.276840,10436.903782,-2068.457845
551.601974,6291.750507,9252.574275,229.828649
551.602295,6513.812290,9400.615463,2221.676944
551.602615,4959.379811,9104.533087,1762.019645
551.602936,3627.009116,9474.636058,-1608.800546
551.603256,4219.173869,10288.862594,-2221.676944
551.603577,4515.256246,9252.574275,306.438199
551.603897,4071.132681,6217.729913,1762.019645
551.604218,6587.832884,5255.462188,766.095498
551.604539,4589.276840,5921.647536,-689.485948
551.604859,3997.112087,7698.141797,-3064.381992
551.605180,4219.173869,8068.244768,-2681.334243
551.605500,7031.956449,8216.285956,-1225.752797
551.605821,7105.977043,8216.285956,-766.095498
551.606141,6661.853478,10436.903782,-995.924147
551.606462,3701.029710,9104.533087,-2298.286494
551.606783,3997.112087,7105.977043,-1225.752797
551.607103,5107.421000,6439.791695,0.000000
551.607424,4219.173869,7105.977043,0.000000
551.607744,2294.638420,6439.791695,-1838.629195
551.608065,2664.741391,6365.771101,-2987.772442
551.608385,3256.906145,7105.977043,-689.485948
551.608706,5033.400406,6957.935855,2604.724693
551.609027,5181.441594,5995.668130,1455.581446
551.609347,4811.338623,5699.585753,-536.266849
551.609668,4663.297435,8216.285956,-229.828649
551.609988,6439.791695,10658.965565,1378.971896
551.610309,6365.771101,10288.862594,919.314598
551.610629,7105.977043,7698.141797,306.438199
551.610950,7328.038826,7031.956449,229.828649
551.611271,6217.729913,7179.997637,306.438199
551.611591,3775.050304,7179.997637,229.828649
551.611912,4441.235652,6217.729913,-1149.143247
551.612232,5995.668130,6883.915261,-1072.533697
551.612553,5699.585753,8808.450710,842.705048
551.612873,5403.503377,9622.677246,536.266849
551.613194,5921.647536,9104.533087,-766.095498
551.613515,5551.544565,10066.800811,919.314598
551.613835,5329.482782,8882.471304,2374.896044
551.614156,5625.565159,8512.368333,1302.362347
551.614476,3182.885551,7476.080014,612.876398
551.614797,2960.823768,7179.997637,153.219100
551.615117,4071.132681,7476.080014,153.219100
551.615438,4737.318029,8956.491898,-919.314598
551.615759,3923.091493,9030.512492,-1455.581446
551.616079,4219.173869,9104.533087,-1225.752797
551.616400,4885.359217,9400.615463,306.438199
551.616720,3849.070898,7920.203579,1455.581446
551.617041,1776.494261,5551.544565,-612.876398
551.617361,5551.544565,7328.038826,-1302.362347
551.617682,4589.276840,9178.553681,-612.876398
551.618003,4367.215058,8660.409521,-1915.238745
551.618323,4663.297435,7994.224174,-2528.115143
551.618644,5995.668130,8660.409521,0.000000
551.618964,4737.318029,6809.894666,1991.848295
551.619285,5773.606348,5551.544565,689.485948
551.619605,3478.967927,5625.565159,-2604.724693
551.619926,2812.782580,6809.894666,-2911.162892
551.620247,6069.688724,7254.018232,-919.314598
551.620567,7179.997637,6291.750507,-1685.410096
551.620888,4663.297435,5847.626942,-3140.991542
551.621208,7254.018232,8290.306550,-3677.258390
551.621529,5329.482782,9400.615463,-3677.258390
551.621849,3404.947333,7698.141797,-2528.115143
551.622170,7254.018232,9030.512492,-306.438199
551.622491,9474.636058,12287.418637,-612.876398
551.622811,4737.318029,11177.109724,-1302.362347
551.623132,4145.153275,9548.656652,-1149.143247
551.623452,6143.709319,8586.388927,-612.876398
551.623773,4737.318029,7476.080014,1532.190996
551.624093,4071.132681,6217.729913,1762.019645
551.624414,5255.462188,6735.874072,-1302.362347
551.624735,4663.297435,9770.718434,-1532.190996
551.625055,4071.132681,10066.800811,2068.457845
551.625376,6587.832884,9844.739029,1838.629195
551.625696,7105.977043,8734.430116,0.000000
551.626017,4885.359217,10214.842000,0.000000
551.626337,4515.256246,10955.047942,-612.876398
551.626658,5477.523971,10362.883188,-995.924147
551.626979,5329.482782,8364.327145,536.266849
551.627299,6217.729913,8660.409521,229.828649
551.627620,4959.379811,9030.512492,-1608.800546
551.627940,2886.803174,9770.718434,-2451.505594
551.628261,3182.885551,9104.533087,76.609550
551.628581,6735.874072,7994.224174,1608.800546
551.628902,6513.812290,7105.977043,1149.143247
551.629223,3849.070898,7105.977043,-229.828649
551.629543,3330.926739,6809.894666,0.000000
551.629864,5921.647536,8068.244768,1225.752797
551.630184,4737.318029,7846.182985,1455.581446
551.630505,4219.173869,6661.853478,-1149.143247
551.630825,4737.318029,6217.729913,-2451.505594
551.631146,5625.565159,8438.347739,-229.828649
551.631467,2812.782580,7105.977043,612.876398
551.631787,3478.967927,6291.750507,-1532.190996
551.632108,4737.318029,7772.162391,-2298.286494
551.632428,4293.194464,8142.265362,-383.047749
551.632749,3923.091493,7550.100608,1149.143247
551.633069,6069.688724,7846.182985,229.828649
551.633390,2738.761985,6513.812290,-1302.362347
551.633711,3701.029710,5995.668130,766.095498
551.634031,6735.874072,7105.977043,2757.943793
551.634352,4441.235652,5699.585753,2068.457845
551.634672,3701.029710,4959.379811,-229.828649
551.634993,6291.750507,7328.038826,-1072.533697
551.635313,3997.112087,8290.306550,-1685.410096
551.635634,4367.215058,7476.080014,459.657299
