#time,accel_x,accel_y,accel_z
562.879770,5255.462188,8290.306550,0.000000
562.880090,5107.421000,8438.347739,-229.828649
562.880411,4885.359217,8068.244768,-306.438199
562.880732,5181.441594,7994.224174,0.000000
562.881052,4959.379811,8068.244768,0.000000
562.881373,5181.441594,8068.244768,-383.047749
562.881693,4885.359217,7994.224174,-229.828649
562.882014,5033.400406,7920.203579,0.000000
562.882335,4885.359217,7846.182985,-153.219100
562.882655,5181.441594,7624.121203,0.000000
562.882976,4737.318029,8364.327145,0.000000
562.883296,4885.359217,7994.224174,0.000000
562.883617,4959.379811,7846.182985,0.000000
562.883938,5033.400406,7624.121203,0.000000
562.884258,4885.359217,7994.224174,-153.219100
562.884579,5107.421000,7994.224174,-383.047749
562.884899,4885.359217,8068.244768,0.000000
562.885220,4959.379811,8290.306550,-229.828649
562.885541,4737.318029,7846.182985,-306.438199
562.885861,4959.379811,7920.203579,0.000000
562.886182,4885.359217,8364.327145,-229.828649
562.886502,4737.318029,8068.244768,0.000000
562.886823,4811.338623,8068.244768,0.000000
562.887144,4885.359217,7920.203579,0.000000
562.887464,5033.400406,8142.265362,0.000000
562.887785,4959.379811,7994.224174,-76.609550
562.888105,5033.400406,7920.203579,-536.266849
562.888426,4589.276840,7698.141797,-383.047749
562.888747,4441.235652,7624.121203,-536.266849
562.889067,4145.153275,7772.162391,306.438199
562.889388,4441.235652,8882.471304,0.000000
562.889708,4663.297435,10066.800811,-995.924147
562.890029,4441.235652,10066.800811,-1302.362347
562.890350,4441.235652,9548.656652,-1225.752797
562.890670,3997.112087,8882.471304,-766.095498
562.890991,2812.782580,8808.450710,689.485948
562.891311,2812.782580,9252.574275,1225.752797
562.891632,2738.761985,9474.636058,689.485948
562.891953,2590.720797,9252.574275,0.000000
562.892273,2960.823768,7994.224174,-536.266849
562.892594,2886.803174,8438.347739,0.000000
562.892914,3108.864956,9474.636058,153.219100
562.893235,2886.803174,9252.574275,383.047749
562.893556,2368.659014,8956.491898,229.828649
562.893876,2442.679609,9178.553681,0.000000
562.894197,2664.741391,10066.800811,-612.876398
562.894517,2220.617826,11695.253884,-1149.143247
562.894838,1554.432478,12213.398043,-1532.190996
562.895159,1554.432478,11695.253884,-1302.362347
562.895479,888.247130,11473.192101,-1225.752797
562.895800,-222.061783,10732.986159,-995.924147
562.896120,-1036.288319,11251.130318,-919.314598
562.896441,-1554.432478,12435.459826,-306.438199
562.896762,-1924.535449,12805.562797,536.266849
562.897082,-1554.432478,11843.295072,1378.971896
562.897403,-518.144159,12139.377449,1608.800546
562.897723,-1184.329507,12361.439231,1762.019645
562.898044,-2294.638420,12361.439231,1455.581446
562.898365,-2368.659014,11177.109724,306.438199
562.898685,-1554.432478,9992.780217,-153.219100
562.899006,-444.123565,8808.450710,459.657299
562.899326,-592.164754,9770.718434,995.924147
562.899647,0.000000,10732.986159,229.828649
562.899968,222.061783,11103.089130,-919.314598
562.900288,740.205942,11621.233289,-1532.190996
562.900609,1850.514855,10807.006753,-1072.533697
562.900929,2590.720797,10362.883188,-306.438199
562.901250,2960.823768,10510.924376,612.876398
562.901571,2812.782580,9992.780217,-689.485948
562.901891,2072.576638,9770.718434,-1838.629195
562.902212,1850.514855,8956.491898,-1991.848295
562.902532,2072.576638,9178.553681,-919.314598
562.902853,1998.556043,9474.636058,0.000000
562.903174,1776.494261,9696.697840,-383.047749
562.903494,1258.350101,10584.944971,-383.047749
562.903815,518.144159,11251.130318,0.000000
562.904135,148.041188,11029.068536,383.047749
562.904456,-148.041188,10288.862594,689.485948
562.904777,-222.061783,10066.800811,842.705048
562.905097,0.000000,10362.883188,1149.143247
562.905418,-740.205942,10658.965565,995.924147
562.905738,-740.205942,11325.150913,612.876398
562.906059,74.020594,11547.212695,919.314598
562.906380,814.226536,11843.295072,1302.362347
562.906700,740.205942,11399.171507,1455.581446
562.907021,1110.308913,10955.047942,-536.266849
562.907341,962.267725,10288.862594,-766.095498
562.907662,1184.329507,9400.615463,-536.266849
562.907983,1258.350101,8660.409521,0.000000
562.908303,1554.432478,8290.306550,612.876398
562.908624,2590.720797,8882.471304,306.438199
562.908944,2368.659014,10140.821405,306.438199
562.909265,2738.761985,10955.047942,-766.095498
562.909586,2886.803174,11103.089130,-1302.362347
562.909906,3330.926739,10362.883188,-766.095498
562.910227,3552.988522,10066.800811,-1608.800546
562.910547,3182.885551,9992.780217,-1378.971896
562.910868,2590.720797,9918.759623,-1302.362347
562.911189,1554.432478,10584.944971,-995.924147
562.911509,592.164754,11843.295072,-536.266849
562.911830,518.144159,12065.356855,-306.438199
562.912150,296.082377,11325.150913,-919.314598
562.912471,-814.226536,10658.965565,-1455.581446
562.912792,-1776.494261,9474.636058,-1225.752797
562.913112,-2368.659014,9030.512492,306.438199
562.913433,-1924.535449,9326.594869,1685.410096
562.913753,-962.267725,10510.924376,2221.676944
562.914074,-370.102971,12065.356855,1762.019645
562.914395,666.185348,13915.871710,1838.629195
562.914715,740.205942,14285.974681,153.219100
562.915036,1776.494261,12509.480420,0.000000
562.915356,2812.782580,10732.986159,-459.657299
562.915677,1628.453072,9030.512492,-995.924147
562.915998,518.144159,8586.388927,-1378.971896
562.916318,-222.061783,8956.491898,-1762.019645
562.916639,-1184.329507,9770.718434,-2221.676944
562.916959,-740.205942,10288.862594,-1532.190996
562.917280,592.164754,11547.212695,-766.095498
562.917601,1184.329507,12731.542202,0.000000
562.917921,740.205942,13545.768739,0.000000
562.918242,74.020594,13693.809927,153.219100
562.918562,814.226536,12805.562797,0.000000
562.918883,1036.288319,11547.212695,76.609550
562.919204,1036.288319,9400.615463,-76.609550
562.919524,1110.308913,7772.162391,-1149.143247
562.919845,1184.329507,8660.409521,-383.047749
562.920165,518.144159,10288.862594,1072.533697
562.920486,296.082377,10955.047942,1149.143247
562.920807,0.000000,10214.842000,919.314598
562.921127,-296.082377,9474.636058,306.438199
562.921448,74.020594,9696.697840,153.219100
562.921768,666.185348,10214.842000,76.609550
562.922089,1110.308913,11621.233289,-689.485948
562.922410,1332.370696,12731.542202,-1378.971896
562.922730,666.185348,13027.624579,-1685.410096
562.923051,0.000000,12731.542202,-1762.019645
562.923371,0.000000,13027.624579,-689.485948
562.923692,-592.164754,12731.542202,536.266849
562.924013,-222.061783,11103.089130,689.485948
562.924333,1036.288319,9918.759623,1455.581446
562.924654,-740.205942,10288.862594,1532.190996
562.924974,-962.267725,10140.821405,1378.971896
562.925295,-1480.411884,9178.553681,1072.533697
562.925616,-1776.494261,7698.141797,76.609550
562.925936,-888.247130,8068.244768,0.000000
562.926257,962.267725,9918.759623,459.657299
562.926577,2294.638420,12213.398043,-536.266849
562.926898,1924.535449,13471.748144,-995.924147
562.927219,1776.494261,12731.542202,-1455.581446
562.927539,1702.473667,10066.800811,-2757.943793
562.927860,1628.453072,7920.203579,-1225.752797
562.928180,2960.823768,8882.471304,1302.362347
562.928501,2146.597232,11251.130318,995.924147
562.928822,444.123565,11991.336260,-1149.143247
562.929142,1110.308913,11991.336260,-2757.943793
562.929463,1036.288319,11547.212695,-2145.067394
562.929783,-444.123565,9178.553681,-689.485948
562.930104,0.000000,7328.038826,76.609550
562.930425,222.061783,8882.471304,-536.266849
562.930745,-1036.288319,12065.356855,0.000000
562.931066,-2146.597232,13989.892304,229.828649
562.931386,-1850.514855,14211.954086,0.000000
562.931707,-444.123565,14359.995275,842.705048
562.932028,-666.185348,13841.851115,1455.581446
562.932348,-740.205942,11399.171507,306.438199
562.932669,-1332.370696,9992.780217,-995.924147
562.932989,-370.102971,10140.821405,383.047749
562.933310,444.123565,10362.883188,1149.143247
562.933631,148.041188,8512.368333,229.828649
562.933951,814.226536,7994.224174,153.219100
562.934272,2442.679609,9030.512492,1072.533697
562.934592,2516.700203,10362.883188,1225.752797
562.934913,3849.070898,11769.274478,612.876398
562.935234,5403.503377,11695.253884,-1838.629195
562.935554,5995.668130,11769.274478,-2451.505594
562.935875,4663.297435,10658.965565,-2451.505594
562.936195,1776.494261,7550.100608,-2834.553343
562.936516,1480.411884,6735.874072,-2298.286494
562.936837,3034.844362,9622.677246,536.266849
562.937157,1554.432478,12287.418637,1838.629195
562.937478,1036.288319,12953.603985,-689.485948
562.937798,1406.391290,12583.501014,-2145.067394
562.938119,222.061783,11029.068536,-766.095498
562.938440,-2516.700203,8882.471304,842.705048
562.938760,-2294.638420,8512.368333,1302.362347
562.939081,-296.082377,11029.068536,536.266849
562.939402,-740.205942,13841.851115,153.219100
562.939722,-1554.432478,13915.871710,-842.705048
562.940043,-1184.329507,12731.542202,-536.266849
562.940364,-1850.514855,10881.027347,1838.629195
562.940684,-888.247130,11029.068536,4290.134789
562.941005,888.247130,11547.212695,3677.258390
562.941326,-592.164754,10955.047942,0.000000
562.941646,-1258.350101,10066.800811,-842.705048
562.941967,-370.102971,9178.553681,459.657299
562.942288,148.041188,8142.265362,306.438199
562.942608,1332.370696,7994.224174,1149.143247
562.942929,2812.782580,9104.533087,612.876398
562.943250,3775.050304,10288.862594,-689.485948
562.943570,3552.988522,11991.336260,-1455.581446
562.943891,3552.988522,12805.562797,-2221.676944
562.944211,3775.050304,11917.315666,-2451.505594
562.944532,3256.906145,10510.924376,-2221.676944
562.944853,3034.844362,7698.141797,-1378.971896
562.945173,1702.473667,6735.874072,-919.314598
562.945494,666.185348,8660.409521,-766.095498
562.945815,-370.102971,11399.171507,-1302.362347
562.946135,-1258.350101,12139.377449,-2451.505594
562.946456,222.061783,12065.356855,-1608.800546
562.946777,444.123565,11769.274478,1762.019645
562.947097,-518.144159,11843.295072,3294.210641
562.947418,-2294.638420,12583.501014,3294.210641
562.947739,-3182.885551,12657.521608,1302.362347
562.948059,-2516.700203,11103.089130,-229.828649
562.948380,-962.267725,9622.677246,0.000000
562.948701,0.000000,9030.512492,919.314598
562.949021,296.082377,10732.986159,1455.581446
562.949342,-1036.288319,13471.748144,1072.533697
562.949663,-1184.329507,13767.830521,-1455.581446
562.949983,1480.411884,12657.521608,-1225.752797
562.950304,2664.741391,10436.903782,0.000000
562.950625,888.247130,7550.100608,1225.752797
562.950945,2072.576638,7179.997637,1685.410096
562.951266,2368.659014,9104.533087,842.705048
562.951587,2368.659014,10658.965565,-1532.190996
562.951907,5033.400406,11103.089130,-2451.505594
562.952228,4515.256246,10362.883188,-3140.991542
562.952549,2442.679609,8586.388927,-2834.553343
562.952869,3627.009116,7772.162391,-612.876398
562.953190,3775.050304,9770.718434,842.705048
562.953510,2146.597232,10955.047942,-536.266849
562.953831,1332.370696,11991.336260,-1685.410096
562.954152,1036.288319,12213.398043,-2681.334243
562.954472,0.000000,13027.624579,-2604.724693
562.954793,-888.247130,13101.645173,-153.219100
562.955114,0.000000,11769.274478,689.485948
562.955434,-666.185348,9474.636058,1455.581446
562.955755,-3701.029710,9548.656652,2681.334243
562.956076,-4441.235652,11843.295072,1302.362347
562.956396,-3404.947333,14063.912898,995.924147
562.956717,-2368.659014,14952.160028,2451.505594
562.957038,222.061783,14285.974681,2221.676944
562.957358,-1184.329507,9474.636058,2681.334243
562.957679,-1332.370696,8734.430116,2068.457845
562.958000,-518.144159,11399.171507,2757.943793
562.958320,-2516.700203,11843.295072,1149.143247
562.958641,-592.164754,8512.368333,-2528.115143
562.958962,4367.215058,7772.162391,-2604.724693
562.959282,5033.400406,8882.471304,0.000000
562.959603,4589.276840,11843.295072,1455.581446
562.959924,3775.050304,11843.295072,0.000000
562.960244,3627.009116,10066.800811,-3983.696590
562.960565,4367.215058,8142.265362,-2987.772442
562.960886,4441.235652,6661.853478,-536.266849
562.961206,4737.318029,7920.203579,-459.657299
562.961527,2812.782580,10584.944971,306.438199
562.961848,2664.741391,11251.130318,-1455.581446
562.962168,2516.700203,8216.285956,-3140.991542
562.962489,3108.864956,6143.709319,-1915.238745
562.962810,3108.864956,8438.347739,689.485948
562.963130,1628.453072,11029.068536,2681.334243
562.963451,666.185348,10955.047942,1685.410096
562.963771,1776.494261,8660.409521,1225.752797
562.964092,2220.617826,6883.915261,1455.581446
562.964413,3108.864956,6735.874072,2451.505594
562.964733,2220.617826,8586.388927,1762.019645
562.965054,740.205942,8808.450710,-995.924147
562.965375,4811.338623,9844.739029,-1762.019645
562.965695,5403.503377,8068.244768,-153.219100
562.966016,4219.173869,5921.647536,-76.609550
562.966337,5033.400406,7254.018232,306.438199
562.966657,4145.153275,9178.553681,0.000000
562.966978,5329.482782,9474.636058,-1072.533697
562.967299,7105.977043,7402.059420,-1532.190996
562.967619,8290.306550,6809.894666,-1302.362347
562.967940,7105.977043,7698.141797,-383.047749
562.968261,7846.182985,9252.574275,-306.438199
562.968581,7105.977043,8216.285956,-2604.724693
562.968902,5995.668130,6143.709319,-4290.134789
562.969223,7254.018232,5847.626942,-2068.457845
562.969543,7402.059420,8438.347739,689.485948
562.969864,4589.276840,10881.027347,689.485948
562.970185,4515.256246,10214.842000,-766.095498
562.970505,5699.585753,7994.224174,-1915.238745
562.970826,4959.379811,5847.626942,-842.705048
562.971147,5181.441594,6735.874072,1762.019645
562.971467,4145.153275,7328.038826,919.314598
562.971788,3849.070898,8290.306550,0.000000
562.972109,5107.421000,9030.512492,0.000000
562.972429,4959.379811,8512.368333,-1225.752797
562.972750,4589.276840,7846.182985,-1685.410096
562.973071,4959.379811,9548.656652,-229.828649
562.973391,5625.565159,13175.665768,459.657299
562.973712,4145.153275,12509.480420,-383.047749
562.974032,3182.885551,8142.265362,-1838.629195
562.974353,4589.276840,7179.997637,-1455.581446
562.974674,3182.885551,9918.759623,1149.143247
562.974994,1776.494261,11251.130318,2298.286494
562.975315,2368.659014,9326.594869,-1685.410096
562.975636,3849.070898,7772.162391,-3370.820191
562.975956,3849.070898,7846.182985,0.000000
562.976277,3775.050304,8068.244768,3677.258390
562.976598,3701.029710,7550.100608,2834.553343
562.976918,4959.379811,9178.553681,2068.457845
562.977239,6069.688724,10140.821405,0.000000
562.977560,6069.688724,9252.574275,-1838.629195
562.977880,7698.141797,7624.121203,-536.266849
562.978201,6957.935855,7105.977043,536.266849
562.978522,5921.647536,6809.894666,612.876398
562.978842,6883.915261,5921.647536,-1915.238745
562.979163,7550.100608,6143.709319,-2451.505594
562.979484,5773.606348,5921.647536,-1149.143247
562.979804,6143.709319,5551.544565,766.095498
562.980125,6513.812290,5255.462188,1225.752797
562.980446,5921.647536,5329.482782,612.876398
562.980766,7179.997637,7031.956449,1378.971896
562.981087,6439.791695,8882.471304,689.485948
562.981408,6143.709319,7994.224174,-2145.067394
562.981728,5921.647536,8216.285956,-2451.505594
562.982049,6513.812290,7846.182985,-689.485948
562.982370,5033.400406,7179.997637,0.000000
562.982690,4737.318029,7254.018232,1532.190996
562.983011,3701.029710,7994.224174,1225.752797
562.983332,3849.070898,8216.285956,2145.067394
562.983652,2516.700203,8068.244768,3064.381992
562.983973,2886.803174,8438.347739,1072.533697
562.984293,2368.659014,6439.791695,153.219100
562.984614,4293.194464,4219.173869,612.876398
562.984935,4959.379811,4293.194464,1072.533697
562.985255,4663.297435,5699.585753,1532.190996
562.985576,5033.400406,9178.553681,612.876398
562.985897,5329.482782,12435.459826,-1532.190996
562.986217,4515.256246,10362.883188,-2374.896044
562.986538,7624.121203,8142.265362,-306.438199
562.986859,8068.244768,7328.038826,1149.143247
562.987179,6661.853478,7920.203579,-766.095498
562.987500,4737.318029,8364.327145,-3294.210641
562.987821,4219.173869,8512.368333,-3753.867940
562.988141,5847.626942,6809.894666,-995.924147
562.988462,7105.977043,6513.812290,3140.991542
562.988783,6291.750507,8512.368333,2451.505594
562.989103,2590.720797,8068.244768,-1762.019645
562.989424,2812.782580,8660.409521,-2834.553343
562.989745,4737.318029,7846.182985,-1685.410096
562.990065,5921.647536,7328.038826,689.485948
562.990386,5625.565159,7328.038826,1378.971896
562.990707,4145.153275,8956.491898,-995.924147
562.991027,2220.617826,10658.965565,-1915.238745
562.991348,3849.070898,11843.295072,-689.485948
562.991669,5403.503377,9474.636058,-459.657299
562.991989,5773.606348,7624.121203,-1072.533697
562.992310,6143.709319,8068.244768,612.876398
562.992631,3330.926739,9030.512492,-459.657299
562.992951,2072.576638,7402.059420,-1149.143247
562.993272,5181.441594,7772.162391,1225.752797
562.993593,5033.400406,6513.812290,1149.143247
562.993913,4737.318029,7254.018232,-689.485948
562.994234,6439.791695,10362.883188,-1915.238745
562.994554,5329.482782,12657.521608,-2528.115143
562.994875,5477.523971,12509.480420,-1608.800546
562.995196,5181.441594,9252.574275,0.000000
562.995516,4663.297435,7550.100608,-612.876398
562.995837,4293.194464,8956.491898,612.876398
562.996158,3849.070898,9474.636058,0.000000
562.996478,3108.864956,8882.471304,-1838.629195
562.996799,4737.318029,8586.388927,-383.047749
562.997120,5329.482782,7179.997637,1072.533697
562.997440,5033.400406,4663.297435,1762.019645
562.997761,6587.832884,3256.906145,1762.019645
562.998082,5625.565159,4071.132681,995.924147
562.998402,4441.235652,5847.626942,0.000000
562.998723,8438.347739,9030.512492,-153.219100
562.999044,8882.471304,9992.780217,-1072.533697
562.999364,9474.636058,9770.718434,-1225.752797
562.999685,9992.780217,7476.080014,-612.876398
563.000006,5551.544565,7105.977043,-2757.943793
563.000326,4959.379811,7031.956449,-3370.820191
563.000647,4737.318029,7254.018232,-1149.143247
563.000968,4959.379811,6217.729913,229.828649
563.001288,7328.038826,5403.503377,2145.067394
563.001609,7624.121203,7105.977043,2834.553343
563.001930,3256.906145,7031.956449,536.266849
563.002250,2738.761985,5625.565159,-536.266849
563.002571,4663.297435,4959.379811,1685.410096
563.002892,6291.750507,4219.173869,1455.581446
563.003212,8068.244768,5403.503377,1685.410096
563.003533,7550.100608,8068.244768,0.000000
563.003854,4589.276840,11177.109724,-1455.581446
563.004174,3108.864956,11251.130318,153.219100
563.004495,4589.276840,9622.677246,459.657299
563.004815,5255.462188,7254.018232,-612.876398
563.005136,5181.441594,8512.368333,-689.485948
563.005457,5255.462188,9696.697840,-536.266849
563.005777,888.247130,8068.244768,-2298.286494
563.006098,3034.844362,6365.771101,-383.047749
563.006419,5477.523971,7105.977043,2757.943793
563.006739,4071.132681,7031.956449,3524.039291
563.007060,2442.679609,8068.244768,2145.067394
563.007381,5255.462188,8586.388927,-766.095498
563.007701,5255.462188,9622.677246,-2528.115143
563.008022,5995.668130,10288.862594,76.609550
563.008343,6513.812290,9400.615463,229.828649
563.008663,3182.885551,7476.080014,-1532.190996
563.008984,3552.988522,8586.388927,-1225.752797
563.009305,4959.379811,10658.965565,0.000000
563.009625,1776.494261,9622.677246,-1302.362347
563.009946,3701.029710,10955.047942,-2221.676944
563.010267,5551.544565,10955.047942,-459.657299
563.010587,2072.576638,9696.697840,-1225.752797
563.010908,3775.050304,7328.038826,612.876398
563.011229,3923.091493,4959.379811,612.876398
563.011549,2368.659014,5921.647536,0.000000
563.011870,2442.679609,8512.368333,459.657299
563.012191,5329.482782,11251.130318,306.438199
563.012511,6439.791695,10955.047942,-383.047749
563.012832,6513.812290,9844.739029,995.924147
563.013153,5107.421000,8586.388927,689.485948
563.013473,4367.215058,7994.224174,-1915.238745
563.013794,3627.009116,7179.997637,-1685.410096
563.014115,5403.503377,6883.915261,-1608.800546
563.014435,7698.141797,6587.832884,842.705048
563.014756,6365.771101,5995.668130,612.876398
563.015076,5847.626942,7179.997637,-612.876398
563.015397,6143.709319,8882.471304,-842.705048
563.015718,4663.297435,6661.853478,-383.047749
563.016038,6217.729913,5255.462188,0.000000
563.016359,8512.368333,5625.565159,-689.485948
563.016680,6735.874072,7698.141797,-1838.629195
563.017000,5847.626942,9918.759623,-1455.581446
563.017321,6069.688724,10288.862594,-1072.533697
563.017642,5699.585753,9178.553681,-306.438199
563.017962,5477.523971,5921.647536,153.219100
563.018283,6661.853478,5699.585753,-1302.362347
563.018604,4071.132681,7624.121203,-306.438199
563.018924,3701.029710,8438.347739,1532.190996
563.019245,5699.585753,7920.203579,919.314598
563.019566,5995.668130,5403.503377,-153.219100
563.019886,5995.668130,5255.462188,1072.533697
563.020207,4293.194464,6439.791695,2221.676944
563.020528,4737.318029,7698.141797,536.266849
563.020848,6661.853478,8808.450710,0.000000
563.021169,7624.121203,8956.491898,-1302.362347
563.021490,7031.956449,8956.491898,-1685.410096
563.021810,5773.606348,9030.512492,0.000000
563.022131,3849.070898,10214.842000,-229.828649
563.022452,3997.112087,9844.739029,-1149.143247
563.022772,4589.276840,7994.224174,-1608.800546
563.023093,5181.441594,7402.059420,-612.876398
563.023414,4515.256246,8364.327145,842.705048
563.023734,4293.194464,9252.574275,919.314598
563.024055,3701.029710,8660.409521,383.047749
563.024376,3404.947333,6883.915261,536.266849
563.024696,3404.947333,5847.626942,1608.800546
563.025017,3997.112087,6143.709319,1378.971896
563.025337,6661.853478,8956.491898,-306.438199
563.025658,6143.709319,11473.192101,-842.705048
563.025979,3997.112087,10955.047942,-229.828649
563.026299,3849.070898,10510.924376,-612.876398
563.026620,4589.276840,10066.800811,-306.438199
563.026941,3034.844362,8956.491898,-383.047749
563.027261,5107.421000,8808.450710,0.000000
563.027582,3108.864956,8216.285956,-229.828649
563.027903,2516.700203,7105.977043,-689.485948
563.028223,3701.029710,8290.306550,306.438199
563.028544,4367.215058,7550.100608,1302.362347
563.028865,4293.194464,6069.688724,1838.629195
563.029185,4663.297435,5921.647536,1302.362347
563.029506,3034.844362,6143.709319,-1991.848295
563.029827,4145.153275,7772.162391,-1915.238745
563.030147,6883.915261,10436.903782,306.438199
563.030468,7105.977043,11843.295072,306.438199
563.030789,5699.585753,9030.512492,-612.876398
563.031109,4885.359217,7105.977043,-2757.943793
563.031430,3997.112087,8068.244768,-3370.820191
563.031751,3404.947333,10436.903782,-306.438199
563.032071,4737.318029,11325.150913,1302.362347
563.032392,4811.338623,8512.368333,0.000000
563.032713,6291.750507,6143.709319,0.000000
563.033033,5107.421000,6217.729913,1608.800546
563.033354,1850.514855,5847.626942,766.095498
563.033675,2146.597232,5921.647536,0.000000
563.033995,4959.379811,6513.812290,612.876398
563.034316,7624.121203,6217.729913,76.609550
563.034636,7994.224174,7772.162391,995.924147
563.034957,6439.791695,9548.656652,842.705048
563.035278,4145.153275,10288.862594,-1072.533697
563.035598,4367.215058,9252.574275,-1685.410096
563.035919,7476.080014,7846.182985,-1915.238745
563.036240,7698.141797,5773.606348,-1915.238745
563.036560,7179.997637,7772.162391,-536.266849
563.036881,5255.462188,9474.636058,-459.657299
563.037202,4663.297435,8660.409521,-842.705048
563.037522,5551.544565,6661.853478,766.095498
563.037843,4959.379811,5773.606348,1915.238745
563.038163,3404.947333,5181.441594,383.047749
563.038483,5255.462188,8512.368333,-612.876398
563.038804,5551.544565,10288.862594,-1532.190996
563.039125,4737.318029,8290.306550,-1532.190996
563.039445,5921.647536,8216.285956,995.924147
563.039766,4219.173869,9178.553681,229.828649
563.040086,1628.453072,9400.615463,-536.266849
563.040407,3775.050304,9178.553681,-306.438199
563.040727,4811.338623,8808.450710,-1608.800546
563.041048,5773.606348,8068.244768,-1302.362347
563.041368,5921.647536,7476.080014,-1149.143247
563.041689,4811.338623,8438.347739,-229.828649
563.042009,3627.009116,6735.874072,2145.067394
563.042330,3997.112087,5921.647536,2757.943793
563.042650,4663.297435,6291.750507,76.609550
563.042971,3997.112087,7402.059420,-2911.162892
563.043291,6587.832884,10807.006753,-1762.019645
563.043612,7920.203579,12953.603985,0.000000
563.043932,5773.606348,10288.862594,1378.971896
563.044253,4441.235652,6809.894666,842.705048
563.044573,5033.400406,5847.626942,-1685.410096
563.044894,2368.659014,7179.997637,-995.924147
563.045215,2664.741391,9178.553681,766.095498
563.045535,4737.318029,9104.533087,-229.828649
563.045856,5773.606348,7105.977043,-766.095498
563.046176,5255.462188,7550.100608,229.828649
563.046497,3478.967927,7402.059420,1685.410096
563.046817,2294.638420,7105.977043,153.219100
563.047138,3330.926739,6661.853478,-919.314598
563.047458,5847.626942,7031.956449,-1762.019645
563.047779,8216.285956,9696.697840,-306.438199
563.048099,7179.997637,11621.233289,1608.800546
563.048420,4219.173869,11843.295072,766.095498
563.048740,5181.441594,11029.068536,-842.705048
563.049061,4293.194464,8882.471304,-1608.800546
563.049381,5181.441594,8438.347739,-1302.362347
563.049702,4293.194464,7179.997637,0.000000
563.050022,4589.276840,7105.977043,459.657299
563.050343,4441.235652,6217.729913,2221.676944
563.050664,3701.029710,5551.544565,2911.162892
563.050984,3627.009116,6291.750507,2298.286494
563.051305,4441.235652,7031.956449,1072.533697
563.051625,4367.215058,5847.626942,-842.705048
563.051946,7105.977043,5255.462188,-995.924147
563.052266,9474.636058,7920.203579,919.314598
563.052587,9400.615463,10807.006753,229.828649
563.052907,3775.050304,9326.594869,-1915.238745
563.053228,5329.482782,7550.100608,-3064.381992
563.053548,7476.080014,6883.915261,-1838.629195
563.053869,6439.791695,7476.080014,0.000000
563.054189,7105.977043,8660.409521,-919.314598
563.054510,6735.874072,9548.656652,-2528.115143
563.054830,3997.112087,7698.141797,-2221.676944
563.055151,4811.338623,4811.338623,1455.581446
563.055471,6439.791695,4589.276840,2987.772442
563.055792,3034.844362,4145.153275,612.876398
563.056112,2590.720797,7624.121203,-1608.800546
563.056433,4885.359217,9326.594869,-1608.800546
563.056754,6587.832884,10362.883188,842.705048
563.057074,6809.894666,10066.800811,3753.867940
563.057395,5551.544565,8512.368333,919.314598
563.057715,2516.700203,8364.327145,-3524.039291
563.058036,1332.370696,9474.636058,-2221.676944
563.058356,2664.741391,10288.862594,-1302.362347
563.058677,5255.462188,9326.594869,-689.485948
563.058997,6069.688724,10140.821405,1072.533697
563.059318,5255.462188,10732.986159,1149.143247
563.059638,1850.514855,10140.821405,-536.266849
563.059959,1776.494261,7994.224174,-306.438199
563.060279,1036.288319,5847.626942,306.438199
563.060600,3849.070898,5329.482782,1225.752797
563.060920,6439.791695,7994.224174,1378.971896
563.061241,6513.812290,11103.089130,-612.876398
563.061561,4293.194464,12361.439231,-1991.848295
563.061882,4737.318029,11177.109724,-1685.410096
563.062203,4293.194464,9178.553681,-842.705048
563.062523,5699.585753,7920.203579,0.000000
563.062844,7031.956449,7772.162391,306.438199
563.063164,6587.832884,8216.285956,-1225.752797
563.063485,5255.462188,8290.306550,-1608.800546
563.063805,5181.441594,7550.100608,-153.219100
563.064126,6069.688724,7179.997637,995.924147
563.064446,5847.626942,6735.874072,1302.362347
563.064767,4441.235652,4737.318029,612.876398
563.065087,5033.400406,4663.297435,-459.657299
563.065408,7846.182985,8734.430116,0.000000
563.065728,5107.421000,10732.986159,-306.438199
563.066049,4885.359217,9918.759623,-919.314598
563.066369,6439.791695,8216.285956,-842.705048
563.066690,3997.112087,7920.203579,0.000000
563.067010,3775.050304,7846.182985,919.314598
563.067331,3923.091493,8290.306550,-689.485948
563.067651,4071.132681,8142.265362,-1608.800546
563.067972,5033.400406,7550.100608,-536.266849
563.068293,6883.915261,7476.080014,1378.971896
563.068613,5625.565159,6587.832884,1225.752797
563.068934,4071.132681,6291.750507,1455.581446
563.069254,3923.091493,5995.668130,1378.971896
563.069575,5403.503377,5921.647536,612.876398
563.069895,7624.121203,7328.038826,459.657299
563.070216,8512.368333,9104.533087,383.047749
563.070536,6883.915261,8956.491898,-306.438199
563.070857,5181.441594,8142.265362,-766.095498
563.071177,4219.173869,8068.244768,-1149.143247
563.071498,4589.276840,5921.647536,-1149.143247
563.071818,5773.606348,6513.812290,-459.657299
563.072139,6217.729913,7994.224174,383.047749
563.072459,4811.338623,8364.327145,-689.485948
563.072780,5477.523971,8216.285956,-536.266849
563.073100,5255.462188,7031.956449,0.000000
563.073421,4441.235652,5329.482782,1225.752797
563.073742,3404.947333,4589.276840,1915.238745
563.074062,5477.523971,6883.915261,383.047749
563.074383,6291.750507,9622.677246,-1302.362347
563.074703,5625.565159,11103.089130,-1608.800546
563.075024,5995.668130,11473.192101,-1455.581446
563.075344,3997.112087,9474.636058,-612.876398
563.075665,4441.235652,8438.347739,536.266849
563.075985,5625.565159,8734.430116,1302.362347
563.076306,3701.029710,8882.471304,-689.485948
563.076626,1628.453072,8512.368333,-1991.848295
563.076947,4515.256246,9252.574275,-995.924147
563.077267,4589.276840,7328.038826,-153.219100
563.077588,3775.050304,4959.379811,1991.848295
563.077908,3701.029710,4959.379811,2451.505594
563.078229,3256.906145,7105.977043,153.219100
563.078549,3034.844362,7920.203579,-1685.410096
563.078870,6217.729913,7994.224174,-1532.190996
563.079190,9030.512492,9474.636058,-1378.971896
563.079511,6587.832884,10584.944971,-919.314598
563.079832,4663.297435,9474.636058,-1378.971896
563.080152,6513.812290,9474.636058,-1455.581446
563.080473,5699.585753,8438.347739,-995.924147
563.080793,5403.503377,8364.327145,-229.828649
563.081114,5107.421000,8216.285956,-842.705048
563.081434,5181.441594,8364.327145,-2374.896044
563.081755,4293.194464,9104.533087,0.000000
563.082075,3775.050304,7402.059420,766.095498
563.082396,4071.132681,6217.729913,689.485948
563.082716,3034.844362,6587.832884,0.000000
563.083037,3775.050304,7994.224174,-766.095498
563.083357,5551.544565,10214.842000,-766.095498
563.083678,6365.771101,11177.109724,536.266849
563.083998,5181.441594,10584.944971,0.000000
563.084319,3923.091493,9326.594869,-306.438199
563.084639,4145.153275,9548.656652,-919.314598
563.084960,4145.153275,8734.430116,-306.438199
563.085281,4441.235652,7105.977043,-536.266849
563.085601,6513.812290,6365.771101,-1225.752797
563.085922,5181.441594,5995.668130,-1302.362347
563.086242,5625.565159,6217.729913,-459.657299
563.086563,6513.812290,6661.853478,2298.286494
563.086883,5699.585753,5477.523971,1838.629195
563.087204,6439.791695,5255.462188,-536.266849
563.087524,7920.203579,6809.894666,-2221.676944
563.087845,7328.038826,9770.718434,-2451.505594
563.088165,7550.100608,11547.212695,-1302.362347
563.088486,6069.688724,9104.533087,-842.705048
563.088806,7328.038826,8438.347739,-1225.752797
563.089127,5403.503377,7846.182985,-153.219100
563.089447,3256.906145,8216.285956,-153.219100
563.089768,3627.009116,8364.327145,-766.095498
563.090088,2590.720797,7920.203579,-536.266849
563.090409,4145.153275,6217.729913,459.657299
563.090729,6143.709319,4515.256246,1762.019645
563.091050,3627.009116,4737.318029,1915.238745
563.091371,1850.514855,4441.235652,1685.410096
563.091691,3478.967927,5477.523971,459.657299
563.092012,5551.544565,8216.285956,-1072.533697
563.092332,7476.080014,10732.986159,-1378.971896
563.092653,8660.409521,10732.986159,-842.705048
563.092973,8068.244768,9918.759623,-1532.190996
563.093294,5255.462188,9548.656652,-1378.971896
563.093614,4515.256246,8734.430116,-459.657299
563.093935,4737.318029,8734.430116,-536.266849
563.094255,4737.318029,9030.512492,-536.266849
563.094576,3775.050304,9622.677246,0.000000
563.094896,4219.173869,9178.553681,612.876398
563.095217,3034.844362,7105.977043,1302.362347
563.095537,2590.720797,6217.729913,2451.505594
563.095858,1406.391290,4737.318029,3064.381992
563.096178,2294.638420,4885.359217,1149.143247
563.096499,4959.379811,7031.956449,229.828649
563.096820,6217.729913,9992.780217,0.000000
563.097140,5181.441594,12287.418637,-1302.362347
563.097461,5255.462188,12583.501014,-2451.505594
563.097781,6069.688724,11251.130318,-2221.676944
563.098102,5329.482782,8882.471304,-612.876398
563.098422,6217.729913,8734.430116,76.609550
563.098743,5181.441594,9252.574275,-536.266849
563.099063,3775.050304,9770.718434,-1915.238745
563.099384,4367.215058,9030.512492,-306.438199
563.099704,4589.276840,6587.832884,1915.238745
563.100025,5477.523971,5181.441594,3753.867940
563.100345,4737.318029,5625.565159,3294.210641
563.100666,2590.720797,6513.812290,153.219100
563.100986,4737.318029,7105.977043,-1991.848295
563.101307,6883.915261,7624.121203,383.047749
563.101627,6957.935855,8142.265362,2068.457845
563.101948,7920.203579,7624.121203,1532.190996
563.102268,6809.894666,7698.141797,-1455.581446
563.102589,5921.647536,8660.409521,-3064.381992
563.102910,5033.400406,9474.636058,-2451.505594
563.103230,5033.400406,8364.327145,-1532.190996
563.103551,6513.812290,7402.059420,-995.924147
563.103871,7105.977043,7031.956449,1072.533697
563.104192,6143.709319,7550.100608,1225.752797
563.104512,1924.535449,6735.874072,0.000000
563.104833,1554.432478,5033.400406,-1225.752797
563.105153,4515.256246,7920.203579,-536.266849
563.105474,4589.276840,9030.512492,459.657299
563.105794,5255.462188,9178.553681,1149.143247
563.106115,7105.977043,9844.739029,766.095498
563.106435,1406.391290,9474.636058,-995.924147
563.106756,1332.370696,9030.512492,-766.095498
563.107076,4145.153275,8438.347739,76.609550
563.107397,4737.318029,7328.038826,-383.047749
563.107717,4737.318029,7402.059420,0.000000
563.108038,6143.709319,7994.224174,76.609550
563.108358,4441.235652,7179.997637,-2451.505594
563.108679,3775.050304,7105.977043,-689.485948
563.109000,4959.379811,6069.688724,536.266849
563.109320,6957.935855,6439.791695,-1149.143247
563.109641,8438.347739,8142.265362,-536.266849
563.109961,7402.059420,9770.718434,-1072.533697
563.110282,6957.935855,12139.377449,-2451.505594
563.110602,6513.812290,11769.274478,-1455.581446
563.110923,5625.565159,9918.759623,-689.485948
563.111243,5329.482782,7328.038826,-842.705048
563.111564,5033.400406,6439.791695,-536.266849
563.111884,3775.050304,7624.121203,-536.266849
563.112205,1628.453072,8216.285956,-995.924147
563.112525,3034.844362,9474.636058,-459.657299
563.112846,4293.194464,7328.038826,383.047749
563.113166,5107.421000,6217.729913,1302.362347
563.113487,5255.462188,6957.935855,2068.457845
563.113807,1036.288319,6883.915261,-76.609550
563.114128,3627.009116,8142.265362,-1608.800546
563.114449,6439.791695,10066.800811,0.000000
563.114769,7179.997637,11251.130318,459.657299
563.115090,8882.471304,11177.109724,689.485948
563.115410,7920.203579,11473.192101,-919.314598
563.115731,3627.009116,10732.986159,-2451.505594
563.116051,3182.885551,8956.491898,-919.314598
563.116372,5625.565159,7254.018232,689.485948
563.116692,5403.503377,5625.565159,383.047749
563.117013,4589.276840,5551.544565,1762.019645
563.117333,4737.318029,6143.709319,1532.190996
563.117654,2220.617826,6365.771101,0.000000
563.117974,888.247130,4737.318029,612.876398
563.118295,4219.173869,6365.771101,1072.533697
563.118615,7772.162391,8586.388927,459.657299
563.118936,7031.956449,9696.697840,-306.438199
563.119256,8512.368333,10436.903782,-536.266849
563.119577,5921.647536,9178.553681,-1225.752797
563.119897,5255.462188,9400.615463,-383.047749
563.120218,6365.771101,8734.430116,459.657299
563.120539,7031.956449,7994.224174,-842.705048
563.120859,6513.812290,7994.224174,-1608.800546
563.121180,5921.647536,7550.100608,-1455.581446
563.121500,2664.741391,5477.523971,-1378.971896
563.121821,3182.885551,4663.297435,76.609550
563.122141,4145.153275,5847.626942,2987.772442
563.122462,3849.070898,6069.688724,3217.601092
563.122782,2368.659014,5625.565159,842.705048
563.123103,3256.906145,6883.915261,-1149.143247
563.123423,4219.173869,10807.006753,-919.314598
563.123744,4219.173869,12361.439231,0.000000
563.124064,5699.585753,11399.171507,0.000000
563.124385,5847.626942,8290.306550,-1072.533697
563.124705,4293.194464,7105.977043,-612.876398
563.125026,4811.338623,8512.368333,995.924147
563.125346,3923.091493,10436.903782,1072.533697
563.125667,4293.194464,9696.697840,-842.705048
563.125988,6217.729913,7105.977043,-612.876398
563.126308,6957.935855,4811.338623,612.876398
563.126629,5181.441594,4811.338623,2374.896044
563.126949,3330.926739,5625.565159,2528.115143
563.127270,2516.700203,5625.565159,-689.485948
563.127590,5773.606348,7402.059420,-2068.457845
563.127911,8586.388927,9326.594869,0.000000
563.128231,6291.750507,10362.883188,306.438199
563.128552,5477.523971,11103.089130,-383.047749
563.128872,4441.235652,10732.986159,-1915.238745
563.129193,3256.906145,8956.491898,-2068.457845
563.129513,5551.544565,7402.059420,-1608.800546
563.129834,7846.182985,8068.244768,0.000000
563.130154,5255.462188,9326.594869,-229.828649
563.130475,4219.173869,8142.265362,-689.485948
563.130795,5107.421000,6291.750507,153.219100
563.131116,5551.544565,4737.318029,1455.581446
563.131436,5995.668130,5699.585753,2374.896044
563.131757,5329.482782,7254.018232,76.609550
563.132078,6587.832884,9326.594869,-2145.067394
563.132398,7402.059420,11029.068536,-459.657299
563.132719,5107.421000,10584.944971,-383.047749
563.133039,6217.729913,8364.327145,-1149.143247
563.133360,5699.585753,7624.121203,-229.828649
563.133680,3034.844362,7920.203579,383.047749
563.134001,2812.782580,8882.471304,0.000000
563.134321,4071.132681,8734.430116,-1149.143247
563.134642,3997.112087,8734.430116,-1915.238745
563.134962,4885.359217,8438.347739,0.000000
563.135283,5181.441594,8290.306550,2068.457845
563.135603,3775.050304,6809.894666,1378.971896
563.135924,2146.597232,4071.132681,306.438199
563.136244,4441.235652,5847.626942,-306.438199
563.136565,4663.297435,10140.821405,229.828649
563.136885,6069.688724,12435.459826,229.828649
563.137206,5847.626942,12065.356855,-1455.581446
563.137526,4885.359217,9474.636058,-2451.505594
563.137847,4737.318029,8290.306550,-612.876398
563.138167,4219.173869,7698.141797,689.485948
563.138488,3552.988522,7105.977043,842.705048
563.138808,4071.132681,7994.224174,0.000000
563.139129,3849.070898,6957.935855,-459.657299
563.139449,5033.400406,6661.853478,1225.752797
563.139770,5181.441594,7105.977043,3140.991542
563.140090,4293.194464,6365.771101,2451.505594
563.140411,3849.070898,4219.173869,0.000000
563.140731,6439.791695,3997.112087,-1915.238745
563.141052,7698.141797,6735.874072,-1608.800546
563.141372,7328.038826,8808.450710,-536.266849
563.141693,7402.059420,10732.986159,-1225.752797
563.142013,7105.977043,10658.965565,-1455.581446
563.142334,6143.709319,8364.327145,-689.485948
563.142654,7698.141797,7920.203579,-306.438199
563.142975,7476.080014,8142.265362,-1225.752797
563.143295,3701.029710,7846.182985,-2145.067394
563.143616,3256.906145,6439.791695,-919.314598
563.143936,4737.318029,5477.523971,1378.971896
563.144257,5329.482782,6661.853478,3064.381992
563.144577,2368.659014,6365.771101,2068.457845
563.144898,2368.659014,5625.565159,-383.047749
563.145218,5033.400406,7254.018232,-1455.581446
563.145539,4145.153275,9474.636058,-229.828649
563.145859,6587.832884,10807.006753,842.705048
563.146180,6735.874072,10658.965565,-383.047749
563.146500,4811.338623,9104.533087,-1455.581446
563.146821,4145.153275,7698.141797,229.828649
563.147141,5995.668130,8364.327145,1072.533697
563.147462,4589.276840,8142.265362,-2145.067394
563.147782,5921.647536,10214.842000,-2298.286494
563.148103,6217.729913,10881.027347,459.657299
563.148423,6143.709319,9992.780217,766.095498
563.148744,4589.276840,6513.812290,1685.410096
563.149064,3404.947333,3627.009116,536.266849
563.149385,2368.659014,4885.359217,383.047749
563.149705,4441.235652,8142.265362,612.876398
563.150026,4071.132681,10510.924376,0.000000
563.150346,5625.565159,11251.130318,-1378.971896
563.150667,5847.626942,10955.047942,-842.705048
563.150987,5403.503377,11547.212695,536.266849
563.151308,2886.803174,9252.574275,-306.438199
563.151628,4367.215058,7772.162391,-1455.581446
563.151949,5403.503377,5921.647536,-1685.410096
563.152269,5921.647536,7254.018232,0.000000
563.152590,5625.565159,7254.018232,2374.896044
563.152910,5625.565159,7624.121203,229.828649
563.153231,5847.626942,6587.832884,-689.485948
563.153551,6217.729913,6365.771101,0.000000
563.153872,5477.523971,4959.379811,-229.828649
563.154192,7402.059420,5255.462188,-306.438199
563.154513,9474.636058,8808.450710,-76.609550
563.154833,6365.771101,10584.944971,-1149.143247
563.155154,5107.421000,9178.553681,-2145.067394
563.155474,7476.080014,8586.388927,-612.876398
563.155795,4515.256246,7846.182985,383.047749
563.156115,3775.050304,7550.100608,153.219100
563.156436,4367.215058,7994.224174,-766.095498
563.156756,2886.803174,6809.894666,-1838.629195
563.157077,4589.276840,7105.977043,1149.143247
563.157397,5477.523971,7105.977043,3447.429741
563.157718,3849.070898,5625.565159,1072.533697
563.158038,3256.906145,5107.421000,1225.752797
563.158359,4589.276840,7105.977043,1072.533697
563.158679,5403.503377,9104.533087,-612.876398
563.159000,6883.915261,9622.677246,-153.219100
563.159320,7994.224174,9474.636058,-612.876398
563.159641,5773.606348,8364.327145,-766.095498
563.159961,4811.338623,8660.409521,153.219100
563.160282,4663.297435,10362.883188,-1149.143247
563.160602,2664.741391,9326.594869,-3064.381992
563.160923,5033.400406,8660.409521,-1991.848295
563.161243,6957.935855,8068.244768,536.266849
563.161564,3849.070898,7550.100608,689.485948
563.161884,3330.926739,8660.409521,2451.505594
563.162205,2516.700203,7624.121203,1608.800546
563.162525,2146.597232,5107.421000,995.924147
563.162846,5255.462188,5995.668130,1608.800546
563.163166,6809.894666,8216.285956,-153.219100
563.163487,5255.462188,8438.347739,-2451.505594
563.163807,5995.668130,11103.089130,-1378.971896
563.164128,6439.791695,12361.439231,-842.705048
563.164448,4515.256246,10881.027347,-459.657299
563.164769,5255.462188,7105.977043,612.876398
563.165089,5403.503377,7031.956449,-229.828649
563.165410,3775.050304,9474.636058,-612.876398
563.165730,2590.720797,9030.512492,612.876398
563.166051,3849.070898,7846.182985,-919.314598
563.166371,5181.441594,6069.688724,0.000000
563.166692,4515.256246,6069.688724,1685.410096
563.167012,3701.029710,5921.647536,1225.752797
563.167333,3256.906145,5921.647536,-1225.752797
563.167653,5551.544565,8808.450710,-1072.533697
563.167974,7328.038826,9104.533087,459.657299
563.168294,7698.141797,8956.491898,459.657299
563.168615,8364.327145,8956.491898,306.438199
563.168935,6291.750507,8216.285956,-689.485948
563.169256,5255.462188,7254.018232,-2451.505594
563.169576,5329.482782,5699.585753,-3524.039291
563.169897,6291.750507,6365.771101,-2298.286494
563.170217,7476.080014,6735.874072,383.047749
563.170538,7105.977043,6883.915261,1991.848295
563.170858,5107.421000,5995.668130,0.000000
563.171179,4811.338623,6513.812290,-1378.971896
563.171499,3108.864956,6957.935855,-459.657299
563.171820,4071.132681,7328.038826,-995.924147
563.172140,5921.647536,7920.203579,-766.095498
563.172461,6957.935855,9326.594869,76.609550
563.172781,5847.626942,9696.697840,306.438199
563.173102,2960.823768,9326.594869,229.828649
563.173422,888.247130,9400.615463,-459.657299
563.173743,3775.050304,11399.171507,-1072.533697
563.174063,3108.864956,9770.718434,76.609550
563.174384,4589.276840,8142.265362,766.095498
563.174704,6439.791695,7105.977043,459.657299
563.175025,2960.823768,6587.832884,-306.438199
563.175345,1554.432478,7328.038826,153.219100
563.175666,3108.864956,7402.059420,1838.629195
563.175986,4515.256246,6883.915261,995.924147
563.176307,5995.668130,7994.224174,-536.266849
563.176627,7920.203579,10584.944971,-1762.019645
563.176948,5625.565159,12361.439231,-2604.724693
563.177268,3478.967927,11177.109724,-1225.752797
563.177589,4811.338623,10066.800811,1378.971896
563.177909,5107.421000,9474.636058,689.485948
563.178230,2886.803174,8290.306550,383.047749
563.178550,1924.535449,7920.203579,-842.705048
563.178871,2368.659014,9030.512492,-919.314598
563.179191,3997.112087,7105.977043,229.828649
563.179512,5477.523971,5181.441594,1838.629195
563.179832,4885.359217,3627.009116,229.828649
563.180153,3404.947333,6069.688724,-919.314598
563.180473,3478.967927,7550.100608,459.657299
563.180794,5329.482782,7624.121203,-1378.971896
563.181114,10288.862594,9474.636058,-1532.190996
563.181435,9770.718434,10807.006753,-612.876398
563.181755,7698.141797,9992.780217,-1915.238745
563.182076,7328.038826,10584.944971,-1072.533697
563.182396,5403.503377,8216.285956,-995.924147
563.182717,5773.606348,7105.977043,-995.924147
563.183037,5995.668130,4959.379811,-383.047749
563.183358,4737.318029,5181.441594,-842.705048
563.183678,4885.359217,6587.832884,689.485948
563.183999,5181.441594,6957.935855,1838.629195
563.184319,4737.318029,6661.853478,1685.410096
563.184640,2664.741391,3849.070898,612.876398
563.184960,3701.029710,4959.379811,-383.047749
563.185281,5255.462188,8068.244768,-689.485948
563.185601,5255.462188,10584.944971,-612.876398
563.185922,6661.853478,11769.274478,76.609550
563.186242,7698.141797,11843.295072,-459.657299
563.186563,5107.421000,10510.924376,-1608.800546
563.186883,2664.741391,9400.615463,-536.266849
563.187204,3478.967927,9178.553681,0.000000
563.187524,5107.421000,9992.780217,-229.828649
563.187845,1998.556043,7328.038826,0.000000
563.188165,5107.421000,5847.626942,-612.876398
563.188486,5847.626942,5995.668130,459.657299
563.188806,1332.370696,7031.956449,842.705048
563.189127,888.247130,6809.894666,459.657299
563.189447,4959.379811,7550.100608,536.266849
563.189768,5477.523971,8660.409521,-766.095498
563.190088,7920.203579,9770.718434,0.000000
563.190409,8068.244768,11399.171507,-1532.190996
563.190729,6069.688724,11769.274478,-3370.820191
563.191050,4737.318029,11473.192101,-766.095498
563.191370,5699.585753,9030.512492,536.266849
563.191691,5921.647536,7846.182985,229.828649
563.192011,5255.462188,6587.832884,459.657299
563.192332,3552.988522,6513.812290,-842.705048
563.192652,4219.173869,7328.038826,-383.047749
563.192973,4293.194464,7476.080014,842.705048
563.193293,4515.256246,5477.523971,1685.410096
563.193614,3627.009116,3997.112087,689.485948
563.193934,4959.379811,6439.791695,766.095498
563.194255,4737.318029,10807.006753,1072.533697
563.194575,3997.112087,9918.759623,-766.095498
563.194896,5403.503377,9326.594869,-2528.115143
563.195216,7624.121203,8512.368333,-919.314598
563.195537,5847.626942,9326.594869,76.609550
563.195857,4441.235652,8290.306550,-842.705048
563.196178,2960.823768,8290.306550,-2451.505594
563.196498,4441.235652,7476.080014,-2528.115143
563.196819,4293.194464,6069.688724,0.000000
563.197139,7105.977043,6513.812290,1838.629195
563.197460,5921.647536,5847.626942,1149.143247
563.197780,3034.844362,6217.729913,0.000000
563.198101,3701.029710,5477.523971,-383.047749
563.198421,5625.565159,6513.812290,-919.314598
563.198742,7698.141797,8068.244768,-766.095498
563.199062,7994.224174,10955.047942,-842.705048
563.199383,6069.688724,11473.192101,-1915.238745
563.199703,4293.194464,10807.006753,-1225.752797
563.200024,4293.194464,9696.697840,1072.533697
563.200344,5033.400406,7846.182985,1685.410096
563.200665,4145.153275,7328.038826,0.000000
563.200985,3256.906145,8216.285956,-689.485948
563.201306,1924.535449,8512.368333,0.000000
563.201626,3701.029710,8586.388927,689.485948
563.201947,4293.194464,6365.771101,1838.629195
563.202267,4737.318029,5107.421000,842.705048
563.202588,4589.276840,5773.606348,76.609550
563.202908,4663.297435,7994.224174,-459.657299
563.203229,5477.523971,10807.006753,-919.314598
563.203549,7179.997637,12287.418637,-766.095498
563.203870,7105.977043,11843.295072,-1838.629195
563.204190,6735.874072,10510.924376,-1608.800546
563.204511,7105.977043,9548.656652,0.000000
563.204831,3182.885551,8734.430116,-536.266849
563.205152,3256.906145,8216.285956,-1072.533697
563.205472,4219.173869,8882.471304,-153.219100
563.205793,3552.988522,9104.533087,1532.190996
563.206113,2812.782580,7105.977043,2757.943793
563.206434,4367.215058,5699.585753,1762.019645
563.206754,2516.700203,5625.565159,1455.581446
563.207075,2220.617826,5477.523971,2145.067394
563.207395,3108.864956,4811.338623,1225.752797
563.207716,6291.750507,6883.915261,-766.095498
563.208036,7105.977043,10066.800811,-1378.971896
563.208357,6883.915261,12065.356855,-536.266849
563.208677,6365.771101,10658.965565,-2221.676944
563.208998,6883.915261,8142.265362,-2681.334243
563.209318,6143.709319,6587.832884,-1915.238745
563.209639,6513.812290,7179.997637,-766.095498
563.209959,6143.709319,6587.832884,-689.485948
563.210280,4959.379811,6513.812290,-229.828649
563.210600,5477.523971,7031.956449,229.828649
563.210921,6069.688724,5625.565159,766.095498
563.211241,5477.523971,5773.606348,1455.581446
563.211562,4515.256246,5033.400406,1532.190996
563.211882,5551.544565,7105.977043,689.485948
563.212203,5255.462188,7920.203579,-689.485948
563.212523,4663.297435,7328.038826,-536.266849
563.212844,6069.688724,8142.265362,1302.362347
563.213164,7179.997637,9474.636058,1762.019645
563.213485,5033.400406,9104.533087,-995.924147
563.213805,4811.338623,7105.977043,-3370.820191
563.214126,4885.359217,8660.409521,-2528.115143
563.214446,4737.318029,9992.780217,-919.314598
563.214767,3404.947333,8142.265362,1838.629195
563.215087,7179.997637,7031.956449,1072.533697
563.215408,5699.585753,7105.977043,842.705048
563.215728,1406.391290,7105.977043,536.266849
563.216049,3256.906145,7624.121203,-383.047749
563.216369,4589.276840,10214.842000,229.828649
563.216690,4663.297435,11177.109724,-229.828649
563.217010,6883.915261,10510.924376,689.485948
563.217331,5033.400406,8586.388927,-612.876398
563.217651,1924.535449,8882.471304,-2068.457845
563.217972,1850.514855,9696.697840,536.266849
563.218292,4145.153275,8734.430116,0.000000
563.218613,4959.379811,8882.471304,-689.485948
563.218933,3997.112087,8734.430116,0.000000
563.219254,4737.318029,8290.306550,-1302.362347
563.219574,5033.400406,7994.224174,-459.657299
563.219895,2812.782580,7179.997637,1302.362347
563.220215,3997.112087,6587.832884,995.924147
563.220536,7254.018232,6513.812290,-459.657299
563.220856,8290.306550,9104.533087,-1149.143247
563.221177,6809.894666,11769.274478,0.000000
563.221497,6069.688724,10658.965565,-1378.971896
563.221818,5477.523971,8512.368333,-2681.334243
563.222138,5921.647536,7476.080014,-1455.581446
563.222459,7105.977043,7328.038826,1072.533697
563.222779,4589.276840,7328.038826,0.000000
563.223100,3627.009116,7920.203579,-842.705048
563.223420,3923.091493,7402.059420,-1072.533697
563.223741,4589.276840,7550.100608,0.000000
563.224061,6069.688724,6661.853478,1149.143247
563.224382,5847.626942,5699.585753,1378.971896
563.224702,4589.276840,5847.626942,-383.047749
563.225023,4367.215058,6217.729913,-919.314598
563.225343,4811.338623,8216.285956,229.828649
563.225664,6661.853478,10140.821405,536.266849
563.225984,9104.533087,10510.924376,766.095498
563.226305,7624.121203,8734.430116,-612.876398
563.226625,5033.400406,7328.038826,-1149.143247
563.226946,4071.132681,7920.203579,-919.314598
563.227266,4145.153275,6957.935855,-995.924147
563.227587,4367.215058,5625.565159,-919.314598
563.227907,8512.368333,6587.832884,-153.219100
563.228228,6735.874072,7031.956449,842.705048
563.228548,3404.947333,5551.544565,842.705048
563.228869,4071.132681,5699.585753,1072.533697
563.229189,4589.276840,7105.977043,1532.190996
563.229510,5477.523971,6365.771101,612.876398
563.229830,8956.491898,9030.512492,-536.266849
563.230151,6735.874072,10066.800811,-2221.676944
563.230471,3701.029710,10288.862594,-3064.381992
563.230792,4441.235652,10510.924376,612.876398
563.231112,5403.503377,10732.986159,689.485948
563.231433,5255.462188,9474.636058,842.705048
563.231753,3256.906145,7105.977043,-383.047749
563.232074,3182.885551,7476.080014,-1762.019645
563.232394,3108.864956,8956.491898,0.000000
563.232715,2146.597232,7920.203579,2451.505594
563.233035,3404.947333,6069.688724,2451.505594
563.233356,5033.400406,5329.482782,766.095498
563.233676,3849.070898,8142.265362,1378.971896
563.233997,3552.988522,8142.265362,1072.533697
563.234317,4589.276840,8882.471304,-1608.800546
563.234638,5255.462188,9622.677246,-2528.115143
563.234958,4885.359217,10807.006753,-1455.581446
563.235279,6439.791695,10584.944971,229.828649
563.235599,7179.997637,9548.656652,1378.971896
563.235920,4885.359217,8882.471304,689.485948
563.236240,2294.638420,7772.162391,-1838.629195
563.236561,4145.153275,7328.038826,-2298.286494
563.236881,6957.935855,8364.327145,153.219100
563.237202,6735.874072,7846.182985,2068.457845
563.237522,5033.400406,5625.565159,1455.581446
563.237843,4293.194464,4663.297435,76.609550
563.238163,2368.659014,5329.482782,-383.047749
563.238484,2442.679609,6809.894666,229.828649
563.238804,7994.224174,7772.162391,612.876398
563.239125,8290.306550,8512.368333,-1762.019645
563.239445,6365.771101,9400.615463,-2221.676944
563.239766,5329.482782,10732.986159,-1149.143247
563.240086,4589.276840,10584.944971,-2221.676944
563.240407,3997.112087,8068.244768,-612.876398
563.240727,7994.224174,7105.977043,-383.047749
563.241048,7105.977043,6587.832884,-306.438199
563.241368,4293.194464,7254.018232,306.438199
563.241689,3775.050304,7328.038826,1838.629195
563.242010,4737.318029,6439.791695,1532.190996
563.242330,5255.462188,4737.318029,1225.752797
563.242651,7105.977043,5699.585753,1378.971896
563.242971,4959.379811,7254.018232,-306.438199
563.243292,3923.091493,9104.533087,-2298.286494
563.243613,4737.318029,10140.821405,-229.828649
563.243933,6513.812290,10510.924376,306.438199
563.244254,6217.729913,10584.944971,536.266849
563.244574,4219.173869,8216.285956,-766.095498
563.244895,3701.029710,7698.141797,-2681.334243
563.245215,3849.070898,8808.450710,-1225.752797
563.245536,4293.194464,8808.450710,689.485948
563.245857,5033.400406,7179.997637,612.876398
563.246177,6069.688724,6513.812290,459.657299
563.246498,6069.688724,7920.203579,1378.971896
563.246818,3923.091493,5921.647536,1608.800546
563.247139,3923.091493,5699.585753,-459.657299
563.247460,6291.750507,6809.894666,-1302.362347
563.247780,6291.750507,7476.080014,-1685.410096
563.248101,8290.306550,9548.656652,-459.657299
563.248421,7698.141797,10362.883188,536.266849
563.248742,5403.503377,10658.965565,459.657299
563.249063,4441.235652,9474.636058,-229.828649
563.249383,4293.194464,7994.224174,-1532.190996
563.249704,4959.379811,8364.327145,-1072.533697
563.250024,6217.729913,7698.141797,0.000000
563.250345,5403.503377,6809.894666,689.485948
563.250665,4811.338623,5921.647536,229.828649
563.250986,3108.864956,7031.956449,1378.971896
563.251307,2368.659014,6735.874072,1378.971896
563.251627,4811.338623,6439.791695,919.314598
563.251948,6439.791695,7328.038826,153.219100
563.252268,5477.523971,7920.203579,153.219100
563.252589,5181.441594,9918.759623,-766.095498
563.252910,4441.235652,11177.109724,-2145.067394
563.253230,3701.029710,10510.924376,-1915.238745
563.253551,5329.482782,9030.512492,0.000000
563.253871,6365.771101,8438.347739,536.266849
563.254192,3552.988522,9104.533087,-919.314598
563.254512,2812.782580,9030.512492,-153.219100
563.254833,3849.070898,9548.656652,459.657299
563.255154,4589.276840,7105.977043,612.876398
563.255474,4885.359217,5403.503377,1149.143247
563.255795,4293.194464,5403.503377,383.047749
563.256115,2886.803174,6365.771101,-1532.190996
563.256436,3923.091493,8808.450710,-612.876398
563.256757,6365.771101,10658.965565,842.705048
563.257077,7994.224174,11547.212695,383.047749
563.257398,5847.626942,8956.491898,-306.438199
563.257718,4737.318029,7772.162391,-1302.362347
563.258039,3775.050304,8068.244768,-612.876398
563.258359,3108.864956,8586.388927,919.314598
563.258680,5181.441594,7031.956449,0.000000
563.259001,6883.915261,7698.141797,-919.314598
563.259321,7328.038826,9696.697840,536.266849
563.259642,5033.400406,8364.327145,2145.067394
563.259962,3552.988522,5477.523971,766.095498
563.260283,3923.091493,3775.050304,0.000000
563.260604,4811.338623,4441.235652,0.000000
563.260924,6291.750507,7624.121203,0.000000
563.261245,6957.935855,10584.944971,-995.924147
563.261565,5477.523971,10658.965565,-2221.676944
563.261886,5551.544565,10436.903782,-1455.581446
563.262207,5329.482782,8808.450710,153.219100
563.262527,5181.441594,7328.038826,76.609550
563.262848,4959.379811,6809.894666,306.438199
563.263168,5403.503377,7920.203579,-766.095498
563.263489,4145.153275,7105.977043,-995.924147
563.263809,5107.421000,6439.791695,-306.438199
563.264130,6365.771101,6809.894666,1532.190996
563.264451,4811.338623,6217.729913,1378.971896
563.264771,5921.647536,5625.565159,1072.533697
563.265092,6069.688724,5625.565159,76.609550
563.265412,5403.503377,6587.832884,-1225.752797
563.265733,6513.812290,10362.883188,-536.266849
563.266054,5181.441594,11621.233289,-1915.238745
563.266374,4589.276840,10584.944971,-2145.067394
563.266695,8438.347739,8586.388927,229.828649
563.267015,5921.647536,8068.244768,536.266849
563.267336,2146.597232,7772.162391,-1991.848295
563.267656,2590.720797,7402.059420,-2221.676944
563.267977,5181.441594,7994.224174,153.219100
563.268298,6217.729913,8364.327145,2298.286494
563.268618,6513.812290,7402.059420,2681.334243
563.268939,4145.153275,5773.606348,-1225.752797
563.269259,1776.494261,6143.709319,-2451.505594
563.269580,3182.885551,8438.347739,689.485948
563.269901,6883.915261,10584.944971,383.047749
563.270221,7105.977043,10436.903782,-995.924147
563.270542,5255.462188,9918.759623,-2528.115143
563.270862,4663.297435,12361.439231,-2298.286494
563.271183,2368.659014,12657.521608,612.876398
563.271504,2072.576638,10140.821405,1072.533697
563.271824,3997.112087,7105.977043,-919.314598
563.272145,4959.379811,6957.935855,-1378.971896
563.272465,4145.153275,9770.718434,1608.800546
563.272786,1776.494261,9252.574275,2451.505594
563.273106,2294.638420,6291.750507,-306.438199
563.273427,6217.729913,4885.359217,0.000000
563.273748,4737.318029,5551.544565,1302.362347
563.274068,4589.276840,7105.977043,1378.971896
563.274389,6217.729913,9030.512492,229.828649
563.274709,5551.544565,10807.006753,-1149.143247
563.275030,5773.606348,9548.656652,-1532.190996
563.275351,6217.729913,8734.430116,-1149.143247
563.275671,5995.668130,8364.327145,-1915.238745
563.275992,5107.421000,9474.636058,-995.924147
563.276312,3034.844362,9770.718434,-383.047749
563.276633,4885.359217,9104.533087,-1225.752797
563.276953,4589.276840,7105.977043,0.000000
563.277274,2738.761985,5921.647536,536.266849
563.277595,3997.112087,6439.791695,1072.533697
563.277915,2368.659014,5255.462188,1072.533697
563.278236,3034.844362,5625.565159,689.485948
563.278556,6661.853478,7328.038826,1302.362347
563.278877,6735.874072,9030.512492,-383.047749
563.279198,4663.297435,9252.574275,-2374.896044
563.279518,5255.462188,7920.203579,-1072.533697
563.279839,7328.038826,9696.697840,612.876398
563.280159,6513.812290,8586.388927,995.924147
563.280480,4737.318029,6661.853478,-1225.752797
563.280800,7994.224174,6365.771101,-3524.039291
563.281121,5921.647536,7624.121203,-2451.505594
563.281442,5699.585753,7772.162391,2145.067394
563.281762,6513.812290,6143.709319,2911.162892
563.282083,6365.771101,4663.297435,536.266849
563.282403,3997.112087,4219.173869,383.047749
563.282724,5477.523971,6809.894666,766.095498
563.283045,5107.421000,8586.388927,-1072.533697
563.283365,4589.276840,9400.615463,-1991.848295
563.283686,5921.647536,11473.192101,-842.705048
563.284006,5847.626942,11769.274478,-1762.019645
563.284327,3478.967927,10288.862594,0.000000
563.284648,3108.864956,7402.059420,1302.362347
563.284968,3256.906145,7105.977043,0.000000
563.285289,2812.782580,9326.594869,-689.485948
563.285609,2220.617826,9770.718434,-1072.533697
563.285930,4145.153275,9992.780217,-153.219100
563.286250,4737.318029,8142.265362,842.705048
563.286571,4219.173869,8142.265362,2451.505594
563.286892,3627.009116,6661.853478,1378.971896
563.287212,4145.153275,7402.059420,-1455.581446
563.287533,4441.235652,9252.574275,-1302.362347
563.287853,5255.462188,10362.883188,-536.266849
563.288174,5551.544565,9548.656652,-689.485948
563.288495,5625.565159,9400.615463,-153.219100
563.288815,5847.626942,10658.965565,-459.657299
563.289136,4737.318029,10362.883188,-1378.971896
563.289456,3997.112087,8068.244768,-2604.724693
563.289777,5033.400406,7698.141797,-1378.971896
563.290097,3775.050304,6513.812290,306.438199
563.290418,4219.173869,6735.874072,1302.362347
563.290739,5181.441594,6291.750507,919.314598
563.291059,4663.297435,6365.771101,-383.047749
563.291380,4663.297435,6439.791695,-306.438199
563.291700,7550.100608,6661.853478,0.000000
563.292021,6883.915261,7698.141797,-1072.533697
563.292342,5255.462188,9474.636058,-995.924147
563.292662,7476.080014,10955.047942,-1378.971896
563.292983,6661.853478,10732.986159,-1991.848295
563.293303,6513.812290,9770.718434,-689.485948
563.293624,5477.523971,7550.100608,-306.438199
563.293945,3108.864956,6957.935855,-2451.505594
563.294265,3701.029710,7698.141797,-1072.533697
563.294586,3923.091493,7920.203579,2298.286494
563.294906,3404.947333,7031.956449,2145.067394
563.295227,5625.565159,5847.626942,995.924147
563.295547,4145.153275,5995.668130,229.828649
563.295868,2960.823768,5921.647536,-1378.971896
563.296189,4145.153275,5255.462188,459.657299
563.296509,7105.977043,8586.388927,1532.190996
563.296830,7179.997637,10955.047942,-689.485948
563.297150,5477.523971,10658.965565,-919.314598
563.297471,5625.565159,9474.636058,-2298.286494
563.297792,5625.565159,10066.800811,-1378.971896
563.298112,3256.906145,9844.739029,842.705048
563.298433,4071.132681,8882.471304,-459.657299
563.298753,5033.400406,7846.182985,-1685.410096
563.299074,2886.803174,7772.162391,76.609550
563.299394,3775.050304,8216.285956,2528.115143
563.299715,3108.864956,6513.812290,1838.629195
563.300036,2146.597232,5329.482782,-1455.581446
563.300356,3478.967927,5329.482782,-459.657299
563.300677,6143.709319,7550.100608,1455.581446
563.300997,5773.606348,9178.553681,995.924147
563.301318,4293.194464,10288.862594,-612.876398
563.301639,6439.791695,11251.130318,-1991.848295
563.301959,6439.791695,11103.089130,-1685.410096
563.302280,5699.585753,9844.739029,842.705048
563.302600,6587.832884,8216.285956,689.485948
563.302921,5329.482782,6661.853478,-919.314598
563.303241,3182.885551,6143.709319,-2145.067394
563.303562,3701.029710,6513.812290,76.609550
563.303883,4885.359217,6365.771101,1685.410096
563.304203,6069.688724,6513.812290,1455.581446
563.304524,7105.977043,5699.585753,1302.362347
563.304844,7476.080014,5255.462188,-229.828649
563.305165,5625.565159,6143.709319,-689.485948
563.305486,6883.915261,8438.347739,-153.219100
563.305806,6957.935855,8438.347739,689.485948
563.306127,8142.265362,8956.491898,0.000000
563.306447,10807.006753,9548.656652,153.219100
563.306768,7105.977043,7328.038826,-995.924147
563.307089,4145.153275,4663.297435,-3753.867940
563.307409,4959.379811,3478.967927,-3140.991542
563.307730,5773.606348,4219.173869,0.000000
563.308050,8068.244768,5255.462188,1838.629195
563.308371,10362.883188,8142.265362,1838.629195
563.308691,8068.244768,8882.471304,-1762.019645
563.309012,5033.400406,7105.977043,-2451.505594
563.309333,6513.812290,4663.297435,1532.190996
563.309653,9548.656652,4293.194464,2221.676944
563.309974,10066.800811,6143.709319,689.485948
563.310294,7402.059420,7920.203579,-2528.115143
563.310615,7402.059420,10140.821405,-4673.182538
563.310936,5699.585753,9770.718434,-1915.238745
563.311256,5995.668130,7254.018232,2451.505594
563.311577,7550.100608,6143.709319,2451.505594
563.311897,6957.935855,6661.853478,1225.752797
563.312218,5107.421000,8882.471304,995.924147
563.312538,3256.906145,7550.100608,919.314598
563.312859,4959.379811,5107.421000,-612.876398
563.313180,8216.285956,4811.338623,-306.438199
563.313500,9548.656652,6439.791695,-536.266849
563.313821,10214.842000,7624.121203,-459.657299
563.314141,8586.388927,5995.668130,153.219100
563.314462,8808.450710,3775.050304,842.705048
563.314783,10881.027347,3775.050304,1608.800546
563.315103,11473.192101,3701.029710,919.314598
563.315424,12731.542202,5995.668130,-1149.143247
563.315744,13101.645173,7031.956449,-1838.629195
563.316065,12361.439231,4589.276840,-2451.505594
563.316386,12879.583391,3034.844362,-1838.629195
563.316706,12953.603985,3330.926739,-689.485948
563.317027,10955.047942,5107.421000,-536.266849
563.317347,11103.089130,4441.235652,-1455.581446
563.317668,10362.883188,2368.659014,-919.314598
563.317988,10881.027347,1702.473667,2298.286494
563.318309,10214.842000,3478.967927,4903.011187
563.318630,8290.306550,4737.318029,2298.286494
563.318950,6735.874072,4737.318029,-2987.772442
563.319271,8808.450710,5255.462188,-3907.087040
563.319591,8512.368333,5107.421000,-689.485948
563.319912,8216.285956,3775.050304,1225.752797
563.320233,10066.800811,4293.194464,995.924147
563.320553,8734.430116,7105.977043,-689.485948
563.320874,7772.162391,9178.553681,-1991.848295
563.321194,9474.636058,8660.409521,383.047749
563.321515,8882.471304,7105.977043,1685.410096
563.321835,9400.615463,6069.688724,1685.410096
563.322156,8734.430116,6143.709319,2221.676944
563.322477,7994.224174,3034.844362,-383.047749
563.322797,9992.780217,1480.411884,-1149.143247
563.323118,11621.233289,1850.514855,-612.876398
563.323438,9696.697840,2442.679609,-459.657299
563.323759,10362.883188,4071.132681,842.705048
563.324080,11695.253884,6365.771101,1149.143247
563.324400,11769.274478,7698.141797,919.314598
563.324721,11621.233289,6735.874072,536.266849
563.325041,12583.501014,5403.503377,-536.266849
563.325362,8808.450710,4293.194464,-1532.190996
563.325682,7402.059420,4219.173869,-1762.019645
563.326003,7624.121203,5403.503377,-2374.896044
563.326324,8290.306550,6735.874072,-3447.429741
563.326644,8290.306550,7624.121203,-842.705048
563.326965,8142.265362,8808.450710,536.266849
563.327285,6735.874072,8142.265362,153.219100
563.327606,6143.709319,8512.368333,1378.971896
563.327927,5625.565159,8142.265362,2757.943793
563.328247,5995.668130,6957.935855,1838.629195
563.328568,6365.771101,5773.606348,842.705048
563.328888,5699.585753,5921.647536,-612.876398
563.329209,6587.832884,6217.729913,-612.876398
563.329530,8216.285956,6587.832884,229.828649
563.329850,8882.471304,5995.668130,1378.971896
563.330171,9474.636058,5995.668130,2068.457845
563.330491,9770.718434,5551.544565,1762.019645
563.330812,9400.615463,3849.070898,995.924147
563.331132,10658.965565,3256.906145,0.000000
563.331453,12731.542202,3330.926739,-995.924147
563.331774,13249.686362,2590.720797,-2145.067394
563.332094,13471.748144,2442.679609,-2911.162892
563.332415,14137.933492,3775.050304,-1608.800546
563.332735,12065.356855,4515.256246,-1915.238745
563.333056,11325.150913,4589.276840,-2068.457845
563.333377,11769.274478,5551.544565,-2145.067394
563.333697,12361.439231,6217.729913,-995.924147
563.334018,10584.944971,5107.421000,383.047749
563.334338,8512.368333,4367.215058,-153.219100
563.334659,6365.771101,3404.947333,-612.876398
563.334979,6735.874072,4663.297435,-306.438199
563.335300,5921.647536,7328.038826,-76.609550
563.335621,5551.544565,8290.306550,-1302.362347
563.335941,6365.771101,7328.038826,0.000000
563.336262,7105.977043,6291.750507,1991.848295
563.336582,6957.935855,6513.812290,3217.601092
563.336903,5921.647536,6735.874072,2374.896044
563.337224,6069.688724,6365.771101,0.000000
563.337544,7550.100608,5107.421000,-153.219100
563.337865,9474.636058,4219.173869,842.705048
563.338185,11917.315666,4441.235652,1991.848295
563.338506,12583.501014,4515.256246,689.485948
563.338827,12213.398043,5255.462188,-1149.143247
563.339147,12509.480420,5403.503377,-1378.971896
563.339468,12731.542202,3182.885551,-1149.143247
563.339788,14211.954086,1924.535449,0.000000
563.340109,15322.262999,3034.844362,229.828649
563.340430,13471.748144,5773.606348,-919.314598
563.340750,11251.130318,5699.585753,-2604.724693
563.341071,11473.192101,4071.132681,-2911.162892
563.341392,11769.274478,3478.967927,-1149.143247
563.341712,11177.109724,3330.926739,306.438199
563.342033,9326.594869,4663.297435,-612.876398
563.342354,8142.265362,6069.688724,-2451.505594
563.342674,7402.059420,6587.832884,-1915.238745
563.342995,7698.141797,5995.668130,459.657299
563.343316,8290.306550,6661.853478,2068.457845
563.343636,6143.709319,8142.265362,1532.190996
563.343957,4145.153275,8808.450710,-689.485948
563.344278,5403.503377,7994.224174,-1302.362347
563.344598,5107.421000,7105.977043,-383.047749
563.344919,5403.503377,6143.709319,2298.286494
563.345239,6217.729913,5625.565159,3370.820191
563.345560,6143.709319,6217.729913,995.924147
563.345881,6513.812290,7105.977043,-919.314598
563.346201,7698.141797,7105.977043,-383.047749
563.346522,9622.677246,6735.874072,306.438199
563.346843,11029.068536,6587.832884,1685.410096
563.347163,11621.233289,6217.729913,2145.067394
563.347484,11621.233289,5699.585753,229.828649
563.347805,10140.821405,4145.153275,-1455.581446
563.348125,9770.718434,1406.391290,-2145.067394
563.348446,11843.295072,2368.659014,-1225.752797
563.348767,12731.542202,4589.276840,-689.485948
563.349087,13767.830521,6883.915261,-1225.752797
563.349408,13175.665768,7402.059420,-1838.629195
563.349729,11177.109724,5551.544565,-1532.190996
563.350049,9474.636058,3478.967927,-76.609550
563.350370,9104.533087,1998.556043,229.828649
563.350691,9622.677246,2590.720797,-766.095498
563.351011,9992.780217,5773.606348,-1455.581446
563.351332,9400.615463,8808.450710,-2145.067394
563.351653,7920.203579,9474.636058,-1455.581446
563.351973,7698.141797,8364.327145,689.485948
563.352294,7328.038826,5847.626942,3064.381992
563.352615,5847.626942,4367.215058,2757.943793
563.352935,5773.606348,3552.988522,1762.019645
563.353256,7031.956449,4145.153275,1225.752797
563.353576,7105.977043,5181.441594,1608.800546
563.353897,8808.450710,6365.771101,2221.676944
563.354218,9770.718434,6809.894666,919.314598
563.354538,9992.780217,6513.812290,0.000000
563.354859,10288.862594,4219.173869,0.000000
563.355180,10658.965565,3034.844362,76.609550
563.355500,10881.027347,2516.700203,536.266849
563.355821,11251.130318,3256.906145,76.609550
563.356142,12583.501014,4811.338623,-1302.362347
563.356462,12731.542202,6439.791695,-2528.115143
563.356783,11991.336260,7031.956449,-2451.505594
563.357104,12139.377449,5699.585753,-1608.800546
563.357424,10807.006753,4663.297435,-459.657299
563.357745,9474.636058,3404.947333,383.047749
563.358066,8660.409521,3627.009116,-306.438199
563.358386,7772.162391,4441.235652,-1455.581446
563.358707,7994.224174,5773.606348,-995.924147
563.359028,7402.059420,6587.832884,-383.047749
563.359348,7624.121203,6439.791695,-459.657299
563.359669,7920.203579,7031.956449,-766.095498
563.359990,7994.224174,7402.059420,-766.095498
563.360310,7846.182985,6809.894666,1072.533697
563.360631,7402.059420,6365.771101,2068.457845
563.360951,7179.997637,5847.626942,2221.676944
563.361272,7179.997637,5995.668130,306.438199
563.361593,7994.224174,6809.894666,-1149.143247
563.361913,8660.409521,7105.977043,-1225.752797
563.362234,9474.636058,6291.750507,-1072.533697
563.362555,9844.739029,4737.318029,-306.438199
563.362875,9474.636058,4145.153275,536.266849
563.363196,8956.491898,4737.318029,612.876398
563.363517,9104.533087,6735.874072,612.876398
563.363837,9178.553681,7402.059420,-153.219100
563.364158,10436.903782,6735.874072,-612.876398
563.364479,11103.089130,5699.585753,-689.485948
563.364799,10362.883188,5699.585753,-536.266849
563.365120,9178.553681,6069.688724,-536.266849
563.365441,9178.553681,6661.853478,-1225.752797
563.365761,9696.697840,6365.771101,-1608.800546
563.366082,9548.656652,5181.441594,-995.924147
563.366403,10066.800811,4293.194464,536.266849
563.366723,9400.615463,3552.988522,689.485948
563.367044,8808.450710,3330.926739,229.828649
563.367365,9622.677246,2886.803174,0.000000
563.367685,10658.965565,3627.009116,-612.876398
563.368006,10732.986159,5181.441594,-689.485948
563.368326,10658.965565,6291.750507,-689.485948
563.368647,10732.986159,7254.018232,-995.924147
563.368968,10510.924376,7772.162391,-842.705048
563.369288,10066.800811,7105.977043,-153.219100
563.369609,9696.697840,6143.709319,0.000000
563.369930,7698.141797,5255.462188,76.609550
563.370250,7254.018232,4071.132681,1762.019645
563.370571,7328.038826,3701.029710,2451.505594
563.370892,7550.100608,3627.009116,2604.724693
563.371212,7772.162391,4441.235652,1378.971896
563.371533,7994.224174,4663.297435,153.219100
563.371854,8216.285956,4293.194464,0.000000
563.372174,8660.409521,3997.112087,-229.828649
563.372495,9844.739029,4737.318029,-612.876398
563.372816,10584.944971,6069.688724,-995.924147
563.373136,11177.109724,7476.080014,-1838.629195
563.373457,11029.068536,8068.244768,-1915.238745
563.373778,11103.089130,7402.059420,-995.924147
563.374098,10658.965565,6291.750507,383.047749
563.374419,9696.697840,4811.338623,536.266849
563.374740,9104.533087,3775.050304,842.705048
563.375060,8882.471304,3108.864956,766.095498
563.375381,8956.491898,2738.761985,1532.190996
563.375701,9622.677246,2738.761985,766.095498
563.376022,9992.780217,3997.112087,229.828649
563.376343,9400.615463,6365.771101,0.000000
563.376663,9178.553681,8512.368333,383.047749
563.376984,8808.450710,9400.615463,689.485948
563.377305,8068.244768,9178.553681,1149.143247
563.377625,6735.874072,8734.430116,1378.971896
563.377946,5477.523971,8438.347739,842.705048
563.378267,3849.070898,8216.285956,0.000000
563.378587,3552.988522,6883.915261,-459.657299
563.378908,3997.112087,6143.709319,229.828649
563.379229,4367.215058,6365.771101,536.266849
563.379549,3701.029710,7698.141797,1378.971896
563.379870,4145.153275,9696.697840,2451.505594
563.380191,5255.462188,10362.883188,2681.334243
563.380511,6439.791695,10584.944971,3064.381992
563.380832,7031.956449,10066.800811,3524.039291
563.381153,6439.791695,8586.388927,3217.601092
563.381473,5847.626942,8142.265362,2451.505594
563.381794,5699.585753,8364.327145,2374.896044
563.382115,6217.729913,8808.450710,2145.067394
563.382435,7179.997637,9400.615463,2298.286494
563.382756,7179.997637,9030.512492,3140.991542
563.383077,6439.791695,8586.388927,4443.353888
563.383397,6291.750507,8068.244768,5056.230287
563.383718,6217.729913,7328.038826,4596.572988
563.384038,6661.853478,7254.018232,4290.134789
563.384359,7179.997637,7772.162391,4903.011187
563.384680,7328.038826,8808.450710,5439.278036
563.385000,7179.997637,9474.636058,6128.763984
563.385321,6735.874072,9622.677246,7048.078582
563.385642,6069.688724,9178.553681,7507.735880
563.385962,6069.688724,8290.306550,7890.783629
563.386283,5995.668130,7402.059420,7431.126331
563.386604,4811.338623,5625.565159,6665.030833
563.386924,4589.276840,4737.318029,7048.078582
563.387245,4737.318029,4589.276840,6971.469032
563.387566,5107.421000,5995.668130,6741.640382
563.387886,5255.462188,7105.977043,6511.811733
563.388207,5477.523971,8142.265362,6052.154434
563.388528,5773.606348,7772.162391,6281.983084
563.388848,5255.462188,7328.038826,7048.078582
563.389169,4959.379811,6957.935855,7660.954980
563.389490,4589.276840,6365.771101,7507.735880
563.389810,3552.988522,6143.709319,6358.592633
563.390131,3256.906145,6661.853478,5745.716235
563.390452,2738.761985,6069.688724,5592.497135
563.390772,2886.803174,5477.523971,5898.935335
563.391093,3404.947333,5329.482782,6205.373534
563.391413,3330.926739,5995.668130,6281.983084
563.391734,2960.823768,6513.812290,6435.202183
563.392055,3256.906145,7328.038826,6281.983084
563.392375,3997.112087,8216.285956,6818.249932
563.392696,4737.318029,8734.430116,6741.640382
563.393017,4145.153275,8216.285956,6128.763984
563.393337,3849.070898,6883.915261,5209.449386
563.393658,3552.988522,6143.709319,5132.839837
563.393979,3701.029710,4959.379811,4903.011187
563.394299,2812.782580,4367.215058,4519.963438
563.394620,2738.761985,4441.235652,3217.601092
563.394941,3775.050304,5847.626942,2528.115143
563.395261,4737.318029,7476.080014,2757.943793
563.395582,5477.523971,8956.491898,3064.381992
563.395903,6587.832884,10510.924376,3140.991542
563.396223,6883.915261,11621.233289,2834.553343
563.396544,6957.935855,11843.295072,2987.772442
563.396865,6957.935855,10732.986159,3983.696590
563.397185,7105.977043,9918.759623,5362.668486
563.397506,5625.565159,10214.842000,6052.154434
563.397827,5033.400406,9992.780217,6052.154434
563.398147,4145.153275,8734.430116,5132.839837
563.398468,2960.823768,7105.977043,4290.134789
563.398788,2368.659014,3552.988522,2757.943793
563.399109,3478.967927,2146.597232,1991.848295
563.399430,5181.441594,3775.050304,1838.629195
563.399750,5773.606348,8956.491898,842.705048
563.400071,8068.244768,13619.789333,-1302.362347
563.400392,10066.800811,17172.777854,-1532.190996
563.400712,9844.739029,17987.004391,0.000000
563.401033,9178.553681,16284.530724,3064.381992
563.401354,7994.224174,13323.706956,5132.839837
563.401674,6291.750507,9474.636058,5898.935335
563.401995,5921.647536,7624.121203,6665.030833
563.402316,2960.823768,6513.812290,6741.640382
563.402636,1036.288319,6291.750507,4749.792088
563.402957,814.226536,5625.565159,3830.477490
563.403278,2812.782580,5403.503377,3907.087040
563.403598,3849.070898,3923.091493,3753.867940
563.403919,6069.688724,5921.647536,4136.915689
563.404240,6513.812290,9178.553681,3140.991542
563.404560,6513.812290,13027.624579,2451.505594
563.404881,7179.997637,14434.015869,2221.676944
563.405202,9178.553681,14878.139434,1838.629195
563.405522,9918.759623,14285.974681,2911.162892
563.405843,7254.018232,11547.212695,4213.525239
563.406164,4885.359217,6365.771101,5975.544884
563.406484,4367.215058,3627.009116,7660.954980
563.406805,2072.576638,3775.050304,7201.297681
563.407125,2146.597232,4959.379811,5132.839837
563.407446,4219.173869,5773.606348,3370.820191
563.407767,4515.256246,6143.709319,4749.792088
563.408087,4663.297435,5847.626942,7890.783629
563.408408,6513.812290,6957.935855,10035.851024
563.408729,6365.771101,10066.800811,8963.317327
563.409049,3034.844362,11843.295072,7048.078582
563.409370,2516.700203,10658.965565,4596.572988
563.409691,5625.565159,8142.265362,4213.525239
563.410011,4145.153275,5699.585753,6281.983084
563.410332,3849.070898,4811.338623,9116.536426
563.410653,4737.318029,7624.121203,9193.145976
563.410973,1110.308913,9400.615463,6128.763984
563.411294,444.123565,8512.368333,4903.011187
563.411615,3256.906145,5625.565159,6665.030833
563.411935,4145.153275,2960.823768,7967.393179
563.412256,4589.276840,2738.761985,9116.536426
563.412577,7031.956449,6513.812290,7814.174080
563.412897,6661.853478,10658.965565,4903.011187
563.413218,3256.906145,9992.780217,4290.134789
563.413539,4589.276840,7254.018232,4749.792088
563.413859,5847.626942,5255.462188,6052.154434
563.414180,3627.009116,3849.070898,8656.879127
563.414500,3552.988522,5551.544565,10189.070123
563.414821,5181.441594,8956.491898,7737.564530
563.415142,3478.967927,11991.336260,5669.106685
563.415462,3478.967927,11843.295072,4443.353888
563.415783,5255.462188,9696.697840,3677.258390
563.416104,4293.194464,7031.956449,3830.477490
563.416424,2664.741391,3404.947333,5515.887586
563.416745,4737.318029,2442.679609,7124.688131
563.417066,5847.626942,5033.400406,8350.440928
563.417386,3034.844362,6735.874072,7431.126331
563.417707,4071.132681,7328.038826,4903.011187
563.418028,5847.626942,9770.718434,3370.820191
563.418348,4071.132681,11621.233289,4290.134789
563.418669,5699.585753,10732.986159,6205.373534
563.418990,8290.306550,9992.780217,5056.230287
563.419310,6661.853478,8586.388927,1991.848295
563.419631,3775.050304,6291.750507,612.876398
563.419952,5551.544565,6365.771101,1532.190996
563.420272,6365.771101,8364.327145,4213.525239
563.420593,4589.276840,10140.821405,5745.716235
563.420914,6661.853478,11029.068536,4749.792088
563.421234,7402.059420,11621.233289,2374.896044
563.421555,5107.421000,10436.903782,2681.334243
563.421875,5329.482782,9326.594869,4519.963438
563.422196,5551.544565,8364.327145,4903.011187
563.422517,3330.926739,7179.997637,4290.134789
563.422837,4219.173869,8142.265362,4903.011187
563.423158,6143.709319,9918.759623,4749.792088
563.423479,5329.482782,11325.150913,4519.963438
563.423799,5107.421000,10584.944971,4903.011187
563.424120,6439.791695,10214.842000,4290.134789
563.424441,4885.359217,8734.430116,3753.867940
563.424761,5255.462188,7698.141797,4979.620737
563.425082,5181.441594,8364.327145,3830.477490
563.425403,5181.441594,9844.739029,2451.505594
563.425723,5773.606348,10658.965565,2911.162892
563.426044,6587.832884,9918.759623,3677.258390
563.426365,6957.935855,7698.141797,4673.182538
563.426685,6513.812290,7994.224174,5822.325785
563.427006,4885.359217,8734.430116,4903.011187
563.427327,4071.132681,8438.347739,3447.429741
563.427647,4737.318029,7254.018232,3907.087040
563.427968,6217.729913,6291.750507,4903.011187
563.428289,7179.997637,6365.771101,5822.325785
563.428609,6069.688724,8660.409521,6588.421283
563.428930,3552.988522,10584.944971,5592.497135
563.429250,2516.700203,9326.594869,5132.839837
563.429571,4663.297435,7402.059420,5745.716235
563.429892,4885.359217,6365.771101,5822.325785
563.430212,4441.235652,6365.771101,5745.716235
563.430533,4145.153275,8734.430116,5669.106685
563.430854,2442.679609,9622.677246,4749.792088
563.431174,2146.597232,7031.956449,4979.620737
563.431495,4367.215058,4515.256246,6052.154434
563.431816,6439.791695,5625.565159,7277.907231
563.432136,4811.338623,9178.553681,7354.516781
563.432457,3775.050304,10732.986159,5132.839837
563.432778,4663.297435,9696.697840,3753.867940
563.433098,7254.018232,7624.121203,7124.688131
563.433419,7105.977043,6883.915261,10955.165621
563.433740,5329.482782,6883.915261,9576.193725
563.434060,2442.679609,6883.915261,6128.763984
563.434381,1332.370696,5181.441594,3907.087040
563.434702,2960.823768,2294.638420,4596.572988
563.435022,5551.544565,2072.576638,6894.859482
563.435343,6143.709319,5403.503377,6588.421283
563.435664,3997.112087,9326.594869,3294.210641
563.435984,3182.885551,10510.924376,919.314598
563.436305,4811.338623,9400.615463,1991.848295
563.436626,7476.080014,8216.285956,6281.983084
563.436946,8512.368333,8290.306550,8580.269578
563.437267,5255.462188,8882.471304,6435.202183
563.437587,3256.906145,8808.450710,2374.896044
563.437908,3627.009116,9474.636058,2298.286494
563.438229,4737.318029,9178.553681,5669.106685
563.438549,4589.276840,7031.956449,7277.907231
563.438870,3627.009116,6143.709319,6052.154434
563.439191,2072.576638,5921.647536,4213.525239
563.439511,1184.329507,6735.874072,4596.572988
563.439832,3552.988522,6809.894666,5362.668486
563.440153,3775.050304,7254.018232,3294.210641
563.440473,4885.359217,10066.800811,1838.629195
563.440794,4293.194464,12805.562797,2374.896044
563.441115,6217.729913,12287.418637,4060.306139
563.441435,8364.327145,10732.986159,5515.887586
563.441756,8142.265362,11769.274478,5592.497135
563.442077,4219.173869,10436.903782,4443.353888
563.442397,4811.338623,7846.182985,4366.744339
563.442718,6661.853478,6735.874072,5209.449386
563.443038,7105.977043,5921.647536,5132.839837
563.443359,5847.626942,5329.482782,4826.401637
563.443679,6809.894666,6439.791695,3370.820191
563.444000,5403.503377,5995.668130,2681.334243
563.444321,7476.080014,7031.956449,3140.991542
563.444641,8512.368333,7920.203579,1225.752797
563.444962,6587.832884,7550.100608,-306.438199
563.445282,5551.544565,8586.388927,1532.190996
563.445603,8882.471304,10955.047942,3983.696590
563.445923,7328.038826,11843.295072,3140.991542
563.446244,6069.688724,11843.295072,2451.505594
563.446565,5255.462188,12139.377449,2221.676944
563.446885,5625.565159,12657.521608,3294.210641
563.447206,1850.514855,9770.718434,5669.106685
563.447526,1554.432478,4293.194464,4136.915689
563.447847,3997.112087,2516.700203,3600.648841
563.448167,3404.947333,4885.359217,5132.839837
563.448488,-370.102971,6587.832884,4519.963438
563.448809,1036.288319,6735.874072,1225.752797
563.449129,3256.906145,7328.038826,-229.828649
563.449450,4219.173869,7698.141797,3140.991542
563.449770,6143.709319,7846.182985,5362.668486
563.450091,7550.100608,8808.450710,2528.115143
563.450411,6883.915261,9400.615463,-306.438199
563.450732,5625.565159,8438.347739,-306.438199
563.451053,6809.894666,6809.894666,0.000000
563.451373,7476.080014,6143.709319,995.924147
563.451694,7698.141797,6513.812290,1762.019645
563.452014,6883.915261,6143.709319,995.924147
563.452335,4589.276840,3256.906145,0.000000
563.452655,4515.256246,1998.556043,766.095498
563.452976,4441.235652,2738.761985,1532.190996
563.453297,5625.565159,7994.224174,689.485948
563.453617,4885.359217,11177.109724,-1149.143247
563.453938,4811.338623,12065.356855,-2528.115143
563.454258,6291.750507,12953.603985,0.000000
563.454579,4959.379811,10955.047942,2604.724693
563.454900,3404.947333,7920.203579,3064.381992
563.455220,1998.556043,7772.162391,2145.067394
563.455541,888.247130,8882.471304,842.705048
563.455861,2072.576638,9400.615463,0.000000
563.456182,2738.761985,9548.656652,995.924147
563.456502,2738.761985,9030.512492,1915.238745
563.456823,3182.885551,7846.182985,3064.381992
563.457144,7105.977043,9474.636058,2987.772442
563.457464,4589.276840,8438.347739,0.000000
563.457785,2590.720797,6809.894666,-1149.143247
563.458105,6439.791695,7179.997637,459.657299
563.458426,8512.368333,7994.224174,2068.457845
563.458746,7476.080014,9992.780217,1455.581446
563.459067,7698.141797,11251.130318,-1532.190996
563.459388,7624.121203,11103.089130,-3753.867940
563.459708,4737.318029,8068.244768,-1302.362347
563.460029,6439.791695,8216.285956,919.314598
563.460349,7402.059420,7550.100608,0.000000
563.460670,4811.338623,6069.688724,-2298.286494
563.460990,5181.441594,6143.709319,-1608.800546
563.461311,6291.750507,6513.812290,-76.609550
563.461632,6291.750507,7105.977043,1532.190996
563.461952,5847.626942,8808.450710,383.047749
563.462273,5699.585753,9770.718434,-2681.334243
563.462593,5181.441594,10955.047942,-1455.581446
563.462914,5847.626942,10510.924376,1991.848295
563.463234,5255.462188,7550.100608,2528.115143
563.463555,4071.132681,6069.688724,229.828649
563.463876,2442.679609,6365.771101,-766.095498
563.464196,1924.535449,7105.977043,-2145.067394
563.464517,3256.906145,6291.750507,-2221.676944
563.464837,3627.009116,6957.935855,-1072.533697
563.465158,6143.709319,8364.327145,766.095498
563.465478,4885.359217,8956.491898,919.314598
563.465799,3849.070898,9030.512492,-919.314598
563.466120,4737.318029,8142.265362,-1532.190996
563.466440,5699.585753,7846.182985,-689.485948
563.466761,5255.462188,5477.523971,0.000000
563.467081,5107.421000,4885.359217,-459.657299
563.467402,5033.400406,6291.750507,-2374.896044
563.467723,6069.688724,8808.450710,-3294.210641
563.468043,6439.791695,10288.862594,-3753.867940
563.468364,7550.100608,10362.883188,-3370.820191
563.468684,6661.853478,9548.656652,-995.924147
563.469005,5625.565159,7031.956449,1302.362347
563.469325,3997.112087,4293.194464,2451.505594
563.469646,2812.782580,4589.276840,0.000000
563.469967,3997.112087,7031.956449,-2068.457845
563.470287,5255.462188,10658.965565,-4213.525239
563.470608,4959.379811,10658.965565,-4213.525239
563.470928,5551.544565,9992.780217,-1532.190996
563.471249,6143.709319,10362.883188,2528.115143
563.471569,3701.029710,9400.615463,3677.258390
563.471890,666.185348,7920.203579,1838.629195
563.472211,1850.514855,7698.141797,-1532.190996
563.472531,3849.070898,7402.059420,-2528.115143
563.472852,4293.194464,5921.647536,-1302.362347
563.473172,5847.626942,7105.977043,-153.219100
563.473493,6143.709319,9104.533087,0.000000
563.473813,4959.379811,9992.780217,-766.095498
563.474134,5181.441594,8660.409521,-1762.019645
563.474455,6291.750507,7846.182985,-2911.162892
563.474775,6513.812290,7402.059420,-2451.505594
563.475096,7031.956449,8216.285956,-1608.800546
563.475416,7179.997637,8290.306550,-1378.971896
563.475737,7031.956449,10140.821405,-689.485948
563.476057,7920.203579,11695.253884,0.000000
563.476378,4737.318029,9104.533087,-2298.286494
563.476699,3330.926739,5773.606348,-2911.162892
563.477019,6217.729913,5995.668130,-229.828649
563.477340,6587.832884,5847.626942,919.314598
563.477660,4441.235652,4145.153275,-766.095498
563.477981,4885.359217,5329.482782,-1838.629195
563.478301,5625.565159,9104.533087,-153.219100
563.478622,4071.132681,9548.656652,76.609550
563.478943,4737.318029,9918.759623,-2068.457845
563.479263,7772.162391,11103.089130,-2451.505594
563.479584,8290.306550,11251.130318,-383.047749
563.479904,8586.388927,11325.150913,2298.286494
563.480225,4589.276840,9326.594869,1838.629195
563.480546,2368.659014,8216.285956,1915.238745
563.480866,1406.391290,6291.750507,2757.943793
563.481187,1332.370696,3923.091493,1915.238745
563.481507,2590.720797,4737.318029,-536.266849
563.481828,4441.235652,6513.812290,-919.314598
563.482148,4219.173869,6513.812290,-2298.286494
563.482469,4663.297435,7105.977043,-1225.752797
563.482790,5477.523971,11177.109724,1072.533697
563.483110,6217.729913,13545.768739,766.095498
563.483431,5847.626942,13323.706956,-536.266849
563.483751,5699.585753,11547.212695,0.000000
563.484072,5181.441594,8142.265362,1072.533697
563.484392,5773.606348,5773.606348,2451.505594
563.484713,5403.503377,5255.462188,2374.896044
563.485034,3182.885551,8512.368333,153.219100
563.485354,2960.823768,9696.697840,0.000000
563.485675,2368.659014,7254.018232,459.657299
563.485995,3404.947333,2590.720797,76.609550
563.486316,3478.967927,1184.329507,1762.019645
563.486636,4515.256246,2738.761985,2911.162892
563.486957,3404.947333,5329.482782,1149.143247
563.487278,4959.379811,8956.491898,-1225.752797
563.487598,6587.832884,12435.459826,-1838.629195
563.487919,7402.059420,13175.665768,-2145.067394
563.488239,7105.977043,13249.686362,-2528.115143
563.488560,5625.565159,10955.047942,-1532.190996
563.488880,4515.256246,6587.832884,766.095498
563.489201,4071.132681,2812.782580,2374.896044
563.489522,2442.679609,2368.659014,459.657299
563.489842,222.061783,4663.297435,-1532.190996
563.490163,2294.638420,8956.491898,-1685.410096
563.490483,4885.359217,9770.718434,-2068.457845
563.490804,6587.832884,7031.956449,-1762.019645
563.491124,7476.080014,4959.379811,536.266849
563.491445,6439.791695,6069.688724,1455.581446
563.491766,2886.803174,6217.729913,153.219100
563.492086,6513.812290,9474.636058,-1225.752797
563.492407,7254.018232,11547.212695,-3140.991542
563.492727,6661.853478,11029.068536,-3447.429741
563.493048,8364.327145,10288.862594,229.828649
563.493369,7994.224174,10362.883188,1991.848295
563.493689,1554.432478,8216.285956,-689.485948
563.494010,2368.659014,6883.915261,-2681.334243
563.494330,5625.565159,6661.853478,-3677.258390
563.494651,3330.926739,5255.462188,-2145.067394
563.494971,4145.153275,6217.729913,689.485948
563.495292,7846.182985,7402.059420,0.000000
563.495613,6217.729913,8290.306550,-919.314598
563.495933,4737.318029,9474.636058,-842.705048
563.496254,7476.080014,11177.109724,-2221.676944
563.496574,7402.059420,11917.315666,-2757.943793
563.496895,5625.565159,11399.171507,-153.219100
563.497215,7105.977043,9844.739029,0.000000
563.497536,6143.709319,9326.594869,-1685.410096
563.497857,4441.235652,9992.780217,-1685.410096
563.498177,2738.761985,9696.697840,-2221.676944
563.498498,2960.823768,7328.038826,-3753.867940
563.498818,3997.112087,6661.853478,-1378.971896
563.499139,3182.885551,6957.935855,995.924147
563.499459,4737.318029,6439.791695,689.485948
563.499780,4811.338623,7105.977043,306.438199
563.500101,4367.215058,8068.244768,-1149.143247
563.500421,4663.297435,8586.388927,-1915.238745
563.500742,4367.215058,8068.244768,-2145.067394
563.501062,5551.544565,10362.883188,-1685.410096
563.501383,7254.018232,12287.418637,306.438199
563.501703,6439.791695,11769.274478,306.438199
563.502024,5551.544565,9696.697840,-995.924147
563.502345,4219.173869,7402.059420,-612.876398
563.502665,5255.462188,7624.121203,1915.238745
563.502986,4441.235652,6661.853478,2757.943793
563.503306,3108.864956,5329.482782,76.609550
563.503627,4293.194464,5329.482782,-536.266849
563.503947,5921.647536,5699.585753,1072.533697
563.504268,3923.091493,4737.318029,842.705048
563.504589,3627.009116,5107.421000,-919.314598
563.504909,6883.915261,8734.430116,-1302.362347
563.505230,7920.203579,13323.706956,153.219100
563.505550,5625.565159,12583.501014,2681.334243
563.505871,6217.729913,9918.759623,2374.896044
563.506191,7179.997637,9252.574275,995.924147
563.506512,4663.297435,8734.430116,1608.800546
563.506833,1628.453072,5847.626942,1762.019645
563.507153,4737.318029,6439.791695,1915.238745
563.507474,5033.400406,7550.100608,2451.505594
563.507794,2368.659014,6217.729913,2145.067394
563.508115,2516.700203,3923.091493,766.095498
563.508436,4441.235652,4145.153275,2451.505594
563.508756,4219.173869,5625.565159,3370.820191
563.509077,4663.297435,6513.812290,1915.238745
563.509397,5477.523971,7920.203579,-1685.410096
563.509718,5329.482782,10436.903782,-612.876398
563.510038,7105.977043,12879.583391,2298.286494
563.510359,7179.997637,11621.233289,766.095498
563.510680,4885.359217,8660.409521,-2145.067394
563.511000,4737.318029,8142.265362,-1149.143247
563.511321,2590.720797,5625.565159,536.266849
563.511641,1628.453072,2960.823768,1608.800546
563.511962,2368.659014,3775.050304,229.828649
563.512282,3478.967927,6661.853478,-1838.629195
563.512603,2960.823768,6957.935855,-1838.629195
563.512924,5477.523971,6883.915261,-689.485948
563.513244,5329.482782,6883.915261,0.000000
563.513565,4959.379811,7550.100608,995.924147
563.513885,7698.141797,8734.430116,1455.581446
563.514206,6957.935855,10732.986159,-1072.533697
563.514526,3330.926739,8808.450710,-1991.848295
563.514847,6217.729913,9030.512492,-1915.238745
563.515168,7550.100608,9696.697840,-1532.190996
563.515488,5181.441594,9770.718434,76.609550
563.515809,3775.050304,9326.594869,153.219100
563.516129,5477.523971,8660.409521,-1991.848295
563.516450,2664.741391,6735.874072,-1838.629195
563.516770,2590.720797,4663.297435,1149.143247
563.517091,5329.482782,5625.565159,1532.190996
563.517412,6365.771101,8142.265362,-842.705048
563.517732,4737.318029,8290.306550,-2451.505594
563.518053,5995.668130,8808.450710,-3217.601092
563.518373,9326.594869,11547.212695,-536.266849
563.518694,7476.080014,12731.542202,2298.286494
563.519014,5995.668130,12731.542202,-306.438199
563.519335,6439.791695,10732.986159,-4443.353888
563.519656,5773.606348,9400.615463,-3447.429741
563.519976,6883.915261,8586.388927,229.828649
563.520297,6513.812290,8364.327145,2145.067394
563.520617,5477.523971,9622.677246,1072.533697
563.520938,3404.947333,10584.944971,-459.657299
563.521259,2886.803174,7624.121203,-306.438199
563.521579,3478.967927,4293.194464,536.266849
563.521900,5477.523971,4663.297435,2068.457845
563.522220,6143.709319,6513.812290,612.876398
563.522541,3034.844362,8142.265362,-1455.581446
563.522861,6143.709319,11251.130318,-1072.533697
563.523182,7772.162391,13545.768739,0.000000
563.523503,5255.462188,11843.295072,689.485948
563.523823,5477.523971,9104.533087,-306.438199
563.524144,5773.606348,8438.347739,-1378.971896
563.524464,3478.967927,7328.038826,0.000000
563.524785,3923.091493,6439.791695,2068.457845
563.525105,4293.194464,5403.503377,1149.143247
563.525426,3775.050304,6365.771101,689.485948
563.525747,814.226536,5625.565159,995.924147
563.526067,2072.576638,4441.235652,-1302.362347
563.526388,3552.988522,4515.256246,-2681.334243
563.526708,4515.256246,5477.523971,-536.266849
563.527029,4959.379811,7254.018232,1915.238745
563.527349,7476.080014,10140.821405,2911.162892
563.527670,6661.853478,13915.871710,689.485948
563.527991,4145.153275,13323.706956,-2528.115143
563.528311,4737.318029,10881.027347,-2068.457845
563.528632,6809.894666,9178.553681,2911.162892
563.528952,6513.812290,7031.956449,5592.497135
563.529273,4515.256246,3849.070898,4213.525239
563.529593,666.185348,1776.494261,229.828649
563.529914,666.185348,2886.803174,-459.657299
563.530235,2072.576638,5107.421000,1608.800546
563.530555,5033.400406,6069.688724,1532.190996
563.530876,7698.141797,7105.977043,-306.438199
563.531196,7994.224174,9030.512492,0.000000
563.531517,6957.935855,9844.739029,2528.115143
563.531837,6735.874072,9622.677246,3140.991542
563.532158,6809.894666,10955.047942,612.876398
563.532479,4811.338623,9104.533087,-2604.724693
563.532799,6291.750507,7105.977043,-1991.848295
563.533120,10807.006753,9992.780217,995.924147
563.533440,7105.977043,10362.883188,1762.019645
563.533761,2590.720797,8364.327145,919.314598
563.534082,3775.050304,6661.853478,-1608.800546
563.534402,2368.659014,5329.482782,-612.876398
563.534723,444.123565,3997.112087,2068.457845
563.535043,5181.441594,3849.070898,2145.067394
563.535364,6439.791695,6365.771101,0.000000
563.535684,3034.844362,8068.244768,-153.219100
563.536005,4515.256246,10362.883188,229.828649
563.536326,7254.018232,12509.480420,-1302.362347
563.536646,4737.318029,11917.315666,-995.924147
563.536967,3182.885551,8956.491898,-459.657299
563.537287,4737.318029,7624.121203,-919.314598
563.537608,4885.359217,8882.471304,-153.219100
563.537928,2590.720797,8956.491898,-766.095498
563.538249,4737.318029,9474.636058,-2911.162892
563.538570,4145.153275,8734.430116,-2911.162892
563.538890,2368.659014,6809.894666,-766.095498
563.539211,3108.864956,4885.359217,0.000000
563.539531,5625.565159,4589.276840,-459.657299
563.539852,4293.194464,5921.647536,-306.438199
563.540172,5699.585753,7105.977043,-612.876398
563.540493,7105.977043,9030.512492,-1149.143247
563.540814,7920.203579,11843.295072,-689.485948
563.541134,7179.997637,12953.603985,-919.314598
563.541455,6883.915261,11843.295072,-1225.752797
563.541776,7031.956449,10436.903782,-612.876398
563.542096,8586.388927,9992.780217,0.000000
563.542417,5995.668130,7550.100608,-229.828649
563.542738,3478.967927,4663.297435,-383.047749
563.543058,3775.050304,5329.482782,229.828649
563.543379,4145.153275,7698.141797,0.000000
563.543700,2590.720797,6809.894666,-1838.629195
563.544020,6809.894666,6587.832884,-1608.800546
563.544341,9474.636058,9030.512492,-612.876398
563.544662,6069.688724,9252.574275,1225.752797
563.544982,6291.750507,9844.739029,1149.143247
563.545303,6217.729913,10436.903782,-1225.752797
563.545624,4071.132681,10066.800811,-1149.143247
563.545944,5773.606348,9400.615463,689.485948
563.546265,8512.368333,8660.409521,536.266849
563.546586,5477.523971,8734.430116,-306.438199
563.546906,1924.535449,6957.935855,0.000000
563.547227,3108.864956,6217.729913,0.000000
563.547548,2812.782580,6439.791695,306.438199
563.547868,518.144159,5773.606348,1149.143247
563.548189,2368.659014,4885.359217,0.000000
563.548510,4589.276840,5107.421000,-1762.019645
563.548830,4293.194464,8068.244768,76.609550
563.549151,3701.029710,7994.224174,153.219100
563.549472,6735.874072,8290.306550,-1915.238745
563.549793,7105.977043,11103.089130,-2374.896044
563.550113,3256.906145,11473.192101,-2145.067394
563.550434,5403.503377,8586.388927,-2987.772442
563.550755,8290.306550,8364.327145,-1532.190996
563.551075,7328.038826,9844.739029,2068.457845
563.551396,4145.153275,6957.935855,2451.505594
563.551717,3627.009116,4589.276840,459.657299
563.552037,2368.659014,4515.256246,-153.219100
563.552358,1036.288319,4145.153275,766.095498
563.552679,4293.194464,4145.153275,919.314598
563.552999,5847.626942,4219.173869,-1072.533697
563.553320,6365.771101,7846.182985,-766.095498
563.553641,7105.977043,11917.315666,842.705048
563.553961,5847.626942,11325.150913,383.047749
563.554282,3923.091493,9622.677246,76.609550
563.554603,6143.709319,11473.192101,1378.971896
563.554923,7105.977043,11843.295072,153.219100
563.555244,5921.647536,10288.862594,-919.314598
563.555565,5921.647536,9548.656652,-459.657299
563.555885,5181.441594,8364.327145,995.924147
563.556206,4145.153275,7179.997637,2374.896044
563.556527,2294.638420,6217.729913,2145.067394
563.556847,1998.556043,5181.441594,229.828649
563.557168,4071.132681,5403.503377,536.266849
563.557489,5107.421000,4959.379811,1608.800546
563.557809,6365.771101,6069.688724,1455.581446
563.558130,6513.812290,8364.327145,766.095498
563.558451,7402.059420,12731.542202,76.609550
563.558772,6809.894666,13101.645173,-1915.238745
563.559092,4293.194464,9770.718434,-3600.648841
563.559413,7254.018232,8068.244768,-842.705048
563.559734,8142.265362,7994.224174,1149.143247
563.560054,6513.812290,8364.327145,-229.828649
563.560375,3182.885551,7698.141797,-3064.381992
563.560696,4145.153275,7920.203579,-2604.724693
563.561016,4515.256246,6439.791695,0.000000
563.561337,3552.988522,4367.215058,842.705048
563.561658,4515.256246,3997.112087,76.609550
563.561978,4811.338623,6587.832884,-1072.533697
563.562299,4885.359217,5921.647536,-459.657299
563.562620,5773.606348,5551.544565,919.314598
563.562940,5107.421000,6439.791695,0.000000
563.563261,5329.482782,10214.842000,-1378.971896
563.563582,5921.647536,13619.789333,-4060.306139
563.563902,5995.668130,12361.439231,-4826.401637
563.564223,5921.647536,9326.594869,-2374.896044
563.564544,7550.100608,7328.038826,919.314598
563.564864,4145.153275,5995.668130,1838.629195
563.565185,-1998.556043,5625.565159,-766.095498
563.565506,-74.020594,7105.977043,-3677.258390
563.565826,2442.679609,8216.285956,-3447.429741
563.566147,5329.482782,7105.977043,-842.705048
563.566468,6957.935855,7031.956449,1225.752797
563.566789,5329.482782,7550.100608,-766.095498
563.567109,3627.009116,8290.306550,-536.266849
563.567430,4515.256246,9474.636058,919.314598
563.567751,6143.709319,10066.800811,-1762.019645
563.568071,6587.832884,10362.883188,-2604.724693
563.568392,7994.224174,10288.862594,-1072.533697
563.568713,8216.285956,11029.068536,-919.314598
563.569033,5181.441594,10288.862594,76.609550
563.569354,5255.462188,9252.574275,-919.314598
563.569675,2886.803174,6439.791695,-2451.505594
563.569995,2516.700203,5773.606348,-2374.896044
563.570316,2960.823768,6365.771101,306.438199
563.570637,5107.421000,7105.977043,383.047749
563.570957,5773.606348,7328.038826,-383.047749
563.571278,5033.400406,8586.388927,-919.314598
563.571599,5921.647536,10436.903782,-1149.143247
563.571919,5847.626942,11473.192101,-919.314598
563.572240,6587.832884,12509.480420,0.000000
563.572561,6661.853478,11103.089130,-459.657299
563.572881,7698.141797,9252.574275,-689.485948
563.573202,7328.038826,8734.430116,229.828649
563.573523,5033.400406,8882.471304,1378.971896
563.573843,5181.441594,8956.491898,2681.334243
563.574164,4959.379811,8438.347739,2298.286494
563.574485,2220.617826,7031.956449,306.438199
563.574806,2072.576638,4441.235652,459.657299
563.575126,5551.544565,3552.988522,2451.505594
563.575447,5995.668130,4589.276840,2451.505594
563.575768,3108.864956,5255.462188,459.657299
563.576088,4589.276840,7328.038826,-2528.115143
563.576409,6439.791695,10288.862594,-2757.943793
563.576730,5551.544565,12805.562797,306.438199
563.577050,7105.977043,12361.439231,1838.629195
563.577371,7550.100608,10436.903782,306.438199
563.577692,6143.709319,9104.533087,-536.266849
563.578012,2368.659014,6587.832884,689.485948
563.578333,3108.864956,4885.359217,1532.190996
563.578654,2072.576638,4737.318029,2451.505594
563.578974,1480.411884,5551.544565,689.485948
563.579295,1332.370696,5255.462188,-612.876398
563.579616,2442.679609,3552.988522,-612.876398
563.579936,5033.400406,4219.173869,2068.457845
563.580257,5181.441594,6069.688724,2528.115143
563.580578,4663.297435,7698.141797,459.657299
563.580898,4885.359217,9400.615463,-1532.190996
563.581219,5551.544565,10658.965565,-2298.286494
563.581540,6439.791695,9696.697840,-995.924147
563.581860,8882.471304,9326.594869,383.047749
563.582181,8068.244768,9696.697840,-1149.143247
563.582502,3775.050304,8142.265362,-1838.629195
563.582822,2294.638420,5477.523971,-919.314598
563.583143,4811.338623,5551.544565,-306.438199
563.583464,3256.906145,4959.379811,536.266849
563.583785,1998.556043,3775.050304,76.609550
563.584105,5995.668130,5107.421000,-1532.190996
563.584426,6365.771101,8734.430116,-1915.238745
563.584747,3404.947333,8586.388927,-689.485948
563.585067,7550.100608,9548.656652,459.657299
563.585388,9104.533087,12435.459826,383.047749
563.585709,3997.112087,12805.562797,-306.438199
563.586029,4737.318029,11029.068536,-2757.943793
563.586350,7328.038826,10066.800811,-3907.087040
563.586671,5551.544565,9844.739029,306.438199
563.586991,3034.844362,9696.697840,2911.162892
563.587312,4441.235652,9992.780217,0.000000
563.587633,3108.864956,10510.924376,-2298.286494
563.587953,1332.370696,9992.780217,0.000000
563.588274,2220.617826,6587.832884,995.924147
563.588595,5033.400406,4293.194464,1838.629195
563.588915,6513.812290,7179.997637,2298.286494
563.589236,5625.565159,9844.739029,-766.095498
563.589557,5625.565159,10214.842000,-2834.553343
563.589877,7179.997637,11695.253884,-1072.533697
563.590198,7846.182985,12731.542202,1532.190996
563.590519,8142.265362,10955.047942,1072.533697
563.590839,6957.935855,8808.450710,-2221.676944
563.591160,5773.606348,8586.388927,-2374.896044
563.591481,4219.173869,6957.935855,-459.657299
563.591802,4145.153275,4885.359217,1532.190996
563.592122,4737.318029,4737.318029,-919.314598
563.592443,2368.659014,5699.585753,-2681.334243
563.592764,3775.050304,7328.038826,-1532.190996
563.593084,5329.482782,5847.626942,383.047749
563.593405,6365.771101,5403.503377,0.000000
563.593726,7254.018232,7105.977043,-1072.533697
563.594046,6069.688724,10140.821405,-1915.238745
563.594367,5773.606348,11399.171507,-919.314598
563.594688,5699.585753,10436.903782,76.609550
563.595008,5625.565159,7550.100608,-229.828649
563.595329,5773.606348,6291.750507,-689.485948
563.595650,3849.070898,7031.956449,229.828649
563.595970,2590.720797,7476.080014,459.657299
563.596291,3627.009116,7254.018232,229.828649
563.596612,4441.235652,6587.832884,383.047749
563.596932,2368.659014,4071.132681,536.266849
563.597253,2960.823768,3627.009116,2681.334243
563.597574,3701.029710,5551.544565,3370.820191
563.597894,3701.029710,5995.668130,689.485948
563.598215,4515.256246,6439.791695,-1915.238745
563.598536,6513.812290,8882.471304,-1455.581446
563.598856,6439.791695,12213.398043,0.000000
563.599177,5847.626942,13101.645173,0.000000
563.599498,6217.729913,12065.356855,-919.314598
563.599819,6365.771101,9992.780217,-919.314598
563.600139,5107.421000,8734.430116,1762.019645
563.600460,4737.318029,7994.224174,3217.601092
563.600781,1998.556043,6587.832884,1685.410096
563.601101,2368.659014,6883.915261,153.219100
563.601422,3923.091493,7105.977043,1072.533697
563.601743,4145.153275,5329.482782,1072.533697
563.602063,4663.297435,5625.565159,459.657299
563.602384,5255.462188,7105.977043,-383.047749
563.602705,4959.379811,8956.491898,153.219100
563.603025,6217.729913,10658.965565,2145.067394
563.603346,8290.306550,12583.501014,1225.752797
563.603667,5181.441594,12953.603985,-1838.629195
563.603987,5773.606348,12287.418637,-995.924147
563.604308,6883.915261,10807.006753,2451.505594
563.604629,3997.112087,8290.306550,2068.457845
563.604949,4145.153275,7624.121203,995.924147
563.605270,2220.617826,5625.565159,-766.095498
563.605591,1036.288319,4293.194464,-995.924147
563.605911,2960.823768,4737.318029,2145.067394
563.606232,4663.297435,5699.585753,2987.772442
563.606553,5329.482782,5773.606348,-919.314598
563.606873,5699.585753,6735.874072,-2451.505594
563.607194,7328.038826,8512.368333,-76.609550
563.607515,9104.533087,10214.842000,536.266849
563.607836,9992.780217,12287.418637,-383.047749
563.608156,7105.977043,10510.924376,-3830.477490
563.608477,6365.771101,6809.894666,-2604.724693
563.608798,10510.924376,7031.956449,2681.334243
563.609118,7476.080014,7328.038826,3140.991542
563.609439,3552.988522,6661.853478,-229.828649
563.609760,4441.235652,6513.812290,-2528.115143
563.610080,3034.844362,5847.626942,-2145.067394
563.610401,2294.638420,3330.926739,1072.533697
563.610722,4811.338623,2960.823768,3370.820191
563.611042,5329.482782,4589.276840,536.266849
563.611363,2442.679609,7179.997637,-1149.143247
563.611684,3997.112087,10436.903782,-229.828649
563.612004,6217.729913,12583.501014,-1838.629195
563.612325,5921.647536,13249.686362,-1685.410096
563.612646,5551.544565,12435.459826,-153.219100
563.612966,5255.462188,11103.089130,153.219100
563.613287,5181.441594,10140.821405,2298.286494
563.613608,2368.659014,8808.450710,2221.676944
563.613928,1628.453072,6513.812290,459.657299
563.614249,1184.329507,5625.565159,-76.609550
563.614570,1998.556043,6439.791695,1149.143247
563.614890,3701.029710,6883.915261,842.705048
563.615211,5995.668130,6143.709319,-383.047749
563.615532,5181.441594,6513.812290,-1072.533697
563.615852,3997.112087,9104.533087,-766.095498
563.616173,6809.894666,11029.068536,919.314598
563.616494,7772.162391,12361.439231,459.657299
563.616815,6365.771101,10510.924376,-1532.190996
563.617135,6809.894666,7994.224174,-2221.676944
563.617456,6809.894666,7402.059420,-536.266849
563.617777,7476.080014,8512.368333,689.485948
563.618097,5255.462188,8734.430116,-306.438199
563.618418,4663.297435,6883.915261,-3600.648841
563.618739,1702.473667,2812.782580,-4749.792088
563.619059,2812.782580,1702.473667,-995.924147
563.619380,5995.668130,3108.864956,2987.772442
563.619701,7772.162391,6957.935855,1072.533697
563.620021,7698.141797,11843.295072,-4519.963438
563.620342,6365.771101,15914.427753,-6205.373534
563.620663,5773.606348,13767.830521,-1608.800546
563.620983,8142.265362,9474.636058,4366.744339
563.621304,6069.688724,5625.565159,4673.182538
563.621625,1924.535449,3701.029710,459.657299
563.621945,518.144159,4145.153275,-3447.429741
563.622266,3108.864956,5699.585753,-3140.991542
563.622587,3849.070898,7402.059420,-1149.143247
563.622907,4737.318029,7550.100608,-612.876398
563.623228,5847.626942,8586.388927,-2145.067394
563.623549,5255.462188,8660.409521,-995.924147
563.623869,4145.153275,9104.533087,612.876398
563.624190,7179.997637,9030.512492,0.000000
563.624511,7328.038826,8660.409521,-1762.019645
563.624832,5847.626942,10362.883188,-1762.019645
563.625152,5625.565159,11621.233289,-1149.143247
563.625473,5477.523971,9770.718434,0.000000
563.625794,4959.379811,8290.306550,1608.800546
563.626114,4737.318029,8512.368333,2987.772442
563.626435,2146.597232,7550.100608,689.485948
563.626756,2294.638420,6809.894666,-1072.533697
563.627076,3997.112087,7550.100608,-689.485948
563.627397,3923.091493,8068.244768,-1532.190996
563.627718,5181.441594,8882.471304,536.266849
563.628038,6661.853478,10732.986159,2451.505594
563.628359,5699.585753,11843.295072,536.266849
563.628680,5477.523971,10140.821405,-306.438199
563.629000,6883.915261,8808.450710,-842.705048
563.629321,6513.812290,9548.656652,-306.438199
563.629642,3701.029710,9622.677246,2451.505594
563.629962,3923.091493,7772.162391,4596.572988
563.630283,6365.771101,7328.038826,3294.210641
563.630604,4737.318029,8068.244768,919.314598
563.630924,3701.029710,6883.915261,842.705048
563.631245,4367.215058,4663.297435,0.000000
563.631566,5403.503377,5625.565159,-536.266849
563.631886,3701.029710,5477.523971,1455.581446
563.632207,5255.462188,4959.379811,1991.848295
563.632528,7105.977043,7328.038826,76.609550
563.632849,5255.462188,11029.068536,-766.095498
563.633169,4071.132681,10214.842000,-2451.505594
563.633490,5477.523971,7328.038826,-3217.601092
563.633811,6365.771101,5181.441594,-306.438199
563.634131,4663.297435,4811.338623,4213.525239
563.634452,5033.400406,6365.771101,2834.553343
563.634773,4293.194464,8142.265362,-2221.676944
563.635093,2072.576638,6143.709319,-4060.306139
563.635414,3256.906145,2664.741391,-2451.505594
563.635735,6513.812290,1702.473667,-536.266849
563.636055,7254.018232,3478.967927,1455.581446
563.636376,4737.318029,6809.894666,1838.629195
563.636697,6291.750507,11029.068536,-459.657299
563.637017,5477.523971,12731.542202,-3753.867940
563.637338,3775.050304,9030.512492,-3983.696590
563.637659,6069.688724,6217.729913,-995.924147
563.637979,7402.059420,6217.729913,3064.381992
563.638300,3478.967927,9030.512492,4060.306139
563.638621,1776.494261,9548.656652,-306.438199
563.638941,3182.885551,9622.677246,-4519.963438
563.639262,2812.782580,8216.285956,-4060.306139
563.639583,4589.276840,5403.503377,-306.438199
563.639903,7476.080014,5033.400406,842.705048
563.640224,6069.688724,6809.894666,-1072.533697
563.640545,5625.565159,10510.924376,-1378.971896
563.640865,7105.977043,13323.706956,-1072.533697
563.641186,8142.265362,14359.995275,-689.485948
563.641507,8290.306550,13767.830521,-229.828649
563.641828,8068.244768,11325.150913,-689.485948
563.642148,7920.203579,9474.636058,-1072.533697
563.642469,3775.050304,7550.100608,1225.752797
563.642790,3552.988522,7179.997637,2298.286494
563.643110,3330.926739,8364.327145,1225.752797
563.643431,2886.803174,7920.203579,-1991.848295
563.643752,592.164754,5181.441594,-4366.744339
563.644072,5255.462188,5551.544565,-3370.820191
563.644393,6883.915261,8882.471304,919.314598
563.644713,5847.626942,11399.171507,536.266849
563.645034,6883.915261,12065.356855,-2604.724693
563.645355,7402.059420,13619.789333,-3830.477490
563.645675,5773.606348,13397.727550,-1378.971896
563.645996,6735.874072,10066.800811,1378.971896
563.646316,5255.462188,5477.523971,1072.533697
563.646637,4145.153275,4959.379811,536.266849
563.646957,3330.926739,7328.038826,0.000000
563.647278,2812.782580,7254.018232,-383.047749
563.647599,1850.514855,4663.297435,-842.705048
563.647919,3997.112087,4145.153275,-306.438199
563.648240,4885.359217,4885.359217,-383.047749
563.648560,3478.967927,5107.421000,0.000000
563.648881,5921.647536,7920.203579,229.828649
563.649202,8364.327145,11695.253884,0.000000
563.649522,6883.915261,11621.233289,-383.047749
563.649843,6365.771101,10288.862594,-1608.800546
563.650163,4959.379811,8512.368333,-1455.581446
563.650484,3627.009116,6513.812290,689.485948
563.650804,4737.318029,5403.503377,1455.581446
563.651125,6809.894666,5625.565159,-1225.752797
563.651446,3330.926739,7105.977043,-2221.676944
563.651766,3256.906145,7624.121203,76.609550
563.652087,3478.967927,6069.688724,1532.190996
563.652407,2220.617826,2442.679609,2221.676944
563.652728,4441.235652,3701.029710,2374.896044
563.653049,7105.977043,7698.141797,306.438199
563.653369,5329.482782,10584.944971,-1608.800546
563.653690,5033.400406,12361.439231,-1455.581446
563.654010,7698.141797,12583.501014,306.438199
563.654331,6587.832884,10807.006753,3447.429741
563.654651,3923.091493,8438.347739,4519.963438
563.654972,1776.494261,8364.327145,1378.971896
563.655293,2220.617826,9252.574275,153.219100
563.655613,1850.514855,6143.709319,842.705048
563.655934,3404.947333,4737.318029,-536.266849
563.656254,4959.379811,5329.482782,-153.219100
563.656575,4589.276840,7328.038826,1608.800546
563.656896,2442.679609,7920.203579,1072.533697
563.657216,6587.832884,8808.450710,689.485948
563.657537,6587.832884,9622.677246,383.047749
563.657857,9548.656652,11621.233289,0.000000
563.658178,9104.533087,11991.336260,-383.047749
563.658499,6291.750507,9252.574275,229.828649
563.658819,6883.915261,7550.100608,1915.238745
563.659140,6143.709319,5551.544565,1225.752797
563.659460,2368.659014,4219.173869,-1149.143247
563.659781,2738.761985,4441.235652,-1532.190996
563.660101,5551.544565,5625.565159,-1225.752797
563.660422,5107.421000,7254.018232,-1455.581446
563.660743,3849.070898,6143.709319,-919.314598
563.661063,6439.791695,7994.224174,153.219100
563.661384,4293.194464,8956.491898,-306.438199
563.661704,3552.988522,9696.697840,-1532.190996
563.662025,7105.977043,11251.130318,-3140.991542
563.662346,6809.894666,10436.903782,-3983.696590
563.662666,3923.091493,8734.430116,-1225.752797
563.662987,5329.482782,8290.306550,2068.457845
563.663307,5625.565159,8512.368333,2681.334243
563.663628,74.020594,7179.997637,2374.896044
563.663948,2368.659014,7994.224174,-1455.581446
563.664269,4293.194464,8660.409521,-2451.505594
563.664590,4441.235652,7994.224174,-383.047749
563.664910,4367.215058,5699.585753,689.485948
563.665231,5995.668130,5403.503377,-229.828649
563.665551,5921.647536,8882.471304,1072.533697
563.665872,3849.070898,10732.986159,-612.876398
563.666193,5181.441594,10881.027347,-3064.381992
563.666513,8068.244768,10510.924376,-1838.629195
563.666834,7624.121203,10584.944971,1685.410096
563.667154,7698.141797,11251.130318,2145.067394
563.667475,5033.400406,9326.594869,536.266849
563.667795,4145.153275,7031.956449,-1762.019645
563.668116,5107.421000,7402.059420,-2374.896044
563.668437,4737.318029,6143.709319,-1838.629195
563.668757,4071.132681,4071.132681,-1455.581446
563.669078,7105.977043,4737.318029,229.828649
563.669398,7105.977043,8216.285956,1455.581446
563.669719,5477.523971,9992.780217,306.438199
563.670040,6809.894666,11621.233289,-1302.362347
563.670360,5107.421000,11029.068536,-2911.162892
563.670681,5255.462188,10288.862594,0.000000
563.671001,7920.203579,9474.636058,2604.724693
563.671322,6439.791695,8438.347739,2068.457845
563.671642,2368.659014,7920.203579,2221.676944
563.671963,1184.329507,6587.832884,229.828649
563.672284,296.082377,4589.276840,-2221.676944
563.672604,740.205942,4589.276840,-842.705048
563.672925,2664.741391,4293.194464,1072.533697
563.673245,5255.462188,5847.626942,689.485948
563.673566,4441.235652,7179.997637,153.219100
563.673887,3775.050304,10066.800811,-1072.533697
563.674207,4589.276840,11029.068536,-3217.601092
563.674528,6735.874072,10955.047942,-3524.039291
563.674848,7402.059420,12065.356855,-1149.143247
563.675169,7105.977043,10362.883188,-229.828649
563.675489,6735.874072,6883.915261,1838.629195
563.675810,5107.421000,6365.771101,4903.011187
563.676131,3034.844362,6809.894666,3830.477490
563.676451,1554.432478,5995.668130,689.485948
563.676772,2294.638420,3552.988522,-2374.896044
563.677092,4293.194464,4071.132681,-2451.505594
563.677413,6735.874072,5477.523971,76.609550
563.677734,6809.894666,7105.977043,1455.581446
563.678054,5699.585753,10362.883188,1302.362347
563.678375,6143.709319,13619.789333,689.485948
563.678695,6513.812290,12509.480420,536.266849
563.679016,6439.791695,9770.718434,-536.266849
563.679337,5699.585753,8290.306550,-1915.238745
563.679657,4145.153275,6883.915261,-536.266849
563.679978,7994.224174,9622.677246,2834.553343
563.680298,6735.874072,11547.212695,4519.963438
563.680619,4737.318029,11325.150913,1532.190996
563.680939,3034.844362,7402.059420,-306.438199
563.681260,3034.844362,4737.318029,766.095498
563.681581,2368.659014,2664.741391,2528.115143
563.681901,4293.194464,814.226536,3294.210641
563.682222,7328.038826,2960.823768,0.000000
563.682542,6513.812290,8586.388927,-2681.334243
563.682863,4885.359217,12213.398043,-2528.115143
563.683184,6291.750507,13101.645173,-2451.505594
563.683504,7105.977043,12435.459826,-1608.800546
563.683825,7698.141797,12879.583391,-383.047749
563.684145,6957.935855,10288.862594,-76.609550
563.684466,5699.585753,6291.750507,0.000000
563.684786,3182.885551,5033.400406,689.485948
563.685107,2886.803174,7031.956449,0.000000
563.685428,1036.288319,4959.379811,-1072.533697
563.685748,518.144159,3701.029710,-2528.115143
563.686069,4145.153275,3849.070898,-612.876398
563.686389,6217.729913,4959.379811,3830.477490
563.686710,4737.318029,4293.194464,2221.676944
563.687031,2220.617826,5403.503377,-3600.648841
563.687351,3034.844362,8290.306550,-6128.763984
563.687672,6735.874072,12731.542202,-3677.258390
563.687992,7994.224174,14211.954086,-766.095498
563.688313,9178.553681,13323.706956,-1532.190996
563.688633,7179.997637,12287.418637,-1685.410096
563.688954,6365.771101,10288.862594,-229.828649
563.689275,2072.576638,6735.874072,0.000000
563.689595,2516.700203,3552.988522,0.000000
563.689916,3627.009116,2442.679609,689.485948
563.690236,3108.864956,3849.070898,0.000000
563.690557,3701.029710,6439.791695,-459.657299
563.690878,6217.729913,8586.388927,842.705048
563.691198,8142.265362,9770.718434,766.095498
563.691519,7328.038826,9252.574275,-1378.971896
563.691839,5773.606348,9622.677246,-3217.601092
563.692160,7698.141797,12065.356855,-1991.848295
563.692480,7476.080014,14211.954086,76.609550
563.692801,7105.977043,11843.295072,76.609550
563.693122,8216.285956,11547.212695,-459.657299
563.693442,7550.100608,11473.192101,153.219100
563.693763,2960.823768,9326.594869,1455.581446
563.694083,2368.659014,6365.771101,2145.067394
563.694404,2072.576638,4071.132681,1608.800546
563.694725,888.247130,3256.906145,-612.876398
563.695045,3108.864956,4441.235652,-153.219100
563.695366,5181.441594,6513.812290,1685.410096
563.695686,6513.812290,10214.842000,1838.629195
563.696007,5477.523971,11399.171507,306.438199
563.696327,4515.256246,11103.089130,-1991.848295
563.696648,6143.709319,12435.459826,-1608.800546
