#time,accel_x,accel_y,accel_z
587.630932,4959.379811,8142.265362,-306.438199
587.631253,4811.338623,8438.347739,76.609550
587.631573,4959.379811,8216.285956,-153.219100
587.631894,5033.400406,7920.203579,-306.438199
587.632214,4959.379811,7994.224174,-229.828649
587.632534,4959.379811,8068.244768,0.000000
587.632855,5181.441594,8142.265362,0.000000
587.633175,5033.400406,8142.265362,0.000000
587.633496,4959.379811,8142.265362,0.000000
587.633816,4885.359217,7920.203579,0.000000
587.634136,5033.400406,8216.285956,-383.047749
587.634457,4959.379811,8290.306550,0.000000
587.634777,4737.318029,7920.203579,-383.047749
587.635097,4811.338623,7994.224174,-383.047749
587.635418,5033.400406,7994.224174,-153.219100
587.635738,4959.379811,7994.224174,0.000000
587.636059,4663.297435,7994.224174,-306.438199
587.636379,4959.379811,7994.224174,0.000000
587.636699,4885.359217,8068.244768,0.000000
587.637020,5033.400406,7994.224174,-306.438199
587.637340,5033.400406,7772.162391,-229.828649
587.637660,4959.379811,7994.224174,-153.219100
587.637981,4959.379811,8068.244768,-229.828649
587.638301,4737.318029,7846.182985,-76.609550
587.638622,4885.359217,8068.244768,0.000000
587.638942,4959.379811,7920.203579,0.000000
587.639262,5181.441594,8364.327145,-383.047749
587.639583,4811.338623,7920.203579,0.000000
587.639903,4959.379811,8142.265362,-153.219100
587.640224,5181.441594,8142.265362,0.000000
587.640544,4885.359217,8068.244768,153.219100
587.640864,5033.400406,7994.224174,-153.219100
587.641185,4811.338623,7550.100608,-612.876398
587.641505,3997.112087,7476.080014,-383.047749
587.641825,4219.173869,7846.182985,-153.219100
587.642146,4663.297435,9030.512492,-229.828649
587.642466,4737.318029,10214.842000,-1302.362347
587.642787,4663.297435,10140.821405,-1149.143247
587.643107,4441.235652,9548.656652,-766.095498
587.643427,3923.091493,8808.450710,0.000000
587.643748,3330.926739,8586.388927,689.485948
587.644068,3182.885551,9252.574275,1149.143247
587.644388,2738.761985,9252.574275,383.047749
587.644709,2590.720797,9400.615463,0.000000
587.645029,2738.761985,8438.347739,-536.266849
587.645350,3256.906145,8660.409521,-306.438199
587.645670,2886.803174,9400.615463,153.219100
587.645990,2738.761985,9104.533087,306.438199
587.646311,2442.679609,8512.368333,0.000000
587.646631,2664.741391,9326.594869,0.000000
587.646952,2220.617826,10510.924376,-153.219100
587.647272,1998.556043,11991.336260,-766.095498
587.647592,1776.494261,12287.418637,-1072.533697
587.647913,1628.453072,11917.315666,-1149.143247
587.648233,740.205942,11103.089130,-1302.362347
587.648553,-370.102971,10881.027347,-1225.752797
587.648874,-592.164754,11769.274478,-995.924147
587.649194,-1480.411884,12361.439231,0.000000
587.649515,-1554.432478,12435.459826,919.314598
587.649835,-1332.370696,11769.274478,1072.533697
587.650155,-666.185348,12287.418637,1455.581446
587.650476,-1480.411884,13175.665768,1762.019645
587.650796,-2516.700203,12657.521608,1225.752797
587.651117,-2072.576638,10807.006753,229.828649
587.651437,-1110.308913,9622.677246,-76.609550
587.651757,-1406.391290,9548.656652,306.438199
587.652078,-1036.288319,10214.842000,766.095498
587.652398,-592.164754,10955.047942,383.047749
587.652718,0.000000,11251.130318,-842.705048
587.653039,888.247130,11547.212695,-1685.410096
587.653359,1628.453072,11177.109724,-1149.143247
587.653680,2442.679609,10732.986159,153.219100
587.654000,2664.741391,11177.109724,689.485948
587.654320,2368.659014,10510.924376,-995.924147
587.654641,1776.494261,9696.697840,-2068.457845
587.654961,1406.391290,9178.553681,-2068.457845
587.655281,2220.617826,9400.615463,-383.047749
587.655602,1924.535449,9918.759623,0.000000
587.655922,1702.473667,9918.759623,-306.438199
587.656243,1184.329507,10584.944971,-306.438199
587.656563,666.185348,10955.047942,383.047749
587.656883,74.020594,10362.883188,689.485948
587.657204,0.000000,9770.718434,689.485948
587.657524,296.082377,9696.697840,766.095498
587.657845,444.123565,9992.780217,612.876398
587.658165,0.000000,10362.883188,383.047749
587.658485,0.000000,11103.089130,536.266849
587.658806,814.226536,11843.295072,995.924147
587.659126,1110.308913,11547.212695,842.705048
587.659446,1036.288319,11103.089130,0.000000
587.659767,962.267725,10584.944971,-383.047749
587.660087,1332.370696,10510.924376,-842.705048
587.660408,1776.494261,9474.636058,-919.314598
587.660728,1332.370696,8882.471304,153.219100
587.661048,1628.453072,8438.347739,153.219100
587.661369,2072.576638,9178.553681,0.000000
587.661689,2368.659014,10140.821405,0.000000
587.662009,2442.679609,10955.047942,-842.705048
587.662330,2960.823768,10658.965565,-689.485948
587.662650,3849.070898,10510.924376,-1225.752797
587.662971,3552.988522,9918.759623,-766.095498
587.663291,2738.761985,9844.739029,-995.924147
587.663611,2960.823768,10140.821405,-995.924147
587.663932,1702.473667,10955.047942,-689.485948
587.664252,1258.350101,11251.130318,-459.657299
587.664573,1332.370696,11473.192101,-229.828649
587.664893,1036.288319,10881.027347,-1455.581446
587.665213,-444.123565,10288.862594,-1302.362347
587.665534,-1332.370696,9178.553681,-689.485948
587.665854,-1258.350101,9104.533087,0.000000
587.666174,-1332.370696,9696.697840,1532.190996
587.666495,-592.164754,11621.233289,1762.019645
587.666815,296.082377,13027.624579,1455.581446
587.667136,148.041188,13841.851115,766.095498
587.667456,222.061783,13471.748144,76.609550
587.667776,1258.350101,12435.459826,229.828649
587.668097,1258.350101,10955.047942,0.000000
587.668417,740.205942,9696.697840,-229.828649
587.668737,74.020594,9104.533087,-842.705048
587.669058,-1110.308913,9326.594869,-1838.629195
587.669378,-2294.638420,9696.697840,-1762.019645
587.669699,-1702.473667,10807.006753,-1225.752797
587.670019,-296.082377,12213.398043,-383.047749
587.670339,666.185348,12657.521608,0.000000
587.670660,1036.288319,12879.583391,-689.485948
587.670980,444.123565,13767.830521,-612.876398
587.671301,222.061783,13397.727550,-229.828649
587.671621,1332.370696,12435.459826,-383.047749
587.671941,1184.329507,9696.697840,-689.485948
587.672262,1850.514855,8068.244768,-76.609550
587.672582,1628.453072,8216.285956,612.876398
587.672902,0.000000,9400.615463,766.095498
587.673223,-296.082377,10362.883188,1378.971896
587.673543,-74.020594,9696.697840,766.095498
587.673864,444.123565,8364.327145,76.609550
587.674184,518.144159,9178.553681,229.828649
587.674504,814.226536,9918.759623,153.219100
587.674825,1406.391290,12509.480420,-612.876398
587.675145,1036.288319,13323.706956,-1072.533697
587.675465,1110.308913,11695.253884,-2145.067394
587.675786,1184.329507,12213.398043,-1762.019645
587.676106,1110.308913,12805.562797,-689.485948
587.676427,-444.123565,12509.480420,0.000000
587.676747,370.102971,10955.047942,383.047749
587.677067,1480.411884,10362.883188,1225.752797
587.677388,-518.144159,10140.821405,995.924147
587.677708,-962.267725,9548.656652,1455.581446
587.678029,-2294.638420,9400.615463,1685.410096
587.678349,-2738.761985,8290.306550,842.705048
587.678669,0.000000,8142.265362,536.266849
587.678990,2294.638420,9400.615463,153.219100
587.679310,1702.473667,11621.233289,-689.485948
587.679630,2220.617826,13619.789333,-536.266849
587.679951,2220.617826,13323.706956,-1762.019645
587.680271,1998.556043,9696.697840,-2451.505594
587.680592,2442.679609,6883.915261,-689.485948
587.680912,4367.215058,8142.265362,1072.533697
587.681232,1850.514855,11251.130318,766.095498
587.681553,0.000000,13101.645173,-1608.800546
587.681873,1258.350101,12805.562797,-3600.648841
587.682194,1628.453072,11103.089130,-2834.553343
587.682514,222.061783,8364.327145,-536.266849
587.682834,-888.247130,7105.977043,0.000000
587.683155,-962.267725,9252.574275,-153.219100
587.683475,-1554.432478,12805.562797,76.609550
587.683795,-1924.535449,14656.077652,689.485948
587.684116,-888.247130,14211.954086,76.609550
587.684436,-370.102971,14063.912898,612.876398
587.684757,-1776.494261,13471.748144,1378.971896
587.685077,-1184.329507,12065.356855,689.485948
587.685397,-1924.535449,10881.027347,0.000000
587.685718,-1036.288319,10214.842000,0.000000
587.686038,0.000000,9548.656652,536.266849
587.686358,-148.041188,8808.450710,1225.752797
587.686679,-370.102971,8586.388927,1532.190996
587.686999,1406.391290,9770.718434,1532.190996
587.687320,2812.782580,10658.965565,1225.752797
587.687640,3997.112087,11695.253884,-459.657299
587.687960,5033.400406,11991.336260,-1302.362347
587.688281,5625.565159,11769.274478,-2451.505594
587.688601,3108.864956,10362.883188,-3064.381992
587.688922,1258.350101,7846.182985,-2528.115143
587.689242,2146.597232,7254.018232,-1302.362347
587.689562,2886.803174,9622.677246,766.095498
587.689883,1258.350101,12509.480420,1225.752797
587.690203,2590.720797,13915.871710,-612.876398
587.690524,1258.350101,11843.295072,-2604.724693
587.690844,-1776.494261,9178.553681,-1532.190996
587.691165,-1776.494261,9400.615463,1378.971896
587.691486,-1998.556043,9770.718434,1915.238745
587.691806,-2368.659014,10955.047942,306.438199
587.692127,592.164754,12065.356855,-536.266849
587.692448,-962.267725,12731.542202,-689.485948
587.692768,-3034.844362,13027.624579,-229.828649
587.693089,-1406.391290,12213.398043,2145.067394
587.693409,148.041188,12657.521608,3753.867940
587.693730,444.123565,11325.150913,3064.381992
587.694051,0.000000,9400.615463,612.876398
587.694371,-592.164754,7772.162391,-1302.362347
587.694692,-740.205942,8142.265362,-766.095498
587.695012,370.102971,8734.430116,1225.752797
587.695333,2368.659014,8142.265362,306.438199
587.695654,5181.441594,8364.327145,-459.657299
587.695974,5995.668130,10510.924376,-689.485948
587.696295,3404.947333,12361.439231,-1991.848295
587.696615,2072.576638,11769.274478,-2528.115143
587.696936,4737.318029,11399.171507,-1762.019645
587.697257,3997.112087,9104.533087,-919.314598
587.697577,1998.556043,6587.832884,-612.876398
587.697898,2516.700203,7846.182985,-383.047749
587.698219,-518.144159,11991.336260,-1302.362347
587.698539,-1776.494261,13619.789333,-2374.896044
587.698860,0.000000,12139.377449,-2451.505594
587.699180,666.185348,10140.821405,-1302.362347
587.699501,0.000000,10510.924376,1762.019645
587.699822,-1924.535449,12065.356855,4136.915689
587.700142,-3701.029710,13027.624579,1915.238745
587.700463,-3701.029710,12805.562797,689.485948
587.700783,-3108.864956,10881.027347,689.485948
587.701104,-444.123565,10288.862594,76.609550
587.701425,1184.329507,12435.459826,1762.019645
587.701745,-1702.473667,14285.974681,229.828649
587.702066,-1850.514855,13249.686362,-1225.752797
587.702386,962.267725,11029.068536,-459.657299
587.702707,814.226536,9548.656652,383.047749
587.703028,1628.453072,9252.574275,2221.676944
587.703348,2664.741391,8808.450710,2757.943793
587.703669,2146.597232,9474.636058,-383.047749
587.703990,3775.050304,9696.697840,-1915.238745
587.704310,4663.297435,8956.491898,-2528.115143
587.704631,5699.585753,7994.224174,-2604.724693
587.704951,5403.503377,8290.306550,-1225.752797
587.705272,4145.153275,9178.553681,-536.266849
587.705593,3108.864956,9104.533087,-2145.067394
587.705913,2516.700203,9178.553681,-2451.505594
587.706234,3182.885551,11695.253884,-2834.553343
587.706554,1628.453072,13693.809927,-1225.752797
587.706875,666.185348,13619.789333,-1072.533697
587.707196,-296.082377,12879.583391,-2681.334243
587.707516,-2516.700203,10955.047942,-2374.896044
587.707837,-2516.700203,10436.903782,1072.533697
587.708157,-3552.988522,11843.295072,3140.991542
587.708478,-4515.256246,12953.603985,3140.991542
587.708799,-4145.153275,13175.665768,3370.820191
587.709119,-1924.535449,13619.789333,2987.772442
587.709440,-2960.823768,11621.233289,3217.601092
587.709761,-2886.803174,10584.944971,2987.772442
587.710081,-3330.926739,9400.615463,2681.334243
587.710402,-2368.659014,10510.924376,1378.971896
587.710722,-814.226536,11029.068536,1302.362347
587.711043,1406.391290,10140.821405,306.438199
587.711364,2886.803174,8438.347739,-1072.533697
587.711684,3478.967927,9326.594869,-766.095498
587.712005,4293.194464,12435.459826,-1225.752797
587.712325,3256.906145,12213.398043,-1991.848295
587.712646,4589.276840,8586.388927,-2757.943793
587.712967,7624.121203,6809.894666,-1762.019645
587.713287,5847.626942,7772.162391,-1149.143247
587.713608,3552.988522,9474.636058,-1991.848295
587.713928,3034.844362,10807.006753,-2068.457845
587.714249,3330.926739,11621.233289,-1608.800546
587.714570,2368.659014,8882.471304,-612.876398
587.714890,1776.494261,6217.729913,-459.657299
587.715211,2812.782580,6217.729913,-153.219100
587.715532,-1036.288319,9400.615463,689.485948
587.715852,-2442.679609,10955.047942,-76.609550
587.716173,-1110.308913,10288.862594,-2068.457845
587.716493,148.041188,9548.656652,612.876398
587.716814,740.205942,12361.439231,3064.381992
587.717135,-962.267725,13989.892304,3064.381992
587.717455,-2516.700203,14656.077652,-1225.752797
587.717776,-2812.782580,12879.583391,-1915.238745
587.718096,-1110.308913,11843.295072,383.047749
587.718417,2146.597232,10658.965565,2987.772442
587.718738,518.144159,10140.821405,2374.896044
587.719058,-592.164754,9548.656652,-612.876398
587.719379,-814.226536,9770.718434,-842.705048
587.719699,0.000000,9104.533087,536.266849
587.720020,2812.782580,7772.162391,1762.019645
587.720341,4145.153275,7920.203579,842.705048
587.720661,4885.359217,8734.430116,-1455.581446
587.720982,4219.173869,9696.697840,-4136.915689
587.721303,3552.988522,8438.347739,-4826.401637
587.721623,5995.668130,9104.533087,-2604.724693
587.721944,7550.100608,10510.924376,153.219100
587.722264,5625.565159,9770.718434,-2068.457845
587.722585,4885.359217,9178.553681,-4519.963438
587.722906,3182.885551,9548.656652,-4443.353888
587.723226,3775.050304,12065.356855,-2911.162892
587.723547,3701.029710,12435.459826,-1302.362347
587.723867,1554.432478,8216.285956,-1762.019645
587.724188,666.185348,9178.553681,-1608.800546
587.724509,-1702.473667,11769.274478,1378.971896
587.724829,-5477.523971,13027.624579,1762.019645
587.725150,-4515.256246,12953.603985,-153.219100
587.725470,-1554.432478,14508.036463,459.657299
587.725791,-2664.741391,15248.242405,1532.190996
587.726112,-4367.215058,12953.603985,1149.143247
587.726432,-5477.523971,10288.862594,229.828649
587.726753,-5625.565159,11103.089130,1991.848295
587.727074,-3849.070898,14137.933492,3677.258390
587.727394,-2516.700203,12139.377449,1762.019645
587.727715,-1480.411884,9918.759623,-2681.334243
587.728035,2590.720797,12213.398043,-1685.410096
587.728356,1406.391290,15396.283594,2221.676944
587.728677,444.123565,12657.521608,1378.971896
587.728997,4441.235652,8734.430116,459.657299
587.729318,7476.080014,7994.224174,-1149.143247
587.729638,5255.462188,7254.018232,-1685.410096
587.729959,3330.926739,7920.203579,-1378.971896
587.730280,4441.235652,9104.533087,-2834.553343
587.730600,3775.050304,10214.842000,-1915.238745
587.730921,3849.070898,8586.388927,-536.266849
587.731241,5477.523971,6661.853478,-1838.629195
587.731562,2960.823768,7698.141797,-1762.019645
587.731883,1998.556043,12731.542202,-689.485948
587.732203,888.247130,14434.015869,-1532.190996
587.732524,-814.226536,9918.759623,-2604.724693
587.732845,3478.967927,8364.327145,229.828649
587.733165,4811.338623,9252.574275,4596.572988
587.733486,-148.041188,7846.182985,2604.724693
587.733806,-1480.411884,8734.430116,-306.438199
587.734127,-1702.473667,7846.182985,-383.047749
587.734448,-592.164754,7772.162391,1915.238745
587.734768,3108.864956,6809.894666,5822.325785
587.735089,5773.606348,6439.791695,4443.353888
587.735409,1924.535449,8216.285956,383.047749
587.735730,1554.432478,7994.224174,-689.485948
587.736051,3478.967927,6365.771101,-689.485948
587.736371,5699.585753,5329.482782,-536.266849
587.736692,8882.471304,7550.100608,919.314598
587.737012,9326.594869,9696.697840,-153.219100
587.737333,5625.565159,10140.821405,-5056.230287
587.737654,5403.503377,8438.347739,-5439.278036
587.737974,6735.874072,7698.141797,-1762.019645
587.738295,6365.771101,6217.729913,919.314598
587.738616,6439.791695,7550.100608,229.828649
587.738936,6513.812290,9696.697840,-1302.362347
587.739257,3923.091493,10510.924376,-3600.648841
587.739577,2664.741391,9252.574275,-2987.772442
587.739898,4589.276840,7920.203579,1455.581446
587.740219,6365.771101,6439.791695,3983.696590
587.740539,5847.626942,6439.791695,5056.230287
587.740860,3108.864956,5329.482782,1685.410096
587.741180,2886.803174,6143.709319,-1685.410096
587.741501,2960.823768,8734.430116,-459.657299
587.741822,3552.988522,8364.327145,995.924147
587.742142,7550.100608,6365.771101,612.876398
587.742463,9326.594869,7031.956449,995.924147
587.742783,5847.626942,10732.986159,-2221.676944
587.743104,2368.659014,11843.295072,-3983.696590
587.743425,1554.432478,11177.109724,-3907.087040
587.743745,4145.153275,10288.862594,-2068.457845
587.744066,7624.121203,10584.944971,76.609550
587.744387,6513.812290,11695.253884,-306.438199
587.744707,2442.679609,13545.768739,-3907.087040
587.745028,0.000000,15248.242405,-3600.648841
587.745348,0.000000,12879.583391,612.876398
587.745669,1258.350101,7476.080014,1991.848295
587.745990,3034.844362,6069.688724,3677.258390
587.746310,3182.885551,7328.038826,3907.087040
587.746631,-962.267725,8216.285956,3217.601092
587.746951,888.247130,7846.182985,2068.457845
587.747272,2590.720797,7328.038826,-306.438199
587.747593,5551.544565,5477.523971,0.000000
587.747913,8512.368333,5847.626942,383.047749
587.748234,9622.677246,7920.203579,0.000000
587.748554,6661.853478,7476.080014,-1072.533697
587.748875,9104.533087,6809.894666,-2374.896044
587.749196,10288.862594,5551.544565,-3217.601092
587.749516,11991.336260,4737.318029,-2911.162892
587.749837,13027.624579,6143.709319,-3447.429741
587.750157,11103.089130,5773.606348,-5056.230287
587.750478,8660.409521,6217.729913,-4673.182538
587.750799,9104.533087,7846.182985,383.047749
587.751119,7772.162391,7254.018232,2451.505594
587.751440,6957.935855,5773.606348,2221.676944
587.751761,5773.606348,5773.606348,1225.752797
587.752081,2738.761985,6513.812290,-306.438199
587.752402,1776.494261,7179.997637,0.000000
587.752722,3330.926739,7105.977043,2298.286494
587.753043,3478.967927,7550.100608,1991.848295
587.753364,2146.597232,7550.100608,1991.848295
587.753684,1554.432478,8364.327145,1532.190996
587.754005,740.205942,9252.574275,1149.143247
587.754325,296.082377,10584.944971,612.876398
587.754646,3108.864956,11621.233289,459.657299
587.754967,4737.318029,10288.862594,-1608.800546
587.755287,6365.771101,9548.656652,-612.876398
587.755608,4737.318029,10362.883188,1455.581446
587.755928,3775.050304,10436.903782,689.485948
587.756249,3034.844362,9844.739029,0.000000
587.756570,5107.421000,7328.038826,612.876398
587.756890,5107.421000,4811.338623,1532.190996
587.757211,4885.359217,3330.926739,2528.115143
587.757532,4441.235652,4441.235652,383.047749
587.757852,4737.318029,8956.491898,-1532.190996
587.758173,3849.070898,9918.759623,-2757.943793
587.758493,7920.203579,9104.533087,-1915.238745
587.758814,10140.821405,8512.368333,153.219100
587.759135,5995.668130,6883.915261,0.000000
587.759455,5033.400406,8216.285956,-1838.629195
587.759776,5773.606348,10510.924376,-1915.238745
587.760096,3923.091493,11843.295072,-3370.820191
587.760417,5329.482782,8068.244768,-3370.820191
587.760738,7698.141797,6735.874072,-3064.381992
587.761058,4071.132681,7624.121203,-766.095498
587.761379,-962.267725,9696.697840,2757.943793
587.761699,444.123565,9770.718434,3140.991542
587.762020,2886.803174,8586.388927,1532.190996
587.762341,4959.379811,7772.162391,3217.601092
587.762661,4293.194464,6439.791695,3370.820191
587.762982,2516.700203,8068.244768,76.609550
587.763303,2294.638420,8364.327145,-766.095498
587.763623,4145.153275,9030.512492,-306.438199
587.763944,6365.771101,5699.585753,-306.438199
587.764264,7550.100608,5255.462188,153.219100
587.764585,6069.688724,8660.409521,1149.143247
587.764906,2590.720797,11029.068536,-1455.581446
587.765226,4219.173869,9992.780217,-2528.115143
587.765547,8142.265362,7920.203579,-1685.410096
587.765867,9474.636058,7105.977043,-612.876398
587.766188,7846.182985,6365.771101,-229.828649
587.766509,7328.038826,7994.224174,-2681.334243
587.766829,6587.832884,9770.718434,-3447.429741
587.767150,7772.162391,7920.203579,459.657299
587.767470,8660.409521,4885.359217,2068.457845
587.767791,9474.636058,3997.112087,1378.971896
587.768112,7402.059420,6883.915261,766.095498
587.768432,4441.235652,8660.409521,-766.095498
587.768753,3552.988522,7402.059420,-2757.943793
587.769074,6661.853478,4737.318029,-1838.629195
587.769394,7846.182985,6291.750507,1378.971896
587.769715,5477.523971,9474.636058,1149.143247
587.770035,1702.473667,11621.233289,-459.657299
587.770356,3182.885551,11991.336260,-1378.971896
587.770677,1924.535449,10288.862594,-1378.971896
587.770997,4589.276840,8142.265362,689.485948
587.771318,6143.709319,9252.574275,1685.410096
587.771638,4145.153275,10881.027347,1302.362347
587.771959,-962.267725,9918.759623,919.314598
587.772280,2146.597232,6735.874072,0.000000
587.772600,3923.091493,4515.256246,0.000000
587.772921,4441.235652,5921.647536,2451.505594
587.773241,4367.215058,10214.842000,2528.115143
587.773562,3997.112087,12361.439231,-306.438199
587.773883,4293.194464,9474.636058,-2145.067394
587.774203,4737.318029,5921.647536,153.219100
587.774524,6069.688724,4663.297435,1762.019645
587.774845,5847.626942,7846.182985,2681.334243
587.775165,3108.864956,10214.842000,-1302.362347
587.775486,4293.194464,8364.327145,-4826.401637
587.775806,7179.997637,5181.441594,-3217.601092
587.776127,8290.306550,5181.441594,229.828649
587.776448,7328.038826,7105.977043,1838.629195
587.776768,6439.791695,9548.656652,-306.438199
587.777089,5551.544565,10658.965565,-2068.457845
587.777409,7105.977043,7624.121203,-842.705048
587.777730,6365.771101,3404.947333,459.657299
587.778051,5107.421000,3552.988522,1532.190996
587.778371,3849.070898,8586.388927,1838.629195
587.778692,3182.885551,11843.295072,-536.266849
587.779012,2664.741391,8660.409521,-2604.724693
587.779333,6439.791695,4663.297435,-1072.533697
587.779654,4663.297435,5255.462188,2068.457845
587.779974,1406.391290,7624.121203,1991.848295
587.780295,1554.432478,11177.109724,383.047749
587.780616,5033.400406,12361.439231,-1072.533697
587.780936,6513.812290,10362.883188,-919.314598
587.781257,7254.018232,8734.430116,612.876398
587.781577,4663.297435,8512.368333,0.000000
587.781898,2072.576638,10732.986159,-995.924147
587.782219,3404.947333,10214.842000,0.000000
587.782539,7328.038826,7698.141797,-995.924147
587.782860,7550.100608,4811.338623,-689.485948
587.783180,5773.606348,5033.400406,1072.533697
587.783501,3404.947333,8956.491898,766.095498
587.783822,2590.720797,11621.233289,1072.533697
587.784142,6439.791695,8734.430116,1302.362347
587.784463,9696.697840,5699.585753,1532.190996
587.784783,8290.306550,4145.153275,1532.190996
587.785104,5551.544565,7772.162391,995.924147
587.785425,3775.050304,10362.883188,-2451.505594
587.785745,4811.338623,9252.574275,-3830.477490
587.786066,8660.409521,7402.059420,-919.314598
587.786387,9770.718434,6513.812290,1149.143247
587.786707,6957.935855,8512.368333,536.266849
587.787028,2516.700203,9844.739029,-1608.800546
587.787348,1628.453072,10584.944971,-3830.477490
587.787669,5107.421000,7550.100608,-2145.067394
587.787990,6957.935855,3775.050304,995.924147
587.788310,6883.915261,4959.379811,3064.381992
587.788631,3404.947333,9844.739029,2221.676944
587.788951,1036.288319,12361.439231,-995.924147
587.789272,814.226536,8660.409521,-2911.162892
587.789593,6513.812290,4441.235652,-612.876398
587.789913,8364.327145,4663.297435,3753.867940
587.790234,5847.626942,7105.977043,3064.381992
587.790554,2442.679609,8734.430116,-919.314598
587.790875,3330.926739,9474.636058,-3217.601092
587.791196,4589.276840,6513.812290,-2298.286494
587.791516,8290.306550,6291.750507,153.219100
587.791837,9178.553681,7550.100608,612.876398
587.792158,3775.050304,9474.636058,-1762.019645
587.792478,2294.638420,10288.862594,-1762.019645
587.792799,4737.318029,8734.430116,-306.438199
587.793120,3775.050304,7031.956449,536.266849
587.793440,4663.297435,5847.626942,459.657299
587.793761,5329.482782,9992.780217,0.000000
587.794082,2442.679609,11843.295072,-1225.752797
587.794403,1776.494261,10510.924376,-1225.752797
587.794724,4589.276840,7254.018232,306.438199
587.795044,4367.215058,5551.544565,1608.800546
587.795365,4737.318029,10807.006753,3217.601092
587.795686,2368.659014,12879.583391,1455.581446
587.796007,1924.535449,11325.150913,-2757.943793
587.796327,3849.070898,7402.059420,-1225.752797
587.796648,4071.132681,5773.606348,2681.334243
587.796969,4959.379811,7920.203579,3064.381992
587.797290,3775.050304,8882.471304,1072.533697
587.797611,3330.926739,10066.800811,-3217.601092
587.797931,5403.503377,8438.347739,-3064.381992
587.798252,6661.853478,5625.565159,0.000000
587.798573,6587.832884,4441.235652,3064.381992
587.798894,7994.224174,7698.141797,3830.477490
587.799215,8290.306550,10658.965565,1072.533697
587.799535,5995.668130,9474.636058,-2834.553343
587.799856,7179.997637,6069.688724,-3524.039291
587.800177,8660.409521,4663.297435,-383.047749
587.800498,7105.977043,4737.318029,689.485948
587.800818,6587.832884,6143.709319,153.219100
587.801139,6661.853478,8512.368333,-1225.752797
587.801460,5403.503377,8142.265362,-2451.505594
587.801781,4737.318029,7550.100608,-1149.143247
587.802102,4293.194464,7624.121203,0.000000
587.802422,3034.844362,9030.512492,76.609550
587.802743,4293.194464,10066.800811,1608.800546
587.803064,6365.771101,9474.636058,1838.629195
587.803385,3701.029710,7846.182985,306.438199
587.803705,3404.947333,5847.626942,689.485948
587.804026,4663.297435,8882.471304,1762.019645
587.804347,2368.659014,10584.944971,689.485948
587.804668,2146.597232,8216.285956,-383.047749
587.804989,7105.977043,5033.400406,-612.876398
587.805309,5699.585753,3849.070898,229.828649
587.805630,3552.988522,5699.585753,2528.115143
587.805951,4737.318029,9474.636058,995.924147
587.806272,4219.173869,11769.274478,-3217.601092
587.806592,4367.215058,10140.821405,-2451.505594
587.806913,8586.388927,7920.203579,229.828649
587.807234,8142.265362,7402.059420,1225.752797
587.807555,5403.503377,9104.533087,689.485948
587.807876,3404.947333,10436.903782,-2604.724693
587.808196,5033.400406,9104.533087,-4826.401637
587.808517,6069.688724,8364.327145,-1685.410096
587.808838,7550.100608,7179.997637,1915.238745
587.809159,6217.729913,5773.606348,1225.752797
587.809479,3478.967927,6069.688724,-766.095498
587.809800,2886.803174,8734.430116,-2757.943793
587.810121,4145.153275,9548.656652,-2911.162892
587.810442,4737.318029,7550.100608,-919.314598
587.810763,7994.224174,7846.182985,1149.143247
587.811083,5255.462188,9104.533087,1838.629195
587.811404,814.226536,9326.594869,383.047749
587.811725,2738.761985,9474.636058,-1072.533697
587.812046,4737.318029,8956.491898,-229.828649
587.812366,4959.379811,8660.409521,1532.190996
587.812687,6291.750507,9548.656652,1685.410096
587.813008,2368.659014,9104.533087,-2604.724693
587.813329,1850.514855,9918.759623,-4443.353888
587.813650,3256.906145,8290.306550,-153.219100
587.813970,5699.585753,7328.038826,1838.629195
587.814291,5107.421000,7698.141797,1838.629195
587.814612,5033.400406,9400.615463,229.828649
587.814933,2590.720797,10214.842000,-1685.410096
587.815253,2886.803174,8956.491898,-2374.896044
587.815574,3849.070898,7254.018232,-306.438199
587.815895,6217.729913,6809.894666,842.705048
587.816216,6291.750507,5551.544565,689.485948
587.816537,6735.874072,8068.244768,-842.705048
587.816857,4219.173869,8364.327145,-2451.505594
587.817178,4071.132681,7179.997637,-2451.505594
587.817499,8364.327145,8290.306550,0.000000
587.817820,7476.080014,8216.285956,-383.047749
587.818141,6735.874072,9548.656652,-1378.971896
587.818461,8216.285956,9326.594869,-2068.457845
587.818782,5403.503377,8068.244768,-3524.039291
587.819103,3404.947333,6957.935855,-1225.752797
587.819424,7402.059420,5847.626942,1072.533697
587.819744,5551.544565,5477.523971,0.000000
587.820065,4367.215058,5921.647536,919.314598
587.820386,5181.441594,8882.471304,459.657299
587.820707,3404.947333,8808.450710,-1072.533697
587.821028,2886.803174,7994.224174,-766.095498
587.821348,7772.162391,7624.121203,842.705048
587.821669,7105.977043,7476.080014,0.000000
587.821990,4959.379811,7772.162391,-1685.410096
587.822311,4811.338623,9104.533087,-1378.971896
587.822631,5699.585753,9104.533087,-766.095498
587.822952,5033.400406,9400.615463,459.657299
587.823273,5107.421000,9030.512492,383.047749
587.823594,5181.441594,8512.368333,-1915.238745
587.823915,3330.926739,9252.574275,-1072.533697
587.824235,1998.556043,8660.409521,1149.143247
587.824556,3552.988522,7254.018232,919.314598
587.824877,5107.421000,6883.915261,842.705048
587.825198,4589.276840,9030.512492,-229.828649
587.825518,3701.029710,9918.759623,-995.924147
587.825839,3478.967927,9770.718434,-1149.143247
587.826160,6439.791695,9548.656652,766.095498
587.826481,4737.318029,6809.894666,1838.629195
587.826802,3478.967927,5847.626942,689.485948
587.827122,6957.935855,9474.636058,0.000000
587.827443,2960.823768,11029.068536,-536.266849
587.827764,3701.029710,9030.512492,-1685.410096
587.828085,8660.409521,6661.853478,-1072.533697
587.828405,6883.915261,6069.688724,0.000000
587.828726,4515.256246,7772.162391,612.876398
587.829047,5551.544565,9178.553681,536.266849
587.829368,4071.132681,8512.368333,-1225.752797
587.829689,4737.318029,6291.750507,536.266849
587.830009,6957.935855,5921.647536,2145.067394
587.830330,5773.606348,7328.038826,-383.047749
587.830651,3775.050304,8956.491898,-1685.410096
587.830972,4885.359217,8882.471304,0.000000
587.831292,5995.668130,8364.327145,-1072.533697
587.831613,4071.132681,4885.359217,0.000000
587.831934,4293.194464,6291.750507,766.095498
587.832255,4145.153275,11399.171507,-229.828649
587.832576,296.082377,11991.336260,-689.485948
587.832896,3627.009116,9844.739029,0.000000
587.833217,7105.977043,5995.668130,842.705048
587.833538,4441.235652,6291.750507,459.657299
587.833859,2738.761985,7254.018232,1302.362347
587.834179,2294.638420,7772.162391,-612.876398
587.834500,2960.823768,7179.997637,-1225.752797
587.834821,5107.421000,6809.894666,612.876398
587.835142,6809.894666,6661.853478,766.095498
587.835463,7402.059420,8142.265362,-842.705048
587.835783,5181.441594,10140.821405,-612.876398
587.836104,5403.503377,8068.244768,-1378.971896
587.836425,6809.894666,6957.935855,-1378.971896
587.836746,7179.997637,5107.421000,536.266849
587.837066,5773.606348,7031.956449,-536.266849
587.837387,5847.626942,10066.800811,-1072.533697
587.837708,3404.947333,9696.697840,-2374.896044
587.838029,4219.173869,7550.100608,-3677.258390
587.838350,6069.688724,5773.606348,0.000000
587.838670,6587.832884,6883.915261,1455.581446
587.838991,3997.112087,7476.080014,612.876398
587.839312,3478.967927,9326.594869,-1455.581446
587.839633,6661.853478,11547.212695,-2834.553343
587.839954,6143.709319,9918.759623,-1378.971896
587.840274,6587.832884,7772.162391,306.438199
587.840595,7550.100608,8956.491898,1532.190996
587.840916,4219.173869,8956.491898,919.314598
587.841237,3478.967927,9474.636058,-612.876398
587.841557,5107.421000,6957.935855,-919.314598
587.841878,4441.235652,6217.729913,-1378.971896
587.842199,4811.338623,7105.977043,1455.581446
587.842520,5625.565159,9178.553681,2451.505594
587.842841,3552.988522,9844.739029,459.657299
587.843161,4811.338623,9474.636058,-995.924147
587.843482,6587.832884,8290.306550,-995.924147
587.843803,4515.256246,8290.306550,-689.485948
587.844124,5773.606348,8216.285956,-536.266849
587.844444,7402.059420,9178.553681,229.828649
587.844765,6735.874072,8882.471304,-229.828649
587.845086,6513.812290,8290.306550,-612.876398
587.845407,5625.565159,8142.265362,-383.047749
587.845728,4293.194464,6957.935855,-2145.067394
587.846048,3849.070898,8216.285956,-842.705048
587.846369,3923.091493,8142.265362,1302.362347
587.846690,6217.729913,7179.997637,229.828649
587.847011,6217.729913,6735.874072,1072.533697
587.847331,4145.153275,6217.729913,-306.438199
587.847652,3923.091493,7772.162391,0.000000
587.847973,3034.844362,9548.656652,1378.971896
587.848294,4145.153275,9548.656652,612.876398
587.848615,6883.915261,7328.038826,995.924147
587.848935,6069.688724,6069.688724,995.924147
587.849256,4441.235652,7772.162391,459.657299
587.849577,3108.864956,7994.224174,0.000000
587.849898,2812.782580,7994.224174,-1608.800546
587.850218,4811.338623,7328.038826,-1225.752797
587.850539,6513.812290,6957.935855,842.705048
587.850860,5329.482782,7846.182985,2221.676944
587.851181,4589.276840,8734.430116,1149.143247
587.851502,3849.070898,9030.512492,459.657299
587.851822,4219.173869,7994.224174,-383.047749
587.852143,5995.668130,5921.647536,153.219100
587.852464,6735.874072,4737.318029,1455.581446
587.852785,5477.523971,5181.441594,1378.971896
587.853105,5477.523971,7624.121203,229.828649
587.853426,5329.482782,9918.759623,-1225.752797
587.853747,5107.421000,8586.388927,-1532.190996
587.854068,7920.203579,7105.977043,-612.876398
587.854389,8586.388927,6439.791695,306.438199
587.854709,4441.235652,7105.977043,-229.828649
587.855030,3923.091493,6809.894666,-766.095498
587.855351,6069.688724,8512.368333,-919.314598
587.855672,6513.812290,8364.327145,-536.266849
587.855992,6217.729913,9844.739029,919.314598
587.856313,6143.709319,11103.089130,229.828649
587.856634,3923.091493,10214.842000,-689.485948
587.856955,2294.638420,9400.615463,1378.971896
587.857276,3034.844362,7179.997637,2451.505594
587.857596,4885.359217,6809.894666,2451.505594
587.857917,3330.926739,8216.285956,1532.190996
587.858238,1850.514855,9548.656652,-1149.143247
587.858559,3108.864956,10140.821405,-1225.752797
587.858880,3923.091493,8956.491898,153.219100
587.859200,4441.235652,7031.956449,1149.143247
587.859521,5255.462188,6217.729913,2681.334243
587.859842,5773.606348,8216.285956,1225.752797
587.860163,4959.379811,10066.800811,-1455.581446
587.860483,4811.338623,8142.265362,-3370.820191
587.860804,7476.080014,6809.894666,-3753.867940
587.861125,9030.512492,7254.018232,-842.705048
587.861446,7772.162391,7402.059420,689.485948
587.861767,7031.956449,8438.347739,76.609550
587.862087,7179.997637,9548.656652,-2221.676944
587.862408,4737.318029,8660.409521,-3064.381992
587.862729,3627.009116,5551.544565,-1378.971896
587.863050,5403.503377,5551.544565,-536.266849
587.863370,5995.668130,5625.565159,842.705048
587.863691,5625.565159,7624.121203,766.095498
587.864012,3330.926739,7105.977043,-1302.362347
587.864333,2886.803174,7846.182985,-1762.019645
587.864654,3478.967927,10510.924376,-306.438199
587.864974,3849.070898,9844.739029,1378.971896
587.865295,3923.091493,8586.388927,1072.533697
587.865616,7254.018232,6957.935855,459.657299
587.865937,4737.318029,8290.306550,76.609550
587.866257,2368.659014,8586.388927,-1532.190996
587.866578,3627.009116,8808.450710,-1685.410096
587.866899,5625.565159,9918.759623,-842.705048
587.867220,6439.791695,9252.574275,383.047749
587.867541,5107.421000,8142.265362,1149.143247
587.867861,5033.400406,6217.729913,-536.266849
587.868182,4663.297435,9104.533087,0.000000
587.868503,2072.576638,8438.347739,1838.629195
587.868824,4293.194464,5699.585753,229.828649
587.869144,7772.162391,6661.853478,153.219100
587.869465,5033.400406,6957.935855,0.000000
587.869786,5773.606348,9992.780217,229.828649
587.870107,7254.018232,9770.718434,-459.657299
587.870428,6439.791695,9104.533087,-2145.067394
587.870748,6661.853478,7698.141797,-536.266849
587.871069,7476.080014,6439.791695,689.485948
587.871390,5847.626942,8290.306550,612.876398
587.871711,5181.441594,9178.553681,995.924147
587.872031,4737.318029,8364.327145,-1225.752797
587.872352,4885.359217,6883.915261,-2298.286494
587.872673,5477.523971,6513.812290,-536.266849
587.872994,5995.668130,7550.100608,2221.676944
587.873315,3478.967927,6883.915261,2374.896044
587.873635,4885.359217,8660.409521,2221.676944
587.873956,4071.132681,7994.224174,995.924147
587.874277,3478.967927,6143.709319,0.000000
587.874598,5847.626942,7772.162391,1378.971896
587.874918,6439.791695,9474.636058,1455.581446
587.875239,4441.235652,7920.203579,-995.924147
587.875560,3997.112087,5255.462188,-2374.896044
587.875881,4293.194464,5329.482782,-3217.601092
587.876202,4219.173869,10214.842000,-1378.971896
587.876522,3775.050304,12583.501014,153.219100
587.876843,3478.967927,10066.800811,-1149.143247
587.877164,8142.265362,8438.347739,-383.047749
587.877485,5699.585753,7624.121203,2298.286494
587.877806,1850.514855,7254.018232,2374.896044
587.878126,2960.823768,6143.709319,842.705048
587.878447,4441.235652,6513.812290,76.609550
587.878768,5329.482782,6069.688724,536.266849
587.879089,6735.874072,5847.626942,689.485948
587.879409,6883.915261,7105.977043,-1072.533697
587.879730,3701.029710,9918.759623,-2298.286494
587.880051,3997.112087,9252.574275,-766.095498
587.880372,7698.141797,7624.121203,536.266849
587.880693,8586.388927,6365.771101,0.000000
587.881013,4737.318029,7624.121203,-1149.143247
587.881334,4959.379811,10362.883188,-1991.848295
587.881655,3256.906145,10362.883188,-1838.629195
587.881976,5773.606348,11103.089130,0.000000
587.882296,7105.977043,8364.327145,459.657299
587.882617,5625.565159,6809.894666,-1532.190996
587.882938,3849.070898,7550.100608,-1685.410096
587.883259,1776.494261,8512.368333,536.266849
587.883580,2664.741391,7254.018232,1685.410096
587.883900,7624.121203,8290.306550,1838.629195
587.884221,6809.894666,9474.636058,612.876398
587.884542,2812.782580,10436.903782,-1225.752797
587.884863,3256.906145,11769.274478,-842.705048
587.885183,3330.926739,10362.883188,459.657299
587.885504,1998.556043,7105.977043,612.876398
587.885825,6957.935855,5699.585753,995.924147
587.886146,6365.771101,7105.977043,-689.485948
587.886467,2590.720797,8660.409521,-919.314598
587.886787,2516.700203,10436.903782,-689.485948
587.887108,4219.173869,11917.315666,-1608.800546
587.887429,4219.173869,8512.368333,-689.485948
587.887750,9252.574275,7698.141797,1838.629195
587.888070,7328.038826,7031.956449,995.924147
587.888391,2368.659014,7179.997637,-1225.752797
587.888712,2294.638420,6735.874072,-1608.800546
587.889033,4145.153275,7846.182985,-842.705048
587.889354,6661.853478,8882.471304,-383.047749
587.889674,7624.121203,9252.574275,536.266849
587.889995,5033.400406,8808.450710,-1149.143247
587.890316,3478.967927,7994.224174,-2298.286494
587.890637,2516.700203,7328.038826,1072.533697
587.890957,2664.741391,5551.544565,536.266849
587.891278,5551.544565,5625.565159,536.266849
587.891599,5847.626942,7402.059420,919.314598
587.891920,5181.441594,7772.162391,-1532.190996
587.892240,4663.297435,8216.285956,-842.705048
587.892561,5699.585753,9474.636058,459.657299
587.892882,6069.688724,8512.368333,0.000000
587.893202,7105.977043,5773.606348,0.000000
587.893523,7105.977043,6217.729913,-842.705048
587.893844,4367.215058,7550.100608,-1149.143247
587.894164,3330.926739,7105.977043,-995.924147
587.894485,4145.153275,6143.709319,-2068.457845
587.894806,6513.812290,7698.141797,-919.314598
587.895126,7328.038826,9252.574275,842.705048
587.895447,5699.585753,10066.800811,306.438199
587.895767,3478.967927,9178.553681,-2451.505594
587.896088,2294.638420,8364.327145,-1378.971896
587.896409,3775.050304,6217.729913,1225.752797
587.896729,6513.812290,6587.832884,1608.800546
587.897050,5847.626942,8364.327145,1072.533697
587.897371,3330.926739,10881.027347,-459.657299
587.897691,2516.700203,11843.295072,-1608.800546
587.898012,1406.391290,9992.780217,-229.828649
587.898333,4293.194464,8660.409521,995.924147
587.898653,7624.121203,7105.977043,229.828649
587.898974,4737.318029,6883.915261,-1455.581446
587.899295,592.164754,7105.977043,-2451.505594
587.899615,2738.761985,9474.636058,0.000000
587.899936,5625.565159,10214.842000,995.924147
587.900256,6217.729913,9474.636058,-153.219100
587.900577,6809.894666,8808.450710,-1915.238745
587.900898,5847.626942,9474.636058,-2298.286494
587.901218,3552.988522,8956.491898,383.047749
587.901539,4145.153275,6661.853478,1532.190996
587.901860,6883.915261,6439.791695,0.000000
587.902180,6883.915261,7254.018232,-1302.362347
587.902501,4811.338623,8290.306550,-1915.238745
587.902822,3997.112087,8734.430116,-1378.971896
587.903142,5181.441594,9400.615463,919.314598
587.903463,6439.791695,8142.265362,1225.752797
587.903783,5625.565159,6069.688724,153.219100
587.904104,5477.523971,6513.812290,-1762.019645
587.904425,4811.338623,7920.203579,-1302.362347
587.904745,1850.514855,6883.915261,-1225.752797
587.905066,4293.194464,7105.977043,-1225.752797
587.905387,6735.874072,8660.409521,0.000000
587.905707,4885.359217,9992.780217,-459.657299
587.906028,4811.338623,9622.677246,-995.924147
587.906349,4145.153275,8290.306550,-1378.971896
587.906669,4959.379811,8512.368333,459.657299
587.906990,4589.276840,5773.606348,1455.581446
587.907310,4071.132681,5921.647536,0.000000
587.907631,4589.276840,9400.615463,-383.047749
587.907952,5181.441594,10955.047942,153.219100
587.908272,4441.235652,9326.594869,842.705048
587.908593,6143.709319,7105.977043,459.657299
587.908914,5995.668130,6291.750507,153.219100
587.909234,3552.988522,5699.585753,-536.266849
587.909555,3478.967927,5477.523971,0.000000
587.909876,6661.853478,8660.409521,1608.800546
587.910196,7994.224174,10066.800811,2068.457845
587.910517,6291.750507,9474.636058,-995.924147
587.910838,4219.173869,7846.182985,-4596.572988
587.911158,4663.297435,9770.718434,-2757.943793
587.911479,5181.441594,9548.656652,2911.162892
587.911799,4293.194464,7846.182985,2987.772442
587.912120,7550.100608,8142.265362,0.000000
587.912441,5181.441594,8734.430116,-1762.019645
587.912761,2146.597232,9326.594869,-1915.238745
587.913082,2960.823768,8882.471304,842.705048
587.913403,5181.441594,7920.203579,3064.381992
587.913723,5847.626942,6587.832884,2374.896044
587.914044,4219.173869,6069.688724,919.314598
587.914365,2960.823768,7994.224174,-1302.362347
587.914685,3478.967927,10658.965565,-459.657299
587.915006,3108.864956,9104.533087,383.047749
587.915326,6439.791695,7846.182985,-459.657299
587.915647,8290.306550,7994.224174,0.000000
587.915968,5107.421000,9400.615463,76.609550
587.916288,4441.235652,9918.759623,0.000000
587.916609,4145.153275,9474.636058,-612.876398
587.916930,6069.688724,7772.162391,229.828649
587.917250,6069.688724,4737.318029,76.609550
587.917571,5773.606348,2738.761985,1455.581446
587.917892,5255.462188,6217.729913,919.314598
587.918212,5699.585753,9992.780217,689.485948
587.918533,3182.885551,8660.409521,-689.485948
587.918854,7105.977043,6513.812290,-1991.848295
587.919174,7994.224174,5181.441594,-1532.190996
587.919495,5773.606348,6365.771101,229.828649
587.919815,4441.235652,6661.853478,842.705048
587.920136,5255.462188,8438.347739,0.000000
587.920457,5107.421000,9622.677246,-1608.800546
587.920777,5255.462188,9030.512492,-2068.457845
587.921098,5995.668130,8438.347739,-2681.334243
587.921419,5255.462188,10140.821405,-1455.581446
587.921739,1554.432478,9844.739029,919.314598
587.922060,1110.308913,7624.121203,842.705048
587.922381,3849.070898,7031.956449,1225.752797
587.922701,3552.988522,7105.977043,1608.800546
587.923022,2590.720797,8808.450710,-153.219100
587.923342,3775.050304,10955.047942,-689.485948
587.923663,3775.050304,11547.212695,-1072.533697
587.923984,4737.318029,9474.636058,0.000000
587.924304,7031.956449,6587.832884,1225.752797
587.924625,6587.832884,7328.038826,1072.533697
587.924946,4589.276840,8586.388927,536.266849
587.925266,3330.926739,9104.533087,-1072.533697
587.925587,5995.668130,9104.533087,-2451.505594
587.925908,6735.874072,8734.430116,-1302.362347
587.926228,7476.080014,9474.636058,766.095498
587.926549,6217.729913,7994.224174,459.657299
587.926869,6217.729913,8586.388927,-1225.752797
587.927190,5921.647536,7846.182985,0.000000
587.927511,3997.112087,5625.565159,-1302.362347
587.927831,5033.400406,4367.215058,383.047749
587.928152,6661.853478,7994.224174,2451.505594
587.928473,6587.832884,10362.883188,1455.581446
587.928793,4293.194464,8660.409521,-995.924147
587.929114,6957.935855,6883.915261,-2987.772442
587.929435,5847.626942,6513.812290,-2604.724693
587.929755,3775.050304,5551.544565,0.000000
587.930076,4071.132681,5625.565159,0.000000
587.930397,6809.894666,8068.244768,0.000000
587.930717,5995.668130,9770.718434,1072.533697
587.931038,5181.441594,9104.533087,689.485948
587.931358,4959.379811,7624.121203,-1915.238745
587.931679,3997.112087,7476.080014,-2374.896044
587.932000,3627.009116,7254.018232,919.314598
587.932320,5033.400406,7031.956449,459.657299
587.932641,4219.173869,7402.059420,536.266849
587.932962,4663.297435,7698.141797,306.438199
587.933282,3034.844362,8808.450710,0.000000
587.933603,4589.276840,9400.615463,-842.705048
587.933924,4663.297435,8882.471304,-383.047749
587.934244,4737.318029,7254.018232,-383.047749
587.934565,5773.606348,5329.482782,229.828649
587.934885,6143.709319,6809.894666,1072.533697
587.935206,3552.988522,8216.285956,612.876398
587.935527,4885.359217,9622.677246,-995.924147
587.935847,5551.544565,9548.656652,-1838.629195
587.936168,6365.771101,8586.388927,-995.924147
587.936489,6735.874072,8290.306550,1378.971896
587.936809,6587.832884,8142.265362,1608.800546
587.937130,5773.606348,8142.265362,-842.705048
587.937451,6217.729913,9474.636058,-689.485948
587.937771,4515.256246,8512.368333,-995.924147
587.938092,4737.318029,6365.771101,229.828649
587.938413,5699.585753,6069.688724,2298.286494
587.938733,5181.441594,9104.533087,1991.848295
587.939054,3552.988522,9770.718434,383.047749
587.939374,5699.585753,7624.121203,-1991.848295
587.939695,6883.915261,7846.182985,-1532.190996
587.940016,5329.482782,8290.306550,229.828649
587.940336,4663.297435,7031.956449,1378.971896
587.940657,4737.318029,7402.059420,995.924147
587.940978,5847.626942,9770.718434,536.266849
587.941298,5033.400406,10140.821405,459.657299
587.941619,4293.194464,8142.265362,-842.705048
587.941940,5329.482782,8364.327145,-1455.581446
587.942260,3108.864956,8734.430116,995.924147
587.942581,2516.700203,5699.585753,689.485948
587.942901,5551.544565,5995.668130,536.266849
587.943222,3775.050304,7772.162391,306.438199
587.943543,2072.576638,7624.121203,383.047749
587.943863,4959.379811,8438.347739,766.095498
587.944184,5181.441594,8290.306550,-306.438199
587.944505,4959.379811,9474.636058,-459.657299
587.944825,6661.853478,7105.977043,-153.219100
587.945146,5551.544565,5551.544565,-1608.800546
587.945467,7328.038826,6661.853478,-459.657299
587.945787,5921.647536,7105.977043,383.047749
587.946108,5181.441594,7031.956449,-1991.848295
587.946428,6809.894666,6809.894666,-2528.115143
587.946749,7402.059420,7920.203579,-766.095498
587.947070,6957.935855,8364.327145,153.219100
587.947390,6809.894666,6735.874072,0.000000
587.947711,6365.771101,7031.956449,-1225.752797
587.948032,5995.668130,7105.977043,-1532.190996
587.948352,6069.688724,6365.771101,0.000000
587.948673,6439.791695,5773.606348,842.705048
587.948994,4959.379811,7920.203579,1455.581446
587.949314,5181.441594,10362.883188,1838.629195
587.949635,2738.761985,10214.842000,153.219100
587.949956,5255.462188,8290.306550,-1455.581446
587.950276,6143.709319,8216.285956,-612.876398
587.950597,3404.947333,8290.306550,76.609550
587.950917,2960.823768,6883.915261,0.000000
587.951238,4145.153275,8882.471304,689.485948
587.951559,4367.215058,11103.089130,0.000000
587.951879,3997.112087,10807.006753,-306.438199
587.952200,3849.070898,9326.594869,-1149.143247
587.952521,3108.864956,9622.677246,-1455.581446
587.952841,3182.885551,10288.862594,1991.848295
587.953162,3552.988522,8586.388927,2298.286494
587.953483,4737.318029,7476.080014,459.657299
587.953803,4959.379811,8290.306550,536.266849
587.954124,2368.659014,7994.224174,229.828649
587.954444,3182.885551,9178.553681,-306.438199
587.954765,5477.523971,9030.512492,76.609550
587.955086,5995.668130,9622.677246,0.000000
587.955406,7624.121203,8882.471304,-842.705048
587.955727,6587.832884,7105.977043,-995.924147
587.956048,5107.421000,7328.038826,-1455.581446
587.956368,5477.523971,7328.038826,-995.924147
587.956689,5847.626942,7624.121203,-536.266849
587.957010,6143.709319,7402.059420,-1149.143247
587.957330,8586.388927,9178.553681,-306.438199
587.957651,4737.318029,8512.368333,76.609550
587.957971,3627.009116,8142.265362,-383.047749
587.958292,4293.194464,6809.894666,766.095498
587.958613,4441.235652,5625.565159,1608.800546
587.958933,6735.874072,7105.977043,1608.800546
587.959254,4737.318029,6439.791695,766.095498
587.959575,2664.741391,6883.915261,-842.705048
587.959895,5551.544565,8438.347739,842.705048
587.960216,5107.421000,7550.100608,2068.457845
587.960537,5847.626942,6883.915261,-536.266849
587.960857,8512.368333,6513.812290,-1608.800546
587.961178,5181.441594,5921.647536,-1838.629195
587.961499,4367.215058,5921.647536,-383.047749
587.961819,6883.915261,6957.935855,1532.190996
587.962140,6587.832884,7772.162391,229.828649
587.962460,7476.080014,8512.368333,-995.924147
587.962781,7254.018232,7994.224174,-919.314598
587.963102,5847.626942,7772.162391,-1838.629195
587.963422,4589.276840,7402.059420,536.266849
587.963743,4589.276840,6217.729913,919.314598
587.964064,6143.709319,7105.977043,-612.876398
587.964384,4663.297435,8660.409521,-76.609550
587.964705,3034.844362,9400.615463,-689.485948
587.965026,2368.659014,9326.594869,-919.314598
587.965346,3034.844362,9400.615463,-459.657299
587.965667,5625.565159,10214.842000,842.705048
587.965987,4737.318029,8734.430116,689.485948
587.966308,3256.906145,7920.203579,-919.314598
587.966629,3330.926739,8808.450710,-536.266849
587.966949,2220.617826,9474.636058,536.266849
587.967270,2812.782580,10510.924376,766.095498
587.967591,4293.194464,10214.842000,-306.438199
587.967911,5329.482782,11177.109724,-1455.581446
587.968232,2886.803174,10510.924376,76.609550
587.968553,1998.556043,9400.615463,612.876398
587.968873,3330.926739,8068.244768,1455.581446
587.969194,4367.215058,7698.141797,1532.190996
587.969515,4441.235652,8586.388927,-536.266849
587.969835,5329.482782,9844.739029,-1149.143247
587.970156,4145.153275,8660.409521,-1302.362347
587.970476,4885.359217,8290.306550,1378.971896
587.970797,7402.059420,7920.203579,1762.019645
587.971118,4959.379811,6439.791695,-383.047749
587.971438,6069.688724,5773.606348,-1838.629195
587.971759,5995.668130,8512.368333,-1455.581446
587.972080,4441.235652,8660.409521,-306.438199
587.972400,6365.771101,7402.059420,-612.876398
587.972721,9992.780217,5625.565159,-766.095498
587.973042,7105.977043,7772.162391,-1608.800546
587.973362,4515.256246,7402.059420,-536.266849
587.973683,3923.091493,6661.853478,0.000000
587.974003,5329.482782,6957.935855,0.000000
587.974324,5403.503377,7031.956449,689.485948
587.974645,5625.565159,6957.935855,536.266849
587.974965,6883.915261,7105.977043,-2145.067394
587.975286,4293.194464,7105.977043,-1302.362347
587.975607,4071.132681,6217.729913,1608.800546
587.975927,7105.977043,4219.173869,2911.162892
587.976248,6365.771101,4293.194464,1685.410096
587.976569,6513.812290,6957.935855,-1149.143247
587.976889,6143.709319,10732.986159,-2068.457845
587.977210,6143.709319,9548.656652,-2528.115143
587.977530,5847.626942,7328.038826,-1378.971896
587.977851,8808.450710,5699.585753,-229.828649
587.978172,7254.018232,5625.565159,0.000000
587.978492,5403.503377,7328.038826,0.000000
587.978813,2886.803174,7105.977043,-1149.143247
587.979134,7698.141797,7994.224174,-842.705048
587.979454,7846.182985,6439.791695,1762.019645
587.979775,8364.327145,5403.503377,1302.362347
587.980096,8808.450710,6883.915261,-153.219100
587.980416,8734.430116,7624.121203,-766.095498
587.980737,6439.791695,6439.791695,-766.095498
587.981058,7846.182985,2368.659014,76.609550
587.981378,12287.418637,2368.659014,689.485948
587.981699,13915.871710,5551.544565,919.314598
587.982019,10214.842000,6661.853478,76.609550
587.982340,10436.903782,6291.750507,-2068.457845
587.982661,10584.944971,3923.091493,-1838.629195
587.982981,9548.656652,1628.453072,383.047749
587.983302,11695.253884,2590.720797,919.314598
587.983623,11547.212695,5625.565159,-1608.800546
587.983943,7846.182985,7402.059420,-4213.525239
587.984264,7698.141797,4885.359217,-3294.210641
587.984585,7402.059420,2886.803174,-1149.143247
587.984905,10658.965565,6069.688724,1915.238745
587.985226,9030.512492,9400.615463,2987.772442
587.985546,5329.482782,9622.677246,-2911.162892
587.985867,6143.709319,8512.368333,-4443.353888
587.986188,7624.121203,6957.935855,842.705048
587.986508,4959.379811,3849.070898,3140.991542
587.986829,5995.668130,3552.988522,3830.477490
587.987150,6439.791695,6365.771101,1225.752797
587.987470,5329.482782,9030.512492,-2145.067394
587.987791,7031.956449,9400.615463,-1685.410096
587.988112,9696.697840,5773.606348,0.000000
587.988432,10362.883188,4071.132681,1225.752797
587.988753,8142.265362,4145.153275,1915.238745
587.989074,9548.656652,5255.462188,919.314598
587.989394,10584.944971,5995.668130,-612.876398
587.989715,11103.089130,4293.194464,-1762.019645
587.990035,13767.830521,4589.276840,-1532.190996
587.990356,13101.645173,4515.256246,-2757.943793
587.990677,11695.253884,6143.709319,-1762.019645
587.990997,13619.789333,7179.997637,0.000000
587.991318,13397.727550,5255.462188,0.000000
587.991639,12805.562797,2886.803174,-1302.362347
587.991959,9696.697840,2146.597232,-995.924147
587.992280,7402.059420,3775.050304,-766.095498
587.992601,9622.677246,7179.997637,0.000000
587.992921,9474.636058,8808.450710,612.876398
587.993242,9474.636058,7105.977043,689.485948
587.993563,8660.409521,4737.318029,919.314598
587.993883,5847.626942,3775.050304,459.657299
587.994204,3552.988522,4663.297435,229.828649
587.994525,4367.215058,6957.935855,0.000000
587.994845,7179.997637,7624.121203,-383.047749
587.995166,9992.780217,8216.285956,919.314598
587.995487,10584.944971,7550.100608,2068.457845
587.995807,6217.729913,6365.771101,1225.752797
587.996128,5551.544565,6143.709319,76.609550
587.996449,6957.935855,5921.647536,1915.238745
587.996769,9400.615463,4515.256246,1991.848295
587.997090,11177.109724,1924.535449,919.314598
587.997411,11843.295072,3552.988522,-536.266849
587.997731,9474.636058,5921.647536,-2681.334243
587.998052,8586.388927,6069.688724,-1991.848295
587.998373,11695.253884,5255.462188,-229.828649
587.998693,13619.789333,4219.173869,1149.143247
587.999014,10881.027347,2812.782580,1685.410096
587.999335,9770.718434,3330.926739,306.438199
587.999655,9252.574275,5625.565159,-2451.505594
587.999976,7920.203579,6143.709319,-3370.820191
588.000297,10807.006753,5033.400406,-2528.115143
588.000617,13323.706956,3701.029710,-1302.362347
588.000938,11103.089130,4663.297435,459.657299
588.001259,7994.224174,6587.832884,1838.629195
588.001579,6217.729913,6661.853478,536.266849
588.001900,6217.729913,4959.379811,-1149.143247
588.002221,8882.471304,4367.215058,689.485948
588.002541,10362.883188,4737.318029,2451.505594
588.002862,9326.594869,6883.915261,306.438199
588.003183,7328.038826,9696.697840,-2145.067394
588.003503,7105.977043,9474.636058,-2068.457845
588.003824,6513.812290,6661.853478,-2374.896044
588.004145,9918.759623,5181.441594,536.266849
588.004465,9844.739029,6587.832884,3217.601092
588.004786,7846.182985,8438.347739,2681.334243
588.005107,6957.935855,7994.224174,1149.143247
588.005427,8142.265362,5847.626942,306.438199
588.005748,9622.677246,4367.215058,842.705048
588.006069,11177.109724,2960.823768,2221.676944
588.006389,10807.006753,3108.864956,842.705048
588.006710,11695.253884,3923.091493,-1149.143247
588.007031,11399.171507,4515.256246,-1072.533697
588.007351,11547.212695,2368.659014,-1378.971896
588.007672,13175.665768,2516.700203,-995.924147
588.007993,15248.242405,5995.668130,536.266849
588.008313,12361.439231,7920.203579,76.609550
588.008634,11695.253884,7105.977043,-1608.800546
588.008955,11547.212695,4441.235652,-3753.867940
588.009275,11399.171507,2960.823768,-2451.505594
588.009596,9030.512492,3701.029710,-1378.971896
588.009917,9622.677246,6809.894666,-919.314598
588.010237,5847.626942,7031.956449,-1762.019645
588.010558,7254.018232,6809.894666,-383.047749
588.010879,8586.388927,6439.791695,1991.848295
588.011199,6809.894666,6365.771101,3140.991542
588.011520,5921.647536,6513.812290,3294.210641
588.011841,5477.523971,5847.626942,1762.019645
588.012161,6143.709319,4663.297435,0.000000
588.012482,7402.059420,3849.070898,1685.410096
588.012803,7179.997637,2960.823768,2068.457845
588.013123,7624.121203,4737.318029,-1685.410096
588.013444,8586.388927,6735.874072,-1685.410096
588.013765,9844.739029,7254.018232,-1455.581446
588.014085,13471.748144,6365.771101,76.609550
588.014406,13619.789333,3923.091493,1685.410096
588.014727,12583.501014,3478.967927,306.438199
588.015047,11843.295072,4219.173869,536.266849
588.015368,10362.883188,3997.112087,-995.924147
588.015689,12139.377449,3182.885551,-1991.848295
588.016010,13545.768739,3404.947333,-919.314598
588.016330,13471.748144,5181.441594,-1072.533697
588.016651,11177.109724,5995.668130,-1608.800546
588.016972,9918.759623,5181.441594,-1225.752797
588.017292,10436.903782,3849.070898,-1149.143247
588.017613,10436.903782,3775.050304,1378.971896
588.017934,8660.409521,3997.112087,2757.943793
588.018254,7328.038826,6291.750507,2451.505594
588.018575,6809.894666,7105.977043,0.000000
588.018896,6587.832884,7105.977043,-995.924147
588.019216,6809.894666,6217.729913,-995.924147
588.019537,8808.450710,5847.626942,-612.876398
588.019858,8216.285956,7920.203579,0.000000
588.020178,5181.441594,7920.203579,-536.266849
588.020499,5773.606348,7105.977043,229.828649
588.020820,7254.018232,6587.832884,1915.238745
588.021140,9178.553681,6957.935855,2451.505594
588.021461,8882.471304,8586.388927,1991.848295
588.021782,7105.977043,7105.977043,-383.047749
588.022102,7772.162391,4071.132681,-766.095498
588.022423,10584.944971,3034.844362,1532.190996
588.022744,11029.068536,2886.803174,1072.533697
588.023064,10732.986159,4367.215058,306.438199
588.023385,10881.027347,4589.276840,-1072.533697
588.023706,11769.274478,4145.153275,-1302.362347
588.024026,13101.645173,3256.906145,842.705048
588.024347,13545.768739,2886.803174,612.876398
588.024668,13027.624579,4737.318029,-1838.629195
588.024988,11843.295072,4811.338623,-2528.115143
588.025309,11695.253884,4589.276840,-2221.676944
588.025630,12509.480420,3552.988522,-2068.457845
588.025950,12435.459826,3923.091493,-2145.067394
588.026271,10732.986159,6587.832884,-1915.238745
588.026592,8808.450710,8142.265362,-1302.362347
588.026912,7624.121203,7105.977043,-842.705048
588.027233,7772.162391,4145.153275,229.828649
588.027554,8142.265362,3775.050304,2681.334243
588.027874,6365.771101,5329.482782,2757.943793
588.028195,3775.050304,7550.100608,689.485948
588.028516,4441.235652,7031.956449,-153.219100
588.028836,6217.729913,5699.585753,919.314598
588.029157,7698.141797,5033.400406,2298.286494
588.029478,7105.977043,6217.729913,2298.286494
588.029798,6439.791695,7994.224174,-153.219100
588.030119,7179.997637,9030.512492,-1608.800546
588.030440,9326.594869,7105.977043,-459.657299
588.030760,10510.924376,3701.029710,1225.752797
588.031081,11695.253884,2812.782580,2298.286494
588.031402,11029.068536,5181.441594,1072.533697
588.031722,10066.800811,5921.647536,-2374.896044
588.032043,11251.130318,4367.215058,-3370.820191
588.032364,13619.789333,2590.720797,-1685.410096
588.032684,13989.892304,1776.494261,995.924147
588.033005,13027.624579,2220.617826,1455.581446
588.033326,12287.418637,3478.967927,-1072.533697
588.033646,11473.192101,5477.523971,-3370.820191
588.033967,11621.233289,6809.894666,-2528.115143
588.034288,11695.253884,6957.935855,-766.095498
588.034608,10807.006753,6587.832884,0.000000
588.034929,9178.553681,6661.853478,76.609550
588.035250,6661.853478,6883.915261,-1072.533697
588.035570,6143.709319,5477.523971,-1302.362347
588.035891,6143.709319,4811.338623,-153.219100
588.036212,6069.688724,6587.832884,689.485948
588.036532,6291.750507,8216.285956,1532.190996
588.036853,6217.729913,9104.533087,2221.676944
588.037174,6291.750507,8438.347739,2068.457845
588.037494,5625.565159,6365.771101,1991.848295
588.037815,5403.503377,3997.112087,1915.238745
588.038136,7105.977043,3330.926739,1378.971896
588.038456,7772.162391,4071.132681,995.924147
588.038777,9104.533087,5921.647536,153.219100
588.039098,10807.006753,6883.915261,-842.705048
588.039418,12065.356855,6513.812290,-1455.581446
588.039739,12435.459826,5107.421000,-919.314598
588.040060,13175.665768,3330.926739,0.000000
588.040380,13323.706956,1850.514855,-766.095498
588.040701,12879.583391,1480.411884,-1838.629195
588.041022,13249.686362,2516.700203,-2068.457845
588.041342,13693.809927,4737.318029,-1302.362347
588.041663,13175.665768,6143.709319,-1225.752797
588.041984,12287.418637,6217.729913,-2374.896044
588.042304,11473.192101,5403.503377,-2221.676944
588.042625,9474.636058,4737.318029,-1072.533697
588.042946,7624.121203,4663.297435,383.047749
588.043266,7105.977043,4071.132681,1072.533697
588.043587,6735.874072,4737.318029,0.000000
588.043908,6735.874072,6587.832884,0.000000
588.044228,6069.688724,8734.430116,0.000000
588.044549,5921.647536,9474.636058,306.438199
588.044870,5403.503377,9474.636058,689.485948
588.045190,5847.626942,7550.100608,1685.410096
588.045511,4663.297435,6217.729913,2145.067394
588.045832,4663.297435,5403.503377,1378.971896
588.046152,5625.565159,5551.544565,919.314598
588.046473,6809.894666,5551.544565,229.828649
588.046794,8956.491898,5477.523971,459.657299
588.047114,10658.965565,6143.709319,-153.219100
588.047435,11843.295072,6661.853478,-919.314598
588.047756,11991.336260,6439.791695,-995.924147
588.048076,12287.418637,5107.421000,0.000000
588.048397,12657.521608,3552.988522,612.876398
588.048718,12509.480420,3552.988522,153.219100
588.049038,11769.274478,4663.297435,-1608.800546
588.049359,10955.047942,6439.791695,-3140.991542
588.049680,10584.944971,6587.832884,-3524.039291
588.050000,10510.924376,5625.565159,-2298.286494
588.050321,10584.944971,4293.194464,-842.705048
588.050642,9548.656652,4737.318029,689.485948
588.050962,7624.121203,5625.565159,1608.800546
588.051283,6439.791695,5921.647536,1149.143247
588.051604,6883.915261,5773.606348,1225.752797
588.051924,7328.038826,5625.565159,919.314598
588.052245,7105.977043,5921.647536,689.485948
588.052566,6883.915261,7254.018232,-689.485948
588.052886,6883.915261,7772.162391,-612.876398
588.053207,6957.935855,7550.100608,76.609550
588.053528,7254.018232,6735.874072,76.609550
588.053848,7920.203579,5329.482782,229.828649
588.054169,8290.306550,5847.626942,919.314598
588.054490,7476.080014,5403.503377,1762.019645
588.054810,8586.388927,4367.215058,1378.971896
588.055131,10214.842000,2960.823768,766.095498
588.055452,10584.944971,3108.864956,0.000000
588.055772,10362.883188,3997.112087,-1225.752797
588.056093,10955.047942,4885.359217,-2451.505594
588.056414,11917.315666,5625.565159,-2451.505594
588.056734,12361.439231,5625.565159,-1378.971896
588.057055,12361.439231,5625.565159,-306.438199
588.057376,11917.315666,5625.565159,-229.828649
588.057697,10658.965565,5773.606348,-766.095498
588.058017,9400.615463,5255.462188,0.000000
588.058338,9696.697840,4367.215058,383.047749
588.058659,9844.739029,4219.173869,0.000000
588.058979,8660.409521,4589.276840,-689.485948
588.059300,7772.162391,4959.379811,-612.876398
588.059621,7920.203579,4885.359217,-306.438199
588.059941,7624.121203,5255.462188,306.438199
588.060262,8142.265362,6291.750507,306.438199
588.060583,8512.368333,7254.018232,383.047749
588.060903,8068.244768,8216.285956,229.828649
588.061224,8068.244768,8364.327145,919.314598
588.061545,8586.388927,7328.038826,1455.581446
588.061865,9178.553681,6365.771101,1991.848295
588.062186,8290.306550,5847.626942,1302.362347
588.062507,7624.121203,5329.482782,842.705048
588.062827,8068.244768,4441.235652,459.657299
588.063148,8808.450710,3552.988522,306.438199
588.063469,9918.759623,4145.153275,306.438199
588.063789,9844.739029,5625.565159,-153.219100
588.064110,10214.842000,7179.997637,-689.485948
588.064431,9992.780217,8512.368333,-689.485948
588.064751,9104.533087,8438.347739,-306.438199
588.065072,8364.327145,7402.059420,306.438199
588.065393,7550.100608,6661.853478,842.705048
588.065713,5847.626942,6809.894666,536.266849
588.066034,4959.379811,6735.874072,-153.219100
588.066355,5329.482782,6587.832884,-612.876398
588.066675,5403.503377,6143.709319,-612.876398
588.066996,4737.318029,6661.853478,459.657299
588.067317,4811.338623,8956.491898,1302.362347
588.067637,4959.379811,10214.842000,2298.286494
588.067958,4737.318029,10658.965565,2528.115143
588.068279,5329.482782,10362.883188,3217.601092
588.068599,5403.503377,9252.574275,3447.429741
588.068920,4811.338623,8882.471304,3294.210641
588.069241,4441.235652,8734.430116,3907.087040
588.069561,4589.276840,9030.512492,3447.429741
588.069882,4737.318029,9474.636058,3753.867940
588.070203,5477.523971,9400.615463,3753.867940
588.070523,5773.606348,8882.471304,4749.792088
588.070844,5625.565159,8290.306550,4903.011187
588.071165,5773.606348,7920.203579,5745.716235
588.071485,6217.729913,7920.203579,5056.230287
588.071806,7031.956449,8216.285956,5056.230287
588.072127,7105.977043,8586.388927,5209.449386
588.072447,7105.977043,8586.388927,5439.278036
588.072768,7254.018232,9030.512492,5669.106685
588.073089,7031.956449,8956.491898,6281.983084
588.073409,6957.935855,7698.141797,6818.249932
588.073730,6809.894666,7105.977043,6511.811733
588.074051,6365.771101,6143.709319,6281.983084
588.074371,5773.606348,5181.441594,6205.373534
588.074692,5921.647536,4811.338623,6511.811733
588.075013,6439.791695,5921.647536,6588.421283
588.075333,6513.812290,7402.059420,6665.030833
588.075654,6217.729913,8734.430116,6511.811733
588.075975,5847.626942,7772.162391,6588.421283
588.076295,5477.523971,7254.018232,6741.640382
588.076616,4959.379811,6217.729913,8120.612279
588.076937,4441.235652,6365.771101,7737.564530
588.077257,3849.070898,6957.935855,7048.078582
588.077578,3034.844362,5921.647536,6358.592633
588.077899,2590.720797,6143.709319,6128.763984
588.078219,2664.741391,6365.771101,6281.983084
588.078540,2516.700203,6365.771101,6818.249932
588.078861,2738.761985,7105.977043,6665.030833
588.079181,2738.761985,7624.121203,7431.126331
588.079502,2516.700203,7920.203579,6894.859482
588.079823,2886.803174,7698.141797,6971.469032
588.080143,3627.009116,7550.100608,7048.078582
588.080464,3404.947333,7698.141797,5592.497135
588.080785,3552.988522,7031.956449,5132.839837
588.081105,3478.967927,5921.647536,4519.963438
588.081426,3627.009116,5255.462188,4596.572988
588.081747,3701.029710,5181.441594,4826.401637
588.082067,3701.029710,5181.441594,3907.087040
588.082388,4441.235652,6143.709319,2834.553343
588.082709,5329.482782,7550.100608,2681.334243
588.083029,6069.688724,9252.574275,2604.724693
588.083350,6809.894666,10288.862594,2528.115143
588.083671,7105.977043,10881.027347,3064.381992
588.083991,7179.997637,10732.986159,3217.601092
588.084312,7031.956449,10955.047942,4290.134789
588.084633,6587.832884,11029.068536,6205.373534
588.084953,5181.441594,10436.903782,5822.325785
588.085274,4737.318029,9178.553681,5898.935335
588.085595,3775.050304,7772.162391,6281.983084
588.085915,2664.741391,5329.482782,5362.668486
588.086236,2442.679609,2738.761985,3677.258390
588.086557,3478.967927,2072.576638,2298.286494
588.086877,4959.379811,4071.132681,1762.019645
588.087198,6587.832884,7920.203579,536.266849
588.087519,8586.388927,12287.418637,-842.705048
588.087839,10362.883188,16136.489536,-1532.190996
588.088160,10807.006753,17616.901420,-306.438199
588.088481,10436.903782,16358.551318,2681.334243
588.088801,9104.533087,13175.665768,4366.744339
588.089122,6957.935855,8808.450710,5209.449386
588.089443,6143.709319,7031.956449,5515.887586
588.089763,3404.947333,5995.668130,5745.716235
588.090084,888.247130,5403.503377,4826.401637
588.090405,1110.308913,4367.215058,3983.696590
588.090725,3330.926739,4293.194464,3600.648841
588.091050,3256.906145,4219.173869,3370.820191
588.091371,4885.359217,6291.750507,2757.943793
588.091691,7328.038826,9992.780217,2757.943793
588.092012,7254.018232,13545.768739,2221.676944
588.092332,7105.977043,15100.201217,1838.629195
588.092653,9030.512492,15692.365970,2298.286494
588.092974,9326.594869,14878.139434,2528.115143
588.093294,6069.688724,11325.150913,4060.306139
588.093615,4515.256246,5625.565159,5132.839837
588.093936,5699.585753,3627.009116,6971.469032
588.094256,1554.432478,4589.276840,7660.954980
588.094577,1702.473667,6957.935855,6588.421283
588.094898,4367.215058,7846.182985,4596.572988
588.095218,5773.606348,7772.162391,5439.278036
588.095539,3849.070898,5921.647536,8120.612279
588.095859,5403.503377,5995.668130,9806.022374
588.096180,6587.832884,8586.388927,8580.269578
588.096501,3108.864956,11103.089130,6665.030833
588.096821,2516.700203,10732.986159,4213.525239
588.097142,5847.626942,9622.677246,2911.162892
588.097463,6661.853478,7550.100608,4826.401637
588.097783,4737.318029,6513.812290,8197.221829
588.098104,6217.729913,8216.285956,9346.365076
588.098425,3034.844362,9252.574275,6205.373534
588.098745,3034.844362,8364.327145,5439.278036
588.099066,3182.885551,5477.523971,6588.421283
588.099386,5181.441594,2590.720797,6894.859482
588.099707,5403.503377,2146.597232,7431.126331
588.100028,6365.771101,5329.482782,7660.954980
588.100348,6143.709319,9252.574275,6435.202183
588.100669,4663.297435,10510.924376,5439.278036
588.100990,3108.864956,7476.080014,5822.325785
588.101310,3701.029710,4737.318029,5898.935335
588.101631,2812.782580,3849.070898,8580.269578
588.101952,2516.700203,5403.503377,10342.289223
588.102272,3627.009116,8882.471304,9193.145976
588.102593,2886.803174,11695.253884,5745.716235
588.102914,2812.782580,11473.192101,4290.134789
588.103234,3775.050304,9326.594869,4366.744339
588.103555,3849.070898,6365.771101,4826.401637
588.103875,2516.700203,2812.782580,5669.106685
588.104196,4515.256246,1850.514855,6818.249932
588.104517,5329.482782,4441.235652,7660.954980
588.104837,5107.421000,7328.038826,6894.859482
588.105158,4737.318029,7994.224174,4596.572988
588.105479,6809.894666,9696.697840,3217.601092
588.105799,5329.482782,10658.965565,4213.525239
588.106120,5995.668130,10807.006753,6435.202183
588.106441,8364.327145,8956.491898,6358.592633
588.106761,6883.915261,7772.162391,3294.210641
588.107082,4441.235652,6513.812290,536.266849
588.107402,4515.256246,6143.709319,1302.362347
588.107723,5847.626942,7254.018232,3753.867940
588.108044,5699.585753,9474.636058,5362.668486
588.108364,6217.729913,11473.192101,5286.058936
588.108685,7031.956449,11843.295072,4443.353888
588.109006,5625.565159,10881.027347,4979.620737
588.109326,5255.462188,9548.656652,5898.935335
588.109647,5477.523971,8808.450710,5669.106685
588.109968,4515.256246,9252.574275,4903.011187
588.110288,3701.029710,9918.759623,4826.401637
588.110609,5033.400406,10362.883188,5286.058936
588.110929,6069.688724,10584.944971,5132.839837
588.111250,4959.379811,9400.615463,3830.477490
588.111571,4515.256246,7254.018232,3753.867940
588.111891,5255.462188,6217.729913,4903.011187
588.112212,6217.729913,7031.956449,4596.572988
588.112533,5995.668130,8068.244768,2911.162892
588.112853,5773.606348,9030.512492,1455.581446
588.113174,8142.265362,10066.800811,2298.286494
588.113495,9030.512492,10140.821405,4136.915689
588.113815,7920.203579,9474.636058,3983.696590
588.114136,6809.894666,8438.347739,1915.238745
588.114457,5625.565159,7624.121203,1838.629195
588.114777,5033.400406,8586.388927,4213.525239
588.115098,5255.462188,8882.471304,6588.421283
588.115418,5181.441594,8142.265362,5132.839837
588.115739,3775.050304,6587.832884,3907.087040
588.116060,2812.782580,6587.832884,5209.449386
588.116380,1554.432478,7254.018232,6435.202183
588.116701,740.205942,6439.791695,5822.325785
588.117022,1702.473667,6069.688724,4290.134789
588.117342,4367.215058,8364.327145,3983.696590
588.117663,4959.379811,12361.439231,5515.887586
588.117984,5181.441594,14656.077652,6511.811733
588.118304,3404.947333,13915.871710,5439.278036
588.118625,2442.679609,10066.800811,5209.449386
588.118945,3182.885551,5921.647536,6971.469032
588.119266,4071.132681,4071.132681,8273.831378
588.119587,3997.112087,5329.482782,7660.954980
588.119907,3256.906145,6809.894666,4596.572988
588.120228,3775.050304,7254.018232,2451.505594
588.120549,5033.400406,5403.503377,4290.134789
588.120869,7254.018232,4145.153275,8044.002729
588.121190,9622.677246,5921.647536,8503.660028
588.121511,7698.141797,8956.491898,6281.983084
588.121831,4737.318029,8734.430116,3983.696590
588.122152,6217.729913,6365.771101,4060.306139
588.122472,9474.636058,6143.709319,5898.935335
588.122793,7402.059420,6217.729913,5822.325785
588.123114,5033.400406,7105.977043,2298.286494
588.123434,5107.421000,8734.430116,536.266849
588.123755,3701.029710,8142.265362,3524.039291
588.124076,4071.132681,6883.915261,6358.592633
588.124396,5551.544565,7698.141797,6281.983084
588.124717,2442.679609,8438.347739,5132.839837
588.125038,-666.185348,6735.874072,6205.373534
588.125358,2516.700203,6439.791695,6435.202183
588.125679,4145.153275,7105.977043,5669.106685
588.125999,3108.864956,9178.553681,4519.963438
588.126320,3849.070898,10807.006753,4673.182538
588.126641,4959.379811,11991.336260,4596.572988
588.126961,2886.803174,9992.780217,5745.716235
588.127282,3256.906145,9400.615463,5975.544884
588.127603,2738.761985,7179.997637,5669.106685
588.127923,3552.988522,8734.430116,6052.154434
588.128244,4663.297435,11399.171507,6358.592633
588.128565,4811.338623,11769.274478,3064.381992
588.128885,4885.359217,7994.224174,1685.410096
588.129206,5847.626942,6439.791695,4903.011187
588.129527,5995.668130,7476.080014,8427.050478
588.129847,4959.379811,7920.203579,8120.612279
588.130168,5995.668130,7105.977043,3677.258390
588.130488,8068.244768,6735.874072,842.705048
588.130809,7254.018232,7105.977043,4366.744339
588.131130,8734.430116,9548.656652,7431.126331
588.131450,9474.636058,10584.944971,4903.011187
588.131771,7698.141797,8512.368333,1838.629195
588.132092,7254.018232,6735.874072,1685.410096
588.132412,7179.997637,6735.874072,2987.772442
588.132733,4663.297435,6365.771101,4749.792088
588.133054,5477.523971,6661.853478,3830.477490
588.133374,6439.791695,8142.265362,1455.581446
588.133695,4811.338623,9992.780217,1608.800546
588.134015,2072.576638,8660.409521,4060.306139
588.134336,2960.823768,6513.812290,3753.867940
588.134657,4219.173869,7179.997637,3830.477490
588.134977,2738.761985,8660.409521,4903.011187
588.135298,2368.659014,9326.594869,4213.525239
588.135619,5551.544565,10140.821405,3294.210641
588.135939,4219.173869,10881.027347,4903.011187
588.136260,2442.679609,9400.615463,5286.058936
588.136581,4811.338623,7846.182985,4903.011187
588.136901,4441.235652,7031.956449,4519.963438
588.137222,2220.617826,5255.462188,2911.162892
588.137542,4811.338623,4589.276840,1455.581446
588.137863,6513.812290,5477.523971,1685.410096
588.138184,4885.359217,7846.182985,4060.306139
588.138504,8216.285956,10362.883188,4673.182538
588.138825,9326.594869,11325.150913,1991.848295
588.139146,5181.441594,8068.244768,1762.019645
588.139466,5995.668130,4959.379811,5362.668486
588.139787,8586.388927,6291.750507,7124.688131
588.140108,6587.832884,8068.244768,3983.696590
588.140428,5181.441594,10510.924376,-383.047749
588.140749,6735.874072,11769.274478,-2451.505594
588.141070,7179.997637,10362.883188,3447.429741
588.141390,5477.523971,8364.327145,9806.022374
588.141711,4663.297435,6883.915261,8580.269578
588.142031,1554.432478,6217.729913,3600.648841
588.142352,0.000000,7402.059420,3677.258390
588.142673,3552.988522,10955.047942,5362.668486
588.142993,4885.359217,11547.212695,5132.839837
588.143314,4737.318029,11547.212695,5439.278036
588.143635,5403.503377,11917.315666,5515.887586
588.143955,3701.029710,10955.047942,5898.935335
588.144276,3256.906145,9030.512492,6435.202183
588.144597,2812.782580,5921.647536,4826.401637
588.144917,3849.070898,4219.173869,4519.963438
588.145238,6143.709319,6661.853478,7584.345430
588.145558,7328.038826,11769.274478,7890.783629
588.145879,7105.977043,12657.521608,4366.744339
588.146200,4811.338623,8586.388927,2987.772442
588.146520,4589.276840,4737.318029,3983.696590
588.146841,6365.771101,3997.112087,7584.345430
588.147162,5921.647536,4589.276840,8350.440928
588.147482,4441.235652,4441.235652,4060.306139
588.147803,4811.338623,6661.853478,-383.047749
588.148124,6069.688724,9992.780217,1762.019645
588.148444,3775.050304,9326.594869,4903.011187
588.148765,5551.544565,6365.771101,5132.839837
588.149085,7031.956449,7402.059420,4213.525239
588.149406,2886.803174,6513.812290,3677.258390
588.149727,1258.350101,2664.741391,2681.334243
588.150047,4737.318029,3034.844362,2374.896044
588.150368,5625.565159,7105.977043,3600.648841
588.150689,5773.606348,10584.944971,2911.162892
588.151009,7105.977043,11769.274478,612.876398
588.151330,4811.338623,9696.697840,1838.629195
588.151651,4367.215058,7254.018232,6665.030833
588.151971,4663.297435,5699.585753,9039.926876
588.152292,3256.906145,4737.318029,6435.202183
588.152612,1924.535449,4959.379811,4136.915689
588.152933,5181.441594,9918.759623,3753.867940
588.153254,6217.729913,11843.295072,3447.429741
588.153574,3034.844362,7031.956449,2987.772442
588.153895,2812.782580,4663.297435,2757.943793
588.154216,5329.482782,5995.668130,3677.258390
588.154536,2146.597232,5329.482782,2528.115143
588.154857,3108.864956,5773.606348,-842.705048
588.155178,8438.347739,10436.903782,-2145.067394
588.155498,6069.688724,13619.789333,689.485948
588.155819,6809.894666,14434.015869,2681.334243
588.156140,9326.594869,11991.336260,1149.143247
588.156460,5181.441594,9104.533087,0.000000
588.156781,4145.153275,7179.997637,1532.190996
588.157101,5773.606348,6217.729913,2987.772442
588.157422,4219.173869,5181.441594,1378.971896
588.157743,3478.967927,6291.750507,689.485948
588.158063,6439.791695,8512.368333,459.657299
588.158384,7328.038826,11251.130318,229.828649
588.158705,5181.441594,11547.212695,2374.896044
588.159025,4737.318029,9918.759623,1762.019645
588.159346,5847.626942,6439.791695,-306.438199
588.159667,5699.585753,6217.729913,1072.533697
588.159987,5995.668130,7920.203579,2757.943793
588.160308,6143.709319,8512.368333,0.000000
588.160628,6809.894666,9844.739029,-2604.724693
588.160949,4959.379811,11621.233289,-1455.581446
588.161270,4885.359217,9474.636058,76.609550
588.161590,5329.482782,6143.709319,842.705048
588.161911,5329.482782,5773.606348,229.828649
588.162232,4811.338623,7254.018232,-229.828649
588.162552,4589.276840,8216.285956,383.047749
588.162873,3775.050304,7624.121203,76.609550
588.163194,4589.276840,8364.327145,-689.485948
588.163514,5107.421000,8512.368333,0.000000
588.163835,4441.235652,5847.626942,-2068.457845
588.164155,5329.482782,7179.997637,-4136.915689
588.164476,6661.853478,9400.615463,-2374.896044
588.164797,5107.421000,8808.450710,-1378.971896
588.165117,4737.318029,7476.080014,-1838.629195
588.165438,5625.565159,8512.368333,-459.657299
588.165759,6439.791695,10807.006753,2298.286494
588.166079,5699.585753,11769.274478,1685.410096
588.166400,2590.720797,8364.327145,-2451.505594
588.166721,5107.421000,6069.688724,-2374.896044
588.167041,5033.400406,5181.441594,1302.362347
588.167362,5551.544565,8068.244768,2604.724693
588.167683,2368.659014,10214.842000,459.657299
588.168003,2886.803174,11843.295072,-229.828649
588.168324,2516.700203,7994.224174,689.485948
588.168644,3627.009116,4589.276840,2451.505594
588.168965,4737.318029,5329.482782,3217.601092
588.169286,3923.091493,9252.574275,1072.533697
588.169606,3923.091493,12953.603985,-2145.067394
588.169927,4071.132681,12139.377449,-2451.505594
588.170248,6661.853478,10807.006753,153.219100
588.170568,9844.739029,10288.862594,2757.943793
588.170889,6365.771101,9696.697840,2834.553343
588.171210,2590.720797,7846.182985,1455.581446
588.171530,4663.297435,7328.038826,306.438199
588.171851,7031.956449,6809.894666,536.266849
588.172171,6069.688724,5329.482782,2911.162892
588.172492,7994.224174,7402.059420,3830.477490
588.172813,5995.668130,8586.388927,1685.410096
588.173133,3256.906145,7179.997637,306.438199
588.173454,5773.606348,5551.544565,612.876398
588.173775,6883.915261,3997.112087,1302.362347
588.174095,5847.626942,5329.482782,2298.286494
588.174416,5033.400406,7254.018232,1225.752797
588.174737,4145.153275,9548.656652,-4136.915689
588.175057,4515.256246,9548.656652,-5286.058936
588.175378,5699.585753,7179.997637,-153.219100
588.175698,4885.359217,5625.565159,2834.553343
588.176019,5625.565159,7550.100608,1378.971896
588.176340,1406.391290,7105.977043,-995.924147
588.176660,-666.185348,4145.153275,-4903.011187
588.176981,3701.029710,3256.906145,-3064.381992
588.177302,5403.503377,4959.379811,2757.943793
588.177622,4663.297435,7179.997637,2528.115143
588.177943,6365.771101,10510.924376,-1225.752797
588.178264,4145.153275,11843.295072,-2987.772442
588.178584,3182.885551,9474.636058,0.000000
588.178905,6439.791695,5773.606348,3370.820191
588.179225,6217.729913,3256.906145,1225.752797
588.179546,3775.050304,4737.318029,-2451.505594
588.179867,3701.029710,7476.080014,-2374.896044
588.180187,4811.338623,9474.636058,-2298.286494
588.180508,7328.038826,9696.697840,-536.266849
588.180829,8882.471304,10140.821405,229.828649
588.181149,6661.853478,10807.006753,-2451.505594
588.181470,4589.276840,9474.636058,-4213.525239
588.181791,5699.585753,7846.182985,-2451.505594
588.182111,7920.203579,8068.244768,-153.219100
588.182432,7772.162391,8290.306550,919.314598
588.182753,5847.626942,10584.944971,306.438199
588.183073,4515.256246,11695.253884,76.609550
588.183394,4145.153275,11547.212695,-383.047749
588.183714,3701.029710,10436.903782,-919.314598
588.184035,4071.132681,8734.430116,-1072.533697
588.184356,3552.988522,7624.121203,1149.143247
588.184676,4071.132681,10732.986159,2451.505594
588.184997,4885.359217,11843.295072,1072.533697
588.185318,1998.556043,8882.471304,-1762.019645
588.185638,3256.906145,8290.306550,-2987.772442
588.185959,6587.832884,10955.047942,0.000000
588.186280,3478.967927,10658.965565,1455.581446
588.186600,5921.647536,9992.780217,-1838.629195
588.186921,6291.750507,8586.388927,-1915.238745
588.187241,4811.338623,7846.182985,-153.219100
588.187562,4515.256246,6069.688724,1378.971896
588.187883,6069.688724,7105.977043,689.485948
588.188203,4219.173869,7920.203579,-2221.676944
588.188524,5477.523971,5625.565159,-1762.019645
588.188845,7476.080014,5551.544565,0.000000
588.189165,7105.977043,6883.915261,995.924147
588.189486,6069.688724,8364.327145,2221.676944
588.189807,7105.977043,8438.347739,-689.485948
588.190127,4441.235652,5477.523971,-3064.381992
588.190448,5107.421000,5477.523971,612.876398
588.190768,7105.977043,7846.182985,3830.477490
588.191089,7105.977043,7550.100608,459.657299
588.191410,2886.803174,5255.462188,-2987.772442
588.191730,5181.441594,7920.203579,-2987.772442
588.192051,3997.112087,6883.915261,-1838.629195
588.192372,2516.700203,3627.009116,1378.971896
588.192692,6883.915261,6661.853478,2451.505594
588.193013,6439.791695,10510.924376,1149.143247
588.193334,1036.288319,10288.862594,536.266849
588.193654,4071.132681,7105.977043,1072.533697
588.193975,5255.462188,5033.400406,1149.143247
588.194295,2812.782580,5033.400406,2374.896044
588.194616,3701.029710,6439.791695,1072.533697
588.194936,3182.885551,8216.285956,-2911.162892
588.195257,3552.988522,9548.656652,-2221.676944
588.195577,5551.544565,8660.409521,1378.971896
588.195898,6365.771101,8068.244768,842.705048
588.196218,2886.803174,9992.780217,1149.143247
588.196539,3478.967927,12435.459826,2298.286494
588.196859,4515.256246,9104.533087,-76.609550
588.197180,4811.338623,5847.626942,-2451.505594
588.197500,4811.338623,5403.503377,-306.438199
588.197821,5625.565159,7846.182985,689.485948
588.198141,4737.318029,8882.471304,229.828649
588.198462,2590.720797,8956.491898,-1302.362347
588.198782,5033.400406,9548.656652,-2374.896044
588.199103,7105.977043,7846.182985,-766.095498
588.199423,6069.688724,7994.224174,1378.971896
588.199744,5847.626942,9474.636058,1302.362347
588.200064,7105.977043,12435.459826,-1072.533697
588.200385,5995.668130,12065.356855,-1532.190996
588.200705,5995.668130,9474.636058,766.095498
588.201026,6439.791695,8660.409521,3370.820191
588.201347,4441.235652,7402.059420,3524.039291
588.201667,3404.947333,6809.894666,-229.828649
588.201988,3404.947333,5847.626942,-3907.087040
588.202308,3108.864956,5329.482782,-1762.019645
588.202629,5847.626942,7624.121203,1072.533697
588.202949,5699.585753,7476.080014,689.485948
588.203270,3404.947333,7994.224174,-2068.457845
588.203590,4145.153275,8438.347739,-4060.306139
588.203911,6957.935855,9548.656652,-3140.991542
588.204231,7254.018232,9474.636058,153.219100
588.204552,7920.203579,7772.162391,612.876398
588.204872,7624.121203,7994.224174,-2145.067394
588.205193,3997.112087,8586.388927,-3830.477490
588.205513,3478.967927,7624.121203,-2681.334243
588.205834,3478.967927,6143.709319,-1532.190996
588.206154,7994.224174,8142.265362,306.438199
588.206475,5107.421000,6809.894666,689.485948
588.206795,3404.947333,5995.668130,-1532.190996
588.207116,4441.235652,7254.018232,-1685.410096
588.207436,3552.988522,7698.141797,689.485948
588.207757,3478.967927,8216.285956,229.828649
588.208077,7105.977043,9104.533087,-1149.143247
588.208398,5477.523971,8068.244768,-2145.067394
588.208718,4219.173869,7402.059420,-1838.629195
588.209039,4959.379811,8438.347739,-1838.629195
588.209359,3256.906145,8734.430116,-1685.410096
588.209680,3923.091493,9770.718434,-306.438199
588.210000,8364.327145,11177.109724,153.219100
588.210321,5551.544565,10288.862594,-1532.190996
588.210642,4071.132681,10436.903782,-689.485948
588.210962,5995.668130,9696.697840,1072.533697
588.211283,3775.050304,7031.956449,2374.896044
588.211603,4811.338623,6587.832884,2757.943793
588.211924,6587.832884,7846.182985,1072.533697
588.212244,3627.009116,8068.244768,-689.485948
588.212565,2220.617826,6735.874072,-306.438199
588.212885,5551.544565,7698.141797,383.047749
588.213206,6883.915261,10584.944971,383.047749
588.213526,4441.235652,9252.574275,0.000000
588.213847,2886.803174,5477.523971,-1608.800546
588.214167,5329.482782,7624.121203,-1608.800546
588.214488,3923.091493,8512.368333,1302.362347
588.214808,3923.091493,10510.924376,-459.657299
588.215129,6217.729913,10881.027347,-3907.087040
588.215449,6365.771101,10955.047942,-2604.724693
588.215770,5329.482782,7698.141797,2374.896044
588.216090,6513.812290,6069.688724,4136.915689
588.216411,3108.864956,3182.885551,2757.943793
588.216731,148.041188,3256.906145,229.828649
588.217052,4441.235652,6513.812290,-1532.190996
588.217372,5773.606348,8660.409521,-1532.190996
588.217693,5403.503377,6439.791695,-306.438199
588.218013,7031.956449,6365.771101,612.876398
588.218334,6365.771101,7402.059420,-153.219100
588.218654,2368.659014,8142.265362,459.657299
588.218975,4959.379811,8364.327145,-1149.143247
588.219295,7031.956449,9252.574275,-3753.867940
588.219616,6365.771101,10436.903782,-1685.410096
588.219937,6439.791695,9326.594869,1149.143247
588.220257,7105.977043,9400.615463,1685.410096
588.220578,4737.318029,8956.491898,1378.971896
588.220898,4441.235652,8142.265362,459.657299
588.221219,5181.441594,7031.956449,-766.095498
588.221539,3849.070898,5921.647536,536.266849
588.221860,4737.318029,7179.997637,4060.306139
588.222180,7254.018232,8882.471304,4136.915689
588.222501,3034.844362,5329.482782,0.000000
588.222821,2220.617826,4737.318029,-2528.115143
588.223142,6735.874072,7994.224174,-459.657299
588.223462,6069.688724,10140.821405,919.314598
588.223783,6587.832884,10584.944971,-306.438199
588.224103,6809.894666,11251.130318,-2221.676944
588.224424,5773.606348,10658.965565,306.438199
588.224744,5699.585753,9992.780217,4903.011187
588.225065,5403.503377,9474.636058,3447.429741
588.225385,1406.391290,7105.977043,-2451.505594
588.225706,2072.576638,7328.038826,-3524.039291
588.226026,4663.297435,7105.977043,-1225.752797
588.226347,3775.050304,6069.688724,1915.238745
588.226667,4219.173869,7031.956449,4826.401637
588.226988,4737.318029,7994.224174,1915.238745
588.227308,962.267725,7698.141797,229.828649
588.227629,3108.864956,9030.512492,229.828649
588.227949,6513.812290,8956.491898,766.095498
588.228270,5773.606348,7698.141797,-383.047749
588.228590,6069.688724,7698.141797,919.314598
588.228911,8290.306550,11325.150913,229.828649
588.229232,5773.606348,10288.862594,-1225.752797
588.229552,3552.988522,7179.997637,-1149.143247
588.229873,6217.729913,6143.709319,-1532.190996
588.230193,5699.585753,5699.585753,-1225.752797
588.230514,4737.318029,5403.503377,1685.410096
588.230834,6217.729913,5847.626942,919.314598
588.231155,6439.791695,6957.935855,-2145.067394
588.231475,3552.988522,6365.771101,-1302.362347
588.231796,3034.844362,6217.729913,-306.438199
588.232116,7105.977043,8142.265362,-153.219100
588.232437,5403.503377,7105.977043,0.000000
588.232757,3997.112087,6809.894666,-2834.553343
588.233078,5551.544565,5551.544565,-3983.696590
588.233398,3552.988522,7254.018232,-2451.505594
588.233719,4885.359217,9696.697840,153.219100
588.234039,4737.318029,11029.068536,-1991.848295
588.234360,4071.132681,10362.883188,-4826.401637
588.234680,2072.576638,6809.894666,-2987.772442
588.235001,4737.318029,5699.585753,-536.266849
588.235321,4811.338623,6809.894666,383.047749
588.235642,3404.947333,8734.430116,-1762.019645
588.235962,4071.132681,10140.821405,-4136.915689
588.236283,5625.565159,12435.459826,-2681.334243
588.236603,4811.338623,11843.295072,1378.971896
588.236924,3256.906145,8216.285956,2911.162892
588.237244,5551.544565,7328.038826,2528.115143
588.237565,5699.585753,9030.512492,1991.848295
588.237885,3182.885551,8586.388927,-383.047749
588.238206,4071.132681,7550.100608,-2528.115143
588.238527,6661.853478,8290.306550,0.000000
588.238847,7624.121203,11695.253884,2298.286494
588.239168,8068.244768,12287.418637,919.314598
588.239488,6365.771101,11769.274478,-2757.943793
588.239809,6513.812290,10362.883188,-3447.429741
588.240129,5329.482782,7698.141797,153.219100
588.240450,7031.956449,6735.874072,2604.724693
588.240770,7772.162391,9030.512492,1532.190996
588.241091,6291.750507,11695.253884,-995.924147
588.241411,4515.256246,10510.924376,-2451.505594
588.241732,6735.874072,8142.265362,612.876398
588.242052,7624.121203,6513.812290,5515.887586
588.242373,6291.750507,5625.565159,5439.278036
588.242693,3775.050304,5625.565159,536.266849
588.243014,4293.194464,6661.853478,-2604.724693
588.243334,3404.947333,6513.812290,0.000000
588.243655,6957.935855,6513.812290,1991.848295
588.243975,6587.832884,7105.977043,1225.752797
588.244296,4219.173869,9104.533087,0.000000
588.244616,2886.803174,7328.038826,-612.876398
588.244937,4219.173869,4811.338623,-536.266849
588.245257,4737.318029,4145.153275,1455.581446
588.245578,3701.029710,5773.606348,919.314598
588.245898,2368.659014,8438.347739,-612.876398
588.246219,1998.556043,9548.656652,-995.924147
588.246539,4589.276840,9696.697840,1838.629195
588.246860,5551.544565,7698.141797,2298.286494
588.247180,2812.782580,5033.400406,919.314598
588.247501,-148.041188,3775.050304,842.705048
588.247822,2738.761985,6661.853478,2145.067394
588.248142,4441.235652,8956.491898,4060.306139
588.248463,2960.823768,7254.018232,1838.629195
588.248783,4885.359217,6661.853478,-229.828649
588.249104,4959.379811,7846.182985,1302.362347
588.249424,1258.350101,7328.038826,2145.067394
588.249745,4885.359217,6661.853478,229.828649
588.250065,7698.141797,7550.100608,-2451.505594
588.250386,4441.235652,8586.388927,-1225.752797
588.250706,5847.626942,8882.471304,995.924147
588.251027,7254.018232,8586.388927,1149.143247
588.251347,5255.462188,9474.636058,-612.876398
588.251668,4737.318029,8512.368333,-1685.410096
588.251988,6365.771101,7920.203579,-1991.848295
588.252309,4737.318029,4959.379811,0.000000
588.252629,5699.585753,4663.297435,1685.410096
588.252950,7624.121203,8734.430116,-76.609550
588.253270,4811.338623,10881.027347,-3294.210641
588.253591,4441.235652,9844.739029,-2221.676944
588.253911,7772.162391,10066.800811,-919.314598
588.254232,9400.615463,10658.965565,459.657299
588.254552,3923.091493,6587.832884,1302.362347
588.254873,4293.194464,6217.729913,153.219100
588.255193,4515.256246,8290.306550,-1915.238745
588.255514,2072.576638,9474.636058,-1915.238745
588.255834,5329.482782,10066.800811,-2451.505594
588.256155,6957.935855,9178.553681,-3600.648841
588.256475,3849.070898,9696.697840,-306.438199
588.256796,5773.606348,11695.253884,2604.724693
588.257117,4959.379811,9474.636058,-1225.752797
588.257437,1110.308913,5255.462188,-3294.210641
588.257758,5403.503377,6883.915261,-1072.533697
588.258078,7772.162391,9770.718434,766.095498
588.258399,4219.173869,10214.842000,-766.095498
588.258719,5995.668130,9918.759623,-2681.334243
588.259040,7772.162391,9178.553681,-3677.258390
588.259360,4145.153275,7550.100608,-459.657299
588.259681,5699.585753,8364.327145,2145.067394
588.260001,5847.626942,7846.182985,-612.876398
588.260322,3849.070898,7772.162391,-4060.306139
588.260642,5847.626942,8882.471304,-2604.724693
588.260963,5995.668130,8956.491898,-459.657299
588.261283,4515.256246,7698.141797,536.266849
588.261604,5625.565159,6735.874072,-459.657299
588.261924,3997.112087,7994.224174,-4519.963438
588.262245,5477.523971,10658.965565,-2604.724693
588.262565,3997.112087,8734.430116,1685.410096
588.262886,7402.059420,8068.244768,1378.971896
588.263206,7402.059420,10584.944971,306.438199
588.263527,3256.906145,11103.089130,1455.581446
588.263847,3034.844362,8734.430116,1225.752797
588.264168,7179.997637,6735.874072,2145.067394
588.264488,3849.070898,4589.276840,2528.115143
588.264809,3034.844362,3478.967927,-689.485948
588.265129,5699.585753,5255.462188,-1225.752797
588.265450,5477.523971,8734.430116,1225.752797
588.265770,6587.832884,11843.295072,3140.991542
588.266091,7328.038826,9622.677246,0.000000
588.266412,2368.659014,4959.379811,-3447.429741
588.266732,4219.173869,6069.688724,1225.752797
588.267053,7328.038826,9474.636058,5822.325785
588.267373,4515.256246,8068.244768,1762.019645
588.267694,2960.823768,5921.647536,-2528.115143
588.268014,5625.565159,8216.285956,-1532.190996
588.268335,4589.276840,10584.944971,3753.867940
588.268655,1998.556043,7846.182985,5669.106685
588.268976,2516.700203,5699.585753,842.705048
588.269296,3256.906145,4885.359217,-2834.553343
588.269617,2220.617826,3034.844362,383.047749
588.269937,2590.720797,4441.235652,2757.943793
588.270258,5773.606348,8364.327145,1608.800546
588.270578,3034.844362,8882.471304,-1225.752797
588.270899,3997.112087,9326.594869,-3600.648841
588.271219,7624.121203,9326.594869,-2604.724693
588.271540,5477.523971,7179.997637,1455.581446
588.271860,5107.421000,6661.853478,2451.505594
588.272181,7031.956449,7254.018232,-76.609550
588.272501,3182.885551,8808.450710,-2604.724693
588.272822,5625.565159,10362.883188,-1149.143247
588.273142,7105.977043,8512.368333,0.000000
588.273463,5551.544565,6365.771101,612.876398
588.273783,6291.750507,6069.688724,2528.115143
588.274104,4441.235652,5255.462188,2451.505594
588.274424,3404.947333,5625.565159,306.438199
588.274745,6217.729913,7698.141797,459.657299
588.275065,5625.565159,7920.203579,-1302.362347
588.275386,3478.967927,6291.750507,-3370.820191
588.275707,7328.038826,8586.388927,-1838.629195
588.276027,7550.100608,12731.542202,-1225.752797
588.276348,4885.359217,14137.933492,-2068.457845
588.276668,5625.565159,10584.944971,-689.485948
588.276989,5403.503377,10066.800811,-459.657299
588.277309,4219.173869,9622.677246,1455.581446
588.277630,1850.514855,8142.265362,1455.581446
588.277950,2516.700203,7179.997637,-2681.334243
588.278271,3997.112087,8364.327145,-3600.648841
588.278591,4737.318029,7920.203579,1455.581446
588.278912,6217.729913,8734.430116,1608.800546
588.279232,5847.626942,8290.306550,-1149.143247
588.279553,1850.514855,7328.038826,-2068.457845
588.279873,4367.215058,7179.997637,-1838.629195
588.280194,7772.162391,8586.388927,0.000000
588.280514,5773.606348,9030.512492,-536.266849
588.280835,7105.977043,10436.903782,-2528.115143
588.281155,7550.100608,10140.821405,-4366.744339
588.281476,6439.791695,10288.862594,-4443.353888
588.281796,5625.565159,8660.409521,-1991.848295
588.282117,5995.668130,7031.956449,-1838.629195
588.282437,5625.565159,6883.915261,-995.924147
588.282758,6365.771101,8882.471304,1072.533697
588.283078,4071.132681,7920.203579,995.924147
588.283399,4737.318029,6957.935855,-1072.533697
588.283719,5921.647536,7920.203579,-1225.752797
588.284040,3997.112087,8660.409521,-1302.362347
588.284360,3775.050304,6957.935855,-689.485948
588.284681,5255.462188,5699.585753,306.438199
588.285002,6957.935855,7698.141797,459.657299
588.285322,5181.441594,9696.697840,1532.190996
588.285643,3404.947333,9252.574275,-766.095498
588.285963,4145.153275,9770.718434,-2604.724693
588.286284,5181.441594,10362.883188,0.000000
588.286604,4737.318029,7994.224174,1915.238745
588.286925,6513.812290,7179.997637,612.876398
588.287245,4737.318029,8216.285956,-153.219100
588.287566,1554.432478,7402.059420,-612.876398
588.287886,3627.009116,6217.729913,-1762.019645
588.288207,4959.379811,7031.956449,-1149.143247
588.288527,2442.679609,6587.832884,76.609550
588.288848,4293.194464,6365.771101,1991.848295
588.289168,5551.544565,6809.894666,1608.800546
588.289489,4441.235652,6439.791695,153.219100
588.289809,5181.441594,7328.038826,-995.924147
588.290130,6365.771101,8438.347739,-1915.238745
588.290450,4293.194464,9252.574275,-1149.143247
588.290771,6957.935855,10362.883188,1762.019645
588.291091,7031.956449,7105.977043,383.047749
588.291412,6513.812290,4811.338623,-2145.067394
588.291732,6587.832884,7254.018232,-383.047749
588.292053,5181.441594,9548.656652,842.705048
588.292373,4145.153275,7031.956449,0.000000
588.292694,6513.812290,6439.791695,0.000000
588.293014,6439.791695,7994.224174,1378.971896
588.293335,4441.235652,5921.647536,1762.019645
588.293656,4367.215058,5403.503377,229.828649
588.293976,4367.215058,5625.565159,-2298.286494
588.294297,3849.070898,7179.997637,-2145.067394
588.294617,6957.935855,9918.759623,229.828649
588.294938,6217.729913,11251.130318,1608.800546
588.295258,4589.276840,10881.027347,2451.505594
588.295579,6291.750507,10955.047942,2451.505594
588.295899,5329.482782,8808.450710,-1149.143247
588.296220,1924.535449,5181.441594,-1608.800546
588.296540,3627.009116,7254.018232,1378.971896
588.296861,6143.709319,9992.780217,1378.971896
588.297182,2590.720797,8216.285956,-536.266849
588.297502,2812.782580,7624.121203,-1915.238745
588.297823,7031.956449,10214.842000,-1762.019645
588.298143,3701.029710,10362.883188,612.876398
588.298464,2368.659014,6957.935855,2068.457845
588.298784,6069.688724,7254.018232,153.219100
588.299105,5551.544565,9474.636058,-612.876398
588.299425,2442.679609,10881.027347,1838.629195
588.299746,5255.462188,9696.697840,1302.362347
588.300066,4219.173869,8734.430116,-1608.800546
588.300387,5255.462188,8364.327145,-1225.752797
588.300708,5847.626942,7846.182985,-536.266849
588.301028,5403.503377,7920.203579,-536.266849
588.301349,5773.606348,8290.306550,1302.362347
588.301669,4737.318029,7994.224174,1762.019645
588.301990,3627.009116,8216.285956,-1225.752797
588.302310,4589.276840,6957.935855,-612.876398
588.302631,6439.791695,7031.956449,1225.752797
588.302951,6217.729913,6735.874072,-689.485948
588.303272,5625.565159,7698.141797,-2068.457845
588.303592,4589.276840,8512.368333,-2374.896044
588.303913,3849.070898,7550.100608,-1149.143247
588.304234,5033.400406,7254.018232,1991.848295
588.304554,6809.894666,8882.471304,1225.752797
588.304875,4293.194464,8512.368333,-2834.553343
588.305195,2664.741391,7476.080014,-3217.601092
588.305516,5329.482782,8808.450710,-306.438199
588.305836,5477.523971,8068.244768,1225.752797
588.306157,3256.906145,4959.379811,766.095498
588.306477,4219.173869,4441.235652,-1532.190996
588.306798,4145.153275,7031.956449,-2451.505594
588.307118,2738.761985,8438.347739,306.438199
588.307439,3849.070898,7846.182985,383.047749
588.307759,6809.894666,5699.585753,-1991.848295
588.308080,6069.688724,9178.553681,-689.485948
588.308401,5033.400406,10584.944971,1225.752797
588.308721,3330.926739,7550.100608,-1608.800546
588.309042,6217.729913,8512.368333,-3140.991542
588.309362,7846.182985,9770.718434,-1225.752797
588.309683,5625.565159,7920.203579,-995.924147
588.310003,6365.771101,7550.100608,-1225.752797
588.310324,6957.935855,10584.944971,0.000000
588.310644,2960.823768,9178.553681,229.828649
588.310965,6069.688724,8734.430116,919.314598
588.311285,7846.182985,9474.636058,1302.362347
588.311606,4145.153275,9474.636058,1532.190996
588.311927,7105.977043,10140.821405,2834.553343
588.312247,7105.977043,8660.409521,1378.971896
588.312568,1702.473667,6069.688724,-459.657299
588.312888,4737.318029,6365.771101,1378.971896
588.313209,7031.956449,9474.636058,689.485948
588.313529,3182.885551,9622.677246,-1915.238745
588.313850,4441.235652,9326.594869,-842.705048
588.314170,7402.059420,10658.965565,766.095498
588.314491,5403.503377,10658.965565,1455.581446
588.314811,2368.659014,9770.718434,2987.772442
588.315132,3552.988522,8734.430116,612.876398
588.315453,4737.318029,8216.285956,-1762.019645
588.315773,3775.050304,7772.162391,919.314598
588.316094,3034.844362,6217.729913,919.314598
588.316414,4737.318029,5551.544565,0.000000
588.316735,5995.668130,7994.224174,2451.505594
588.317055,5403.503377,9252.574275,3064.381992
588.317376,3330.926739,6513.812290,1225.752797
588.317696,2812.782580,5329.482782,536.266849
588.318017,4811.338623,6143.709319,1302.362347
588.318337,3552.988522,4663.297435,842.705048
588.318658,5773.606348,5625.565159,-1378.971896
588.318979,8956.491898,10140.821405,-3907.087040
588.319299,6957.935855,11547.212695,-4673.182538
588.319620,4737.318029,9400.615463,-2221.676944
588.319940,6291.750507,7698.141797,1532.190996
588.320261,5477.523971,6809.894666,3907.087040
588.320581,5033.400406,6957.935855,4903.011187
588.320902,5403.503377,7105.977043,1072.533697
588.321222,3256.906145,7179.997637,-1838.629195
588.321543,3034.844362,6439.791695,995.924147
588.321863,4737.318029,6069.688724,3370.820191
588.322184,4515.256246,5625.565159,2681.334243
588.322504,3404.947333,6735.874072,2528.115143
588.322825,3256.906145,5995.668130,1072.533697
588.323146,4589.276840,5773.606348,-689.485948
588.323466,5403.503377,8290.306550,612.876398
588.323787,5329.482782,11251.130318,842.705048
588.324107,6069.688724,11695.253884,-1455.581446
588.324428,7254.018232,12435.459826,-1762.019645
588.324748,4811.338623,9992.780217,-1225.752797
588.325069,4737.318029,6439.791695,-1991.848295
588.325389,4811.338623,4737.318029,-2374.896044
588.325710,2294.638420,5403.503377,-2374.896044
588.326030,2146.597232,7994.224174,-1991.848295
588.326351,4811.338623,9326.594869,-1149.143247
588.326672,2960.823768,6883.915261,689.485948
588.326992,4737.318029,8142.265362,1225.752797
588.327313,7031.956449,11991.336260,1225.752797
588.327633,2738.761985,10436.903782,-383.047749
588.327954,3182.885551,6883.915261,-2451.505594
588.328274,8808.450710,6439.791695,-612.876398
588.328595,5551.544565,8290.306550,459.657299
588.328915,2812.782580,8882.471304,-306.438199
588.329236,4885.359217,9548.656652,-4443.353888
588.329556,5921.647536,10881.027347,-6435.202183
588.329877,6587.832884,11695.253884,-1302.362347
588.330198,7328.038826,7402.059420,1455.581446
588.330518,6513.812290,5329.482782,-459.657299
588.330839,6735.874072,9178.553681,229.828649
588.331159,4589.276840,11843.295072,-689.485948
588.331480,5625.565159,9696.697840,-4366.744339
588.331800,7698.141797,8290.306550,-2374.896044
588.332121,8660.409521,9400.615463,1991.848295
588.332441,7698.141797,9400.615463,3524.039291
588.332762,4515.256246,7772.162391,1149.143247
588.333082,3108.864956,7846.182985,-2221.676944
588.333403,4589.276840,9622.677246,-459.657299
588.333724,4811.338623,8512.368333,1608.800546
588.334044,3849.070898,5995.668130,842.705048
588.334365,5625.565159,8216.285956,-995.924147
588.334685,5107.421000,12065.356855,-1378.971896
588.335006,1998.556043,11769.274478,-1915.238745
588.335326,3108.864956,8068.244768,-766.095498
588.335647,5329.482782,7105.977043,1685.410096
588.335967,4589.276840,7772.162391,2451.505594
588.336288,3775.050304,7772.162391,766.095498
588.336608,2220.617826,8290.306550,-766.095498
588.336929,4219.173869,7476.080014,-612.876398
588.337249,5847.626942,7402.059420,1915.238745
588.337570,5403.503377,7994.224174,2681.334243
588.337891,2590.720797,6661.853478,1838.629195
588.338211,2664.741391,5033.400406,612.876398
588.338532,5033.400406,5033.400406,153.219100
588.338852,4737.318029,5403.503377,-1072.533697
588.339173,4219.173869,6069.688724,-2221.676944
588.339493,7772.162391,8734.430116,-2221.676944
588.339814,6513.812290,10807.006753,-1685.410096
588.340134,5403.503377,9992.780217,919.314598
588.340455,8586.388927,10066.800811,1378.971896
588.340775,6069.688724,6957.935855,1838.629195
588.341096,3478.967927,5403.503377,2681.334243
588.341417,7328.038826,7254.018232,2451.505594
588.341737,4737.318029,5477.523971,1072.533697
588.342058,2368.659014,4589.276840,689.485948
588.342378,6735.874072,7328.038826,2528.115143
588.342699,3330.926739,7254.018232,1915.238745
588.343019,444.123565,2664.741391,229.828649
588.343340,5625.565159,2960.823768,-1378.971896
588.343660,7031.956449,7476.080014,-2451.505594
588.343981,3775.050304,10807.006753,0.000000
588.344301,4737.318029,10362.883188,-612.876398
588.344622,5477.523971,9474.636058,-3524.039291
588.344943,6069.688724,10955.047942,-919.314598
588.345263,5107.421000,9474.636058,1991.848295
588.345584,4367.215058,7624.121203,-1378.971896
588.345904,3330.926739,6809.894666,-3140.991542
588.346225,2442.679609,6217.729913,-1991.848295
588.346545,4737.318029,6587.832884,-1608.800546
588.346866,4663.297435,5107.421000,-689.485948
588.347186,2886.803174,5477.523971,459.657299
588.347507,5625.565159,9252.574275,-612.876398
588.347827,5847.626942,9548.656652,-1608.800546
588.348148,4737.318029,8216.285956,-2068.457845
588.348469,8438.347739,8660.409521,-766.095498
588.348789,6809.894666,8438.347739,-1838.629195
588.349110,5255.462188,8216.285956,-3600.648841
588.349430,6661.853478,10288.862594,-4596.572988
588.349751,5921.647536,12139.377449,-2987.772442
588.350071,6143.709319,13471.748144,-383.047749
588.350392,7328.038826,12657.521608,229.828649
588.350712,3478.967927,9178.553681,-1149.143247
588.351033,2812.782580,8808.450710,459.657299
588.351353,5181.441594,10362.883188,3600.648841
588.351674,2294.638420,8956.491898,1225.752797
588.351994,1184.329507,6513.812290,-1608.800546
588.352315,5551.544565,7254.018232,-1532.190996
588.352636,7179.997637,11769.274478,-383.047749
588.352956,5033.400406,13027.624579,3294.210641
588.353277,3997.112087,11547.212695,2604.724693
588.353597,5477.523971,9992.780217,0.000000
588.353918,5773.606348,8586.388927,1455.581446
588.354238,5033.400406,9178.553681,2221.676944
588.354559,6069.688724,8660.409521,-612.876398
588.354879,5181.441594,8290.306550,-4366.744339
588.355200,4071.132681,6439.791695,-5286.058936
588.355520,6809.894666,6513.812290,-2451.505594
588.355841,7994.224174,7105.977043,4290.134789
588.356162,6143.709319,7846.182985,4443.353888
588.356482,6365.771101,7994.224174,459.657299
588.356803,4811.338623,6957.935855,-2145.067394
588.357123,4219.173869,4589.276840,-766.095498
588.357444,7105.977043,3256.906145,3600.648841
588.357764,7105.977043,4293.194464,3753.867940
588.358085,4367.215058,5255.462188,-842.705048
588.358405,3108.864956,6365.771101,-4903.011187
588.358726,3108.864956,7105.977043,-3600.648841
588.359046,6143.709319,6809.894666,1532.190996
588.359367,6661.853478,6587.832884,2757.943793
588.359688,4145.153275,5551.544565,-229.828649
588.360008,4071.132681,8142.265362,-1149.143247
588.360329,3997.112087,10288.862594,229.828649
588.360649,1258.350101,6735.874072,76.609550
588.360970,3404.947333,4145.153275,-306.438199
588.361290,6735.874072,6069.688724,0.000000
588.361611,4145.153275,9622.677246,612.876398
588.361931,1998.556043,7772.162391,1149.143247
588.362252,3034.844362,4959.379811,383.047749
588.362572,4737.318029,6291.750507,1915.238745
588.362893,3997.112087,7105.977043,4213.525239
588.363214,1924.535449,7476.080014,2221.676944
588.363534,4367.215058,9770.718434,-1762.019645
588.363855,5181.441594,10658.965565,-1455.581446
588.364175,4589.276840,7994.224174,-1149.143247
588.364496,4811.338623,5329.482782,-2987.772442
588.364816,4293.194464,7624.121203,-2528.115143
588.365137,3404.947333,11843.295072,-919.314598
588.365457,3256.906145,10510.924376,-919.314598
588.365778,5773.606348,9400.615463,-2221.676944
588.366098,7846.182985,11621.233289,-76.609550
588.366419,6957.935855,13767.830521,2834.553343
588.366739,3775.050304,9770.718434,1225.752797
588.367060,6809.894666,7105.977043,-2221.676944
588.367381,5921.647536,4737.318029,-1455.581446
588.367701,5107.421000,5033.400406,1149.143247
588.368022,8512.368333,7031.956449,842.705048
588.368342,7920.203579,9030.512492,-766.095498
588.368663,6661.853478,10140.821405,-2451.505594
588.368983,9326.594869,9992.780217,-3370.820191
588.369304,8438.347739,7846.182985,-3064.381992
588.369624,5033.400406,6513.812290,-536.266849
588.369945,8142.265362,8956.491898,1455.581446
588.370265,7328.038826,11769.274478,-2068.457845
588.370586,5033.400406,10955.047942,-5898.935335
588.370907,5551.544565,9104.533087,-2604.724693
588.371227,6069.688724,9178.553681,1225.752797
588.371548,6291.750507,8512.368333,3753.867940
588.371868,1480.411884,5181.441594,842.705048
588.372189,888.247130,4515.256246,-4290.134789
588.372509,4293.194464,8216.285956,-2451.505594
588.372830,2664.741391,7920.203579,1991.848295
588.373150,2664.741391,5477.523971,0.000000
588.373471,5625.565159,7105.977043,-2604.724693
588.373791,3849.070898,11547.212695,-3370.820191
588.374112,2368.659014,12509.480420,-2451.505594
588.374433,4293.194464,10658.965565,-1302.362347
588.374753,4885.359217,8808.450710,-995.924147
588.375074,5625.565159,9104.533087,-1455.581446
588.375394,4663.297435,8660.409521,-1762.019645
588.375715,3034.844362,9696.697840,-153.219100
588.376035,2368.659014,8438.347739,1915.238745
588.376356,6069.688724,7698.141797,3140.991542
588.376676,3775.050304,7105.977043,2298.286494
588.376997,5477.523971,6069.688724,2145.067394
588.377317,5107.421000,5699.585753,2374.896044
588.377638,4737.318029,5699.585753,766.095498
588.377959,4441.235652,5255.462188,-383.047749
588.378279,6809.894666,5255.462188,-1302.362347
588.378600,6661.853478,6143.709319,306.438199
588.378920,7698.141797,9104.533087,1915.238745
588.379241,8512.368333,13175.665768,-383.047749
588.379561,7846.182985,12509.480420,-4519.963438
588.379882,5033.400406,8512.368333,-1915.238745
588.380202,8290.306550,8364.327145,3830.477490
588.380523,7698.141797,8882.471304,6052.154434
588.380843,2738.761985,5329.482782,2145.067394
588.381164,1184.329507,3997.112087,-1991.848295
588.381484,4515.256246,7772.162391,0.000000
588.381805,3701.029710,9104.533087,3370.820191
588.382126,2220.617826,4367.215058,2681.334243
588.382446,5329.482782,3552.988522,-383.047749
588.382767,3701.029710,6735.874072,383.047749
588.383087,1776.494261,7402.059420,3524.039291
588.383408,3108.864956,7031.956449,1762.019645
588.383728,5181.441594,9178.553681,-2145.067394
588.384049,5625.565159,11251.130318,-2604.724693
588.384369,5329.482782,9918.759623,-1455.581446
588.384690,6587.832884,7772.162391,-229.828649
588.385010,5033.400406,8216.285956,1072.533697
588.385331,2886.803174,7179.997637,1455.581446
588.385652,3701.029710,5255.462188,-919.314598
588.385972,4367.215058,7402.059420,-1072.533697
588.386293,3552.988522,8660.409521,459.657299
588.386613,4145.153275,5773.606348,919.314598
588.386934,4737.318029,4959.379811,-612.876398
588.387254,5255.462188,6735.874072,459.657299
588.387575,5329.482782,8882.471304,0.000000
588.387895,5329.482782,8512.368333,-766.095498
588.388216,6143.709319,9400.615463,-2987.772442
588.388536,7179.997637,8216.285956,-1149.143247
588.388857,7476.080014,7772.162391,-383.047749
588.389178,8734.430116,9844.739029,-153.219100
588.389498,7179.997637,11103.089130,-689.485948
588.389819,5625.565159,10436.903782,-2451.505594
588.390139,6957.935855,9696.697840,-1915.238745
588.390460,6661.853478,8956.491898,919.314598
588.390780,5551.544565,7994.224174,2374.896044
588.391101,4811.338623,5255.462188,919.314598
588.391421,4663.297435,5773.606348,-1991.848295
588.391742,3404.947333,8660.409521,-536.266849
588.392062,3256.906145,8882.471304,919.314598
588.392383,4737.318029,8216.285956,-1302.362347
588.392704,5403.503377,10510.924376,-2987.772442
588.393024,4589.276840,12213.398043,-919.314598
588.393345,4737.318029,12065.356855,0.000000
588.393665,5329.482782,12139.377449,459.657299
588.393986,5403.503377,11843.295072,0.000000
588.394306,3923.091493,9992.780217,-1378.971896
588.394627,2220.617826,5995.668130,-2068.457845
588.394947,3478.967927,5181.441594,0.000000
588.395268,2442.679609,5403.503377,-612.876398
588.395588,3923.091493,5625.565159,-2911.162892
588.395909,5403.503377,7105.977043,-3447.429741
588.396229,6365.771101,8438.347739,-1838.629195
588.396550,6217.729913,9696.697840,536.266849
588.396870,4737.318029,7994.224174,-153.219100
588.397191,2960.823768,5107.421000,-2604.724693
588.397511,7920.203579,5699.585753,-2298.286494
588.397832,8512.368333,9696.697840,-1225.752797
588.398152,6365.771101,10362.883188,-2681.334243
588.398472,6069.688724,9696.697840,-4979.620737
588.398793,5921.647536,7328.038826,-4213.525239
588.399113,4441.235652,5477.523971,1455.581446
588.399434,4959.379811,4811.338623,3907.087040
588.399754,3108.864956,4441.235652,-1608.800546
588.400075,1776.494261,4737.318029,-4673.182538
588.400395,5107.421000,8660.409521,-1532.190996
588.400716,5255.462188,9178.553681,-383.047749
588.401036,1628.453072,4515.256246,-1838.629195
588.401357,3923.091493,4737.318029,-2451.505594
588.401677,4885.359217,8882.471304,-4443.353888
588.401997,2220.617826,8808.450710,-5669.106685
588.402318,2664.741391,8660.409521,-4979.620737
588.402638,7920.203579,10510.924376,-3217.601092
588.402959,6587.832884,11917.315666,-536.266849
588.403279,5329.482782,10584.944971,-383.047749
588.403600,4441.235652,7846.182985,-4443.353888
588.403920,1628.453072,4811.338623,-5592.497135
588.404241,3997.112087,3552.988522,-3447.429741
588.404561,7550.100608,3478.967927,-1685.410096
588.404882,7179.997637,5033.400406,-2451.505594
588.405202,5403.503377,8660.409521,-3907.087040
588.405523,6439.791695,10214.842000,-4903.011187
588.405843,3627.009116,9474.636058,-4749.792088
588.406163,3997.112087,7920.203579,-2834.553343
588.406484,7402.059420,7328.038826,-1915.238745
588.406804,6291.750507,7624.121203,-4826.401637
588.407125,3775.050304,9474.636058,-7660.954980
588.407445,4885.359217,11695.253884,-7048.078582
588.407766,3034.844362,11547.212695,-5898.935335
588.408086,5773.606348,10807.006753,-2911.162892
588.408407,5107.421000,9992.780217,-3447.429741
588.408727,3330.926739,7994.224174,-7354.516781
588.409048,3404.947333,5033.400406,-6052.154434
588.409368,5847.626942,6439.791695,-2298.286494
588.409688,6291.750507,7994.224174,-2145.067394
588.410009,4441.235652,7254.018232,-5515.887586
588.410329,5329.482782,7698.141797,-9576.193725
588.410650,9030.512492,11325.150913,-8963.317327
588.410970,6883.915261,10732.986159,-2528.115143
588.411291,7476.080014,7402.059420,-2221.676944
588.411611,8808.450710,5995.668130,-6511.811733
588.411932,6809.894666,7476.080014,-5286.058936
588.412252,5181.441594,9918.759623,-2987.772442
588.412573,7105.977043,11325.150913,-4136.915689
588.412893,5033.400406,9400.615463,-6894.859482
588.413213,3923.091493,6069.688724,-6588.421283
588.413534,4959.379811,3849.070898,-5362.668486
588.413854,3478.967927,2886.803174,-6281.983084
588.414175,1628.453072,5033.400406,-6358.592633
588.414495,5551.544565,11325.150913,-6435.202183
588.414816,4663.297435,13249.686362,-7431.126331
588.415136,3182.885551,11843.295072,-5439.278036
588.415457,7476.080014,11399.171507,-2298.286494
588.415777,6661.853478,10288.862594,-842.705048
588.416098,592.164754,5181.441594,-2834.553343
588.416418,2220.617826,4589.276840,-7737.564530
588.416739,3775.050304,7254.018232,-10418.898773
588.417059,1924.535449,7920.203579,-7354.516781
588.417379,5773.606348,8142.265362,-3447.429741
588.417700,8512.368333,9474.636058,-3600.648841
588.418020,4885.359217,9992.780217,-2298.286494
588.418341,3923.091493,8512.368333,-1991.848295
588.418661,6217.729913,7698.141797,-4596.572988
588.418982,3701.029710,6291.750507,-4213.525239
588.419302,4737.318029,6217.729913,-2374.896044
588.419623,6217.729913,6217.729913,-5592.497135
588.419943,5107.421000,6513.812290,-6741.640382
588.420264,4959.379811,7550.100608,-5669.106685
588.420584,6883.915261,8216.285956,-7660.954980
588.420904,5181.441594,6291.750507,-7584.345430
588.421225,2960.823768,6365.771101,-4979.620737
588.421545,5551.544565,7994.224174,-3447.429741
588.421866,5847.626942,8438.347739,-3753.867940
588.422186,6513.812290,8660.409521,-4290.134789
588.422507,6809.894666,8660.409521,-6818.249932
588.422827,5033.400406,7846.182985,-8733.488677
588.423148,4145.153275,6587.832884,-7354.516781
588.423468,4515.256246,4589.276840,-5515.887586
588.423789,4441.235652,4293.194464,-3830.477490
588.424109,4145.153275,4737.318029,-3064.381992
588.424429,4071.132681,7402.059420,-5898.935335
588.424750,4145.153275,9844.739029,-7890.783629
588.425070,4219.173869,10881.027347,-5975.544884
588.425391,6587.832884,10955.047942,-3753.867940
588.425711,6513.812290,10214.842000,-3830.477490
588.426032,4219.173869,8290.306550,-3370.820191
588.426352,3701.029710,7698.141797,-4060.306139
588.426673,2516.700203,7550.100608,-6281.983084
588.426993,2886.803174,8808.450710,-6205.373534
588.427314,3552.988522,8660.409521,-5286.058936
588.427634,3701.029710,8438.347739,-6358.592633
588.427955,3775.050304,8956.491898,-3983.696590
588.428275,5329.482782,11177.109724,-1762.019645
588.428595,4367.215058,10288.862594,-5209.449386
588.428916,4515.256246,9548.656652,-7354.516781
588.429236,5625.565159,9030.512492,-6511.811733
588.429557,7772.162391,9104.533087,-4519.963438
588.429877,7772.162391,9548.656652,-3370.820191
588.430198,5773.606348,9178.553681,-4060.306139
588.430518,5107.421000,8068.244768,-7201.297681
588.430839,8882.471304,10288.862594,-6358.592633
588.431159,6513.812290,9400.615463,-4519.963438
588.431480,4589.276840,6365.771101,-4826.401637
588.431800,7179.997637,4293.194464,-4596.572988
588.432120,6439.791695,4441.235652,-4673.182538
588.432441,3775.050304,5625.565159,-5592.497135
588.432761,5995.668130,7994.224174,-7354.516781
588.433082,6365.771101,10288.862594,-9806.022374
588.433402,5033.400406,9548.656652,-8044.002729
588.433723,6217.729913,8142.265362,-4213.525239
588.434043,5995.668130,7179.997637,-3140.991542
588.434364,2368.659014,6809.894666,-4826.401637
588.434684,1554.432478,6809.894666,-6128.763984
588.435005,2294.638420,6809.894666,-8273.831378
588.435325,2368.659014,6735.874072,-6588.421283
588.435646,4737.318029,7105.977043,-5209.449386
588.435966,5107.421000,7105.977043,-4979.620737
588.436286,3552.988522,7179.997637,-5592.497135
588.436607,2886.803174,7994.224174,-4903.011187
588.436927,4071.132681,7105.977043,-6128.763984
588.437248,5403.503377,5773.606348,-6052.154434
588.437568,5477.523971,5921.647536,-4903.011187
588.437889,5329.482782,7476.080014,-5439.278036
588.438209,5477.523971,9696.697840,-6665.030833
588.438530,5847.626942,9622.677246,-7737.564530
588.438850,7105.977043,8512.368333,-7737.564530
588.439171,6143.709319,6143.709319,-6894.859482
588.439491,5329.482782,6217.729913,-5975.544884
588.439811,5329.482782,8660.409521,-5439.278036
588.440132,6661.853478,10584.944971,-5286.058936
588.440452,6809.894666,10066.800811,-5669.106685
588.440773,7254.018232,9030.512492,-5209.449386
588.441093,7476.080014,8882.471304,-4903.011187
588.441414,5477.523971,9252.574275,-4290.134789
588.441734,3330.926739,8660.409521,-3983.696590
588.442055,4885.359217,7624.121203,-4213.525239
588.442375,5033.400406,6439.791695,-4903.011187
588.442696,4441.235652,7105.977043,-5056.230287
588.443016,4145.153275,8808.450710,-6435.202183
588.443336,3997.112087,10955.047942,-6435.202183
588.443657,4737.318029,10955.047942,-5822.325785
588.443977,5551.544565,10066.800811,-5669.106685
588.444298,6217.729913,10214.842000,-5822.325785
588.444618,5625.565159,10732.986159,-4903.011187
588.444939,4219.173869,9770.718434,-5286.058936
588.445259,3552.988522,7846.182985,-5056.230287
588.445580,5107.421000,6513.812290,-5209.449386
