#time,accel_x,accel_y,accel_z
143.765677,4885.359217,7994.224174,-76.609550
143.765998,5033.400406,7920.203579,-459.657299
143.766319,5255.462188,7624.121203,-76.609550
143.766640,4885.359217,7994.224174,229.828649
143.766961,4885.359217,8586.388927,-229.828649
143.767282,4737.318029,7994.224174,0.000000
143.767603,4811.338623,7994.224174,-153.219100
143.767924,4959.379811,7920.203579,0.000000
143.768245,4737.318029,7994.224174,-76.609550
143.768566,4959.379811,7920.203579,-229.828649
143.768887,4959.379811,8068.244768,0.000000
143.769208,4811.338623,7772.162391,-306.438199
143.769529,4811.338623,8142.265362,-153.219100
143.769850,4885.359217,7920.203579,-153.219100
143.770171,4959.379811,8142.265362,-229.828649
143.770492,4885.359217,8216.285956,-536.266849
143.770813,5107.421000,7920.203579,-306.438199
143.771134,4885.359217,8068.244768,0.000000
143.771455,5255.462188,8364.327145,-76.609550
143.771776,4885.359217,8216.285956,-306.438199
143.772097,5033.400406,7920.203579,0.000000
143.772417,4959.379811,7994.224174,-536.266849
143.772738,5255.462188,8290.306550,-383.047749
143.773059,5181.441594,8142.265362,-153.219100
143.773380,5107.421000,8068.244768,-229.828649
143.773701,4885.359217,8142.265362,0.000000
143.774022,4885.359217,8142.265362,0.000000
143.774343,4959.379811,8068.244768,0.000000
143.774664,4811.338623,8290.306550,-306.438199
143.774985,5107.421000,7994.224174,0.000000
143.775306,5033.400406,7920.203579,0.000000
143.775627,4811.338623,7550.100608,-459.657299
143.775948,4663.297435,7254.018232,-689.485948
143.776269,4367.215058,7476.080014,-229.828649
143.776590,4663.297435,8882.471304,-459.657299
143.776911,4441.235652,9696.697840,-995.924147
143.777232,4589.276840,10362.883188,-1378.971896
143.777553,4737.318029,9622.677246,-995.924147
143.777874,4145.153275,9400.615463,-536.266849
143.778195,3182.885551,8586.388927,536.266849
143.778516,2960.823768,8882.471304,1149.143247
143.778837,2738.761985,9104.533087,459.657299
143.779158,2368.659014,8882.471304,0.000000
143.779479,2368.659014,8586.388927,-536.266849
143.779800,3478.967927,9030.512492,-383.047749
143.780121,3404.947333,9548.656652,0.000000
143.780442,2812.782580,9252.574275,459.657299
143.780763,2368.659014,8660.409521,459.657299
143.781084,3034.844362,8882.471304,229.828649
143.781405,2072.576638,9622.677246,-306.438199
143.781726,1924.535449,11103.089130,-1455.581446
143.782047,2220.617826,11843.295072,-1072.533697
143.782367,1998.556043,11843.295072,-1072.533697
143.782688,888.247130,11325.150913,-1225.752797
143.783009,222.061783,11029.068536,-1762.019645
143.783330,-740.205942,11473.192101,-1302.362347
143.783651,-1776.494261,12361.439231,-306.438199
143.783972,-1332.370696,12139.377449,383.047749
143.784293,-814.226536,11917.315666,995.924147
143.784614,-1184.329507,11769.274478,995.924147
143.784935,-1776.494261,12361.439231,1532.190996
143.785256,-2294.638420,12435.459826,1685.410096
143.785577,-2960.823768,11325.150913,0.000000
143.785898,-1776.494261,10066.800811,-612.876398
143.786219,-814.226536,9770.718434,0.000000
143.786540,-962.267725,10436.903782,995.924147
143.786861,-518.144159,10510.924376,919.314598
143.787182,222.061783,10881.027347,-306.438199
143.787503,962.267725,11621.233289,-1762.019645
143.787824,1480.411884,10955.047942,-1532.190996
143.788145,2220.617826,10658.965565,-612.876398
143.788466,2886.803174,11029.068536,306.438199
143.788787,2738.761985,10955.047942,-612.876398
143.789108,1776.494261,9992.780217,-1838.629195
143.789429,1776.494261,9178.553681,-2451.505594
143.789750,1480.411884,9474.636058,-1149.143247
143.790071,1850.514855,10362.883188,-306.438199
143.790392,1480.411884,10732.986159,-459.657299
143.790713,1850.514855,11473.192101,-766.095498
143.791034,666.185348,11547.212695,0.000000
143.791355,0.000000,11325.150913,919.314598
143.791676,-518.144159,10436.903782,689.485948
143.791997,-592.164754,9992.780217,459.657299
143.792318,-148.041188,9696.697840,995.924147
143.792638,-814.226536,10584.944971,1149.143247
143.792959,-592.164754,10658.965565,1072.533697
143.793280,74.020594,11547.212695,1072.533697
143.793601,888.247130,11769.274478,1149.143247
143.793922,444.123565,11769.274478,459.657299
143.794243,962.267725,10955.047942,-153.219100
143.794564,1332.370696,10288.862594,-919.314598
143.794885,2294.638420,9696.697840,-383.047749
143.795206,1924.535449,9178.553681,76.609550
143.795527,1998.556043,7994.224174,229.828649
143.795848,2590.720797,8734.430116,-229.828649
143.796169,2738.761985,9548.656652,-536.266849
143.796490,2664.741391,10510.924376,-459.657299
143.796811,3108.864956,10510.924376,-612.876398
143.797132,3775.050304,10510.924376,-995.924147
143.797453,3775.050304,9770.718434,-1072.533697
143.797774,3108.864956,8956.491898,-766.095498
143.798095,2960.823768,9178.553681,-536.266849
143.798416,2220.617826,9918.759623,-766.095498
143.798737,1406.391290,11177.109724,-612.876398
143.799058,1554.432478,11251.130318,-995.924147
143.799379,1406.391290,11029.068536,-1532.190996
143.799700,148.041188,9992.780217,-1685.410096
143.800021,-814.226536,9104.533087,-842.705048
143.800342,-1628.453072,8734.430116,-459.657299
143.800663,-1554.432478,8882.471304,536.266849
143.800984,-888.247130,10732.986159,1378.971896
143.801305,0.000000,13249.686362,1532.190996
143.801626,0.000000,14730.098246,1149.143247
143.801947,740.205942,14434.015869,229.828649
143.802268,814.226536,13545.768739,-689.485948
143.802588,222.061783,11029.068536,0.000000
143.802909,518.144159,9326.594869,383.047749
143.803230,-444.123565,9252.574275,0.000000
143.803551,-1184.329507,9696.697840,-995.924147
143.803872,-2072.576638,9622.677246,-1532.190996
143.804193,-1258.350101,10436.903782,-1532.190996
143.804514,-518.144159,11695.253884,-536.266849
143.804835,962.267725,12583.501014,383.047749
143.805156,444.123565,13101.645173,0.000000
143.805477,1258.350101,13323.706956,-689.485948
143.805798,814.226536,13915.871710,-229.828649
143.806119,1110.308913,12731.542202,-459.657299
143.806440,1480.411884,10658.965565,-995.924147
143.806761,1406.391290,8586.388927,-995.924147
143.807082,1258.350101,8290.306550,-536.266849
143.807403,1110.308913,9548.656652,612.876398
143.807724,0.000000,10362.883188,1149.143247
143.808045,0.000000,10214.842000,536.266849
143.808366,0.000000,9252.574275,459.657299
143.808687,296.082377,9326.594869,229.828649
143.809008,666.185348,9844.739029,153.219100
143.809329,962.267725,11695.253884,-229.828649
143.809650,518.144159,13027.624579,-766.095498
143.809971,518.144159,13101.645173,-995.924147
143.810292,666.185348,12287.418637,-1072.533697
143.810613,518.144159,12287.418637,-766.095498
143.810934,74.020594,11843.295072,-76.609550
143.811255,0.000000,11621.233289,-306.438199
143.811576,222.061783,10807.006753,995.924147
143.811897,0.000000,10362.883188,2221.676944
143.812218,-518.144159,9178.553681,1991.848295
143.812539,-962.267725,7920.203579,1455.581446
143.812859,-1480.411884,7476.080014,842.705048
143.813180,0.000000,7920.203579,0.000000
143.813501,1332.370696,9030.512492,-766.095498
143.813822,2220.617826,11029.068536,-612.876398
143.814143,3330.926739,13619.789333,-1302.362347
143.814464,3404.947333,14063.912898,-1685.410096
143.814785,1480.411884,10362.883188,-2221.676944
143.815106,2072.576638,6957.935855,-1991.848295
143.815427,3182.885551,6735.874072,1072.533697
143.815748,3034.844362,10140.821405,2298.286494
143.816069,1332.370696,12879.583391,-229.828649
143.816390,1184.329507,12953.603985,-4213.525239
143.816711,1628.453072,11251.130318,-4519.963438
143.817032,370.102971,8956.491898,-1455.581446
143.817353,-518.144159,7328.038826,76.609550
143.817674,-666.185348,8660.409521,-76.609550
143.817995,0.000000,12583.501014,536.266849
143.818316,-518.144159,14211.954086,1532.190996
143.818637,-518.144159,13175.665768,995.924147
143.818958,-296.082377,12435.459826,612.876398
143.819279,592.164754,12805.562797,1915.238745
143.819600,-444.123565,11399.171507,2374.896044
143.819921,592.164754,8142.265362,383.047749
143.820242,2442.679609,7105.977043,-306.438199
143.820563,2516.700203,7476.080014,0.000000
143.820884,1480.411884,7994.224174,-306.438199
143.821205,2812.782580,7994.224174,0.000000
143.821526,5403.503377,8438.347739,0.000000
143.821847,7846.182985,9474.636058,919.314598
143.822168,8068.244768,9770.718434,0.000000
143.822489,7994.224174,9992.780217,-1762.019645
143.822809,7105.977043,10362.883188,-2451.505594
143.823130,5551.544565,8512.368333,-3294.210641
143.823451,5773.606348,6365.771101,-2911.162892
143.823772,5847.626942,5403.503377,-1762.019645
143.824093,3923.091493,8216.285956,-383.047749
143.824414,4441.235652,11399.171507,1149.143247
143.824735,3849.070898,11325.150913,1072.533697
143.825056,2812.782580,9622.677246,0.000000
143.825377,2368.659014,7624.121203,1225.752797
143.825698,2516.700203,7031.956449,2528.115143
143.826018,1628.453072,7254.018232,2221.676944
143.826339,1850.514855,7920.203579,536.266849
143.826660,4145.153275,7698.141797,-459.657299
143.826981,6661.853478,7994.224174,612.876398
143.827302,4219.173869,8586.388927,1608.800546
143.827623,3478.967927,8882.471304,1762.019645
143.827943,4737.318029,9548.656652,1455.581446
143.828264,5847.626942,8364.327145,76.609550
143.828585,5773.606348,5847.626942,-1149.143247
143.828906,8734.430116,4219.173869,-842.705048
143.829227,8142.265362,4811.338623,76.609550
143.829548,5995.668130,4959.379811,0.000000
143.829868,7772.162391,5329.482782,-76.609550
143.830189,9030.512492,7328.038826,-1608.800546
143.830510,8956.491898,8586.388927,-2298.286494
143.830831,9326.594869,9400.615463,-2068.457845
143.831152,8438.347739,8882.471304,-2681.334243
143.831473,5255.462188,7846.182985,-1991.848295
143.831793,4737.318029,6661.853478,76.609550
143.832114,4367.215058,7254.018232,-919.314598
143.832435,2590.720797,7772.162391,-383.047749
143.832756,1554.432478,9104.533087,-383.047749
143.833077,1776.494261,9992.780217,-766.095498
143.833398,888.247130,9918.759623,612.876398
143.833718,1850.514855,9844.739029,2681.334243
143.834039,2368.659014,9992.780217,2757.943793
143.834360,1998.556043,10436.903782,1762.019645
143.834681,1998.556043,11103.089130,1378.971896
143.835002,1850.514855,10881.027347,0.000000
143.835323,2442.679609,8956.491898,76.609550
143.835643,3997.112087,8142.265362,1378.971896
143.835964,4441.235652,7624.121203,612.876398
143.836285,4441.235652,8216.285956,-842.705048
143.836606,4589.276840,8734.430116,-995.924147
143.836927,4367.215058,8216.285956,-2145.067394
143.837248,5551.544565,6661.853478,-536.266849
143.837568,7994.224174,7031.956449,612.876398
143.837889,8882.471304,7994.224174,-459.657299
143.838210,8290.306550,8882.471304,-2451.505594
143.838531,7624.121203,9400.615463,-3447.429741
143.838852,7328.038826,8586.388927,-3294.210641
143.839173,6365.771101,7105.977043,-1072.533697
143.839493,7105.977043,7031.956449,0.000000
143.839814,7624.121203,7846.182985,-995.924147
143.840135,5477.523971,8364.327145,-1608.800546
143.840456,4663.297435,7994.224174,-1608.800546
143.840777,4515.256246,6513.812290,-689.485948
143.841098,3997.112087,4589.276840,1302.362347
143.841418,4293.194464,6069.688724,3140.991542
143.841739,4663.297435,8216.285956,1455.581446
143.842060,4589.276840,11177.109724,-229.828649
143.842381,4959.379811,12657.521608,-153.219100
143.842702,4071.132681,9474.636058,0.000000
143.843023,4441.235652,5847.626942,1455.581446
143.843343,4441.235652,5551.544565,2834.553343
143.843664,3997.112087,7105.977043,995.924147
143.843985,4145.153275,9474.636058,-766.095498
143.844306,3849.070898,10288.862594,-2145.067394
143.844627,3849.070898,8808.450710,-1455.581446
143.844948,5625.565159,7550.100608,1455.581446
143.845268,6143.709319,7254.018232,2068.457845
143.845589,5551.544565,8512.368333,229.828649
143.845910,5033.400406,9326.594869,-612.876398
143.846231,5255.462188,9178.553681,-1225.752797
143.846552,5255.462188,7031.956449,-612.876398
143.846873,6217.729913,6365.771101,612.876398
143.847193,6661.853478,7624.121203,76.609550
143.847514,5033.400406,8734.430116,-1455.581446
143.847835,5329.482782,9104.533087,-1838.629195
143.848156,5773.606348,8068.244768,-612.876398
143.848477,5181.441594,6365.771101,306.438199
143.848798,4811.338623,6143.709319,2068.457845
143.849118,4293.194464,8290.306550,2145.067394
143.849439,3701.029710,9030.512492,0.000000
143.849760,5921.647536,8882.471304,383.047749
143.850081,6143.709319,8808.450710,229.828649
143.850402,3404.947333,7994.224174,536.266849
143.850723,2738.761985,7550.100608,1302.362347
143.851043,3923.091493,7846.182985,1302.362347
143.851364,4145.153275,7031.956449,536.266849
143.851685,4885.359217,6957.935855,919.314598
143.852006,4737.318029,6291.750507,0.000000
143.852327,3997.112087,6587.832884,-919.314598
143.852648,4367.215058,7402.059420,153.219100
143.852968,6439.791695,8586.388927,153.219100
143.853289,7105.977043,9030.512492,-536.266849
143.853610,7476.080014,10066.800811,-383.047749
143.853931,6439.791695,9770.718434,-1378.971896
143.854252,4885.359217,7254.018232,-1302.362347
143.854573,5181.441594,5847.626942,229.828649
143.854893,6587.832884,5773.606348,459.657299
143.855214,6217.729913,6513.812290,0.000000
143.855535,6291.750507,7698.141797,-1072.533697
143.855856,5477.523971,7698.141797,-2145.067394
143.856177,4589.276840,6735.874072,-1072.533697
143.856498,6143.709319,5921.647536,689.485948
143.856818,6883.915261,6809.894666,0.000000
143.857139,7105.977043,7846.182985,-766.095498
143.857460,6957.935855,9104.533087,-1608.800546
143.857781,6365.771101,8956.491898,-1532.190996
143.858102,5403.503377,7105.977043,-1072.533697
143.858422,5033.400406,6069.688724,76.609550
143.858743,5403.503377,7698.141797,459.657299
143.859064,6143.709319,9400.615463,0.000000
143.859385,5255.462188,9770.718434,-612.876398
143.859706,5551.544565,8438.347739,-1532.190996
143.860027,4589.276840,6143.709319,-1302.362347
143.860347,3849.070898,6439.791695,536.266849
143.860668,4737.318029,8142.265362,1149.143247
143.860989,5329.482782,9400.615463,0.000000
143.861310,6069.688724,10658.965565,-995.924147
143.861631,5625.565159,10881.027347,-1225.752797
143.861952,3552.988522,8290.306550,-919.314598
143.862272,4515.256246,7698.141797,536.266849
143.862593,5699.585753,8956.491898,1302.362347
143.862914,4737.318029,8956.491898,153.219100
143.863235,5773.606348,7994.224174,-842.705048
143.863556,5107.421000,7402.059420,-1608.800546
143.863877,4959.379811,7254.018232,-689.485948
143.864197,5625.565159,7698.141797,612.876398
143.864518,5847.626942,7550.100608,459.657299
143.864839,5699.585753,8290.306550,-536.266849
143.865160,6513.812290,9178.553681,0.000000
143.865481,5033.400406,7698.141797,0.000000
143.865802,5551.544565,6069.688724,-612.876398
143.866122,6587.832884,6587.832884,0.000000
143.866443,5921.647536,7402.059420,-1685.410096
143.866764,6069.688724,7994.224174,-1991.848295
143.867085,6513.812290,7772.162391,-842.705048
143.867406,5625.565159,6883.915261,0.000000
143.867727,5033.400406,5995.668130,919.314598
143.868047,4515.256246,6661.853478,306.438199
143.868368,3997.112087,8290.306550,-1532.190996
143.868689,4737.318029,9844.739029,-919.314598
143.869010,5403.503377,10288.862594,76.609550
143.869331,4589.276840,8734.430116,842.705048
143.869652,3478.967927,6587.832884,689.485948
143.869972,3627.009116,6735.874072,459.657299
143.870293,3478.967927,7476.080014,0.000000
143.870614,3552.988522,7772.162391,-153.219100
143.870935,4663.297435,7476.080014,-536.266849
143.871256,4737.318029,6587.832884,-306.438199
143.871577,4737.318029,7476.080014,766.095498
143.871897,4959.379811,8956.491898,1838.629195
143.872218,4441.235652,9548.656652,229.828649
143.872539,5625.565159,9770.718434,-612.876398
143.872860,5995.668130,9178.553681,-153.219100
143.873181,4737.318029,7698.141797,-306.438199
143.873502,4885.359217,7254.018232,459.657299
143.873822,5551.544565,7920.203579,919.314598
143.874143,5625.565159,8512.368333,-1149.143247
143.874464,5921.647536,8512.368333,-919.314598
143.874785,5107.421000,7402.059420,-689.485948
143.875106,4589.276840,6735.874072,536.266849
143.875427,5255.462188,6957.935855,2145.067394
143.875747,5477.523971,6809.894666,1302.362347
143.876068,5329.482782,7254.018232,-689.485948
143.876389,6069.688724,8808.450710,-842.705048
143.876710,6513.812290,10362.883188,-306.438199
143.877031,3923.091493,8438.347739,-459.657299
143.877352,5625.565159,6291.750507,153.219100
143.877672,6883.915261,5921.647536,842.705048
143.877993,5995.668130,5995.668130,306.438199
143.878314,6069.688724,7031.956449,-459.657299
143.878635,5551.544565,7328.038826,-1532.190996
143.878956,4737.318029,6291.750507,-995.924147
143.879277,6661.853478,6883.915261,536.266849
143.879597,6661.853478,5921.647536,689.485948
143.879918,6439.791695,7105.977043,-1302.362347
143.880239,6957.935855,9326.594869,-1149.143247
143.880560,5477.523971,9992.780217,-1532.190996
143.880881,4959.379811,8512.368333,-1072.533697
143.881202,5181.441594,6809.894666,229.828649
143.881522,6809.894666,7698.141797,306.438199
143.881843,6661.853478,9030.512492,-153.219100
143.882164,5255.462188,9474.636058,-1762.019645
143.882485,4293.194464,8512.368333,-2298.286494
143.882806,3404.947333,6957.935855,-766.095498
143.883127,3701.029710,6143.709319,2068.457845
143.883447,4515.256246,7328.038826,2298.286494
143.883768,3775.050304,9030.512492,-306.438199
143.884089,3701.029710,11621.233289,-1915.238745
143.884410,3701.029710,11843.295072,-2298.286494
143.884731,3182.885551,9474.636058,-612.876398
143.885052,3701.029710,8512.368333,2681.334243
143.885372,4589.276840,9696.697840,2451.505594
143.885693,3627.009116,10066.800811,-536.266849
143.886014,2590.720797,9844.739029,-2298.286494
143.886335,3182.885551,9104.533087,-1608.800546
143.886656,2738.761985,6291.750507,-306.438199
143.886977,3627.009116,5403.503377,1915.238745
143.887297,5181.441594,7550.100608,1838.629195
143.887618,5033.400406,9252.574275,-459.657299
143.887939,4663.297435,9696.697840,-1838.629195
143.888260,5329.482782,8660.409521,-1762.019645
143.888581,5403.503377,7994.224174,-459.657299
143.888902,6069.688724,7550.100608,1685.410096
143.889222,7846.182985,7846.182985,1149.143247
143.889543,7031.956449,8734.430116,-1532.190996
143.889864,6439.791695,7328.038826,-2757.943793
143.890185,5625.565159,6587.832884,-2451.505594
143.890506,4959.379811,5625.565159,-766.095498
143.890827,4589.276840,6143.709319,842.705048
143.891147,6735.874072,7105.977043,689.485948
143.891468,7031.956449,7994.224174,-229.828649
143.891789,5773.606348,8438.347739,-612.876398
143.892110,4737.318029,8438.347739,-766.095498
143.892431,3552.988522,8142.265362,-306.438199
143.892752,3923.091493,7105.977043,995.924147
143.893072,5255.462188,7402.059420,1762.019645
143.893393,5181.441594,7772.162391,0.000000
143.893714,4071.132681,8586.388927,-1302.362347
143.894035,2590.720797,9030.512492,-612.876398
143.894356,2072.576638,8364.327145,0.000000
143.894677,3256.906145,7105.977043,1915.238745
143.894997,5847.626942,7254.018232,2604.724693
143.895318,5773.606348,9400.615463,612.876398
143.895639,3404.947333,9918.759623,-536.266849
143.895960,2812.782580,9992.780217,-1532.190996
143.896281,3923.091493,8216.285956,-1378.971896
143.896602,4367.215058,6661.853478,612.876398
143.896922,5847.626942,7402.059420,1225.752797
143.897243,5699.585753,8956.491898,229.828649
143.897564,3775.050304,9548.656652,-1532.190996
143.897885,3997.112087,8586.388927,-1378.971896
143.898206,4737.318029,6735.874072,-1072.533697
143.898527,5107.421000,6217.729913,229.828649
143.898847,6809.894666,8512.368333,1225.752797
143.899168,5107.421000,10214.842000,-842.705048
143.899489,4589.276840,10288.862594,-2451.505594
143.899810,5033.400406,9104.533087,-1762.019645
143.900131,4515.256246,7105.977043,-842.705048
143.900452,4885.359217,7031.956449,229.828649
143.900772,5699.585753,9178.553681,153.219100
143.901093,4367.215058,9844.739029,-1762.019645
143.901414,4145.153275,9770.718434,-1915.238745
143.901735,4071.132681,8512.368333,-306.438199
143.902056,3256.906145,7105.977043,766.095498
143.902377,4293.194464,7031.956449,2681.334243
143.902697,4885.359217,9178.553681,2374.896044
143.903018,3775.050304,10362.883188,-995.924147
143.903339,4071.132681,9622.677246,-1608.800546
143.903660,4811.338623,8956.491898,-1302.362347
143.903981,4515.256246,7550.100608,306.438199
143.904302,5403.503377,7105.977043,2528.115143
143.904622,5551.544565,8586.388927,689.485948
143.904943,4145.153275,8882.471304,-1225.752797
143.905264,4219.173869,8364.327145,-995.924147
143.905585,5181.441594,7179.997637,-229.828649
143.905906,5477.523971,6143.709319,612.876398
143.906227,5847.626942,6661.853478,689.485948
143.906547,6809.894666,8438.347739,-612.876398
143.906868,5921.647536,8882.471304,-1762.019645
143.907189,5477.523971,9104.533087,-1685.410096
143.907510,5403.503377,7550.100608,-1072.533697
143.907831,5033.400406,6735.874072,-612.876398
143.908152,6069.688724,7031.956449,229.828649
143.908472,5847.626942,7772.162391,383.047749
143.908793,4589.276840,7846.182985,-1608.800546
143.909114,4515.256246,7994.224174,-1455.581446
143.909435,4145.153275,8142.265362,-153.219100
143.909756,3997.112087,7179.997637,536.266849
143.910077,4959.379811,7772.162391,1378.971896
143.910397,4959.379811,9030.512492,383.047749
143.910718,4737.318029,10214.842000,-306.438199
143.911039,3627.009116,9770.718434,76.609550
143.911360,2960.823768,8660.409521,-153.219100
143.911681,4145.153275,7624.121203,689.485948
143.912001,4367.215058,7772.162391,2221.676944
143.912322,3404.947333,8808.450710,1915.238745
143.912643,2812.782580,10288.862594,-306.438199
143.912964,2590.720797,10140.821405,0.000000
143.913285,2294.638420,8808.450710,0.000000
143.913606,3849.070898,7179.997637,1072.533697
143.913926,4145.153275,7846.182985,1072.533697
143.914247,4145.153275,9696.697840,0.000000
143.914568,3627.009116,10214.842000,229.828649
143.914889,3552.988522,9474.636058,-536.266849
143.915210,4293.194464,7846.182985,-536.266849
143.915531,5255.462188,7772.162391,383.047749
143.915851,4959.379811,7994.224174,0.000000
143.916172,4959.379811,8734.430116,-536.266849
143.916493,5181.441594,8586.388927,-995.924147
143.916814,5625.565159,7179.997637,-766.095498
143.917135,5921.647536,6513.812290,-612.876398
143.917456,5625.565159,6143.709319,459.657299
143.917776,5329.482782,7476.080014,306.438199
143.918097,5551.544565,9474.636058,-766.095498
143.918418,6291.750507,9548.656652,-1455.581446
143.918739,5477.523971,7402.059420,-612.876398
143.919060,5329.482782,5921.647536,76.609550
143.919381,5625.565159,6365.771101,919.314598
143.919701,4663.297435,7846.182985,229.828649
143.920022,5255.462188,8438.347739,-919.314598
143.920343,5403.503377,8882.471304,-1838.629195
143.920664,4293.194464,8216.285956,-1225.752797
143.920985,4737.318029,7105.977043,612.876398
143.921306,4737.318029,7254.018232,1302.362347
143.921626,5329.482782,8142.265362,689.485948
143.921947,5551.544565,9178.553681,153.219100
143.922268,5181.441594,8808.450710,-459.657299
143.922589,5847.626942,7698.141797,-995.924147
143.922910,6513.812290,6439.791695,306.438199
143.923231,6291.750507,6587.832884,689.485948
143.923551,6809.894666,7328.038826,0.000000
143.923872,7328.038826,7698.141797,-459.657299
143.924193,6439.791695,7402.059420,-1532.190996
143.924514,6661.853478,6587.832884,-1225.752797
143.924835,7179.997637,5995.668130,383.047749
143.925156,6439.791695,7179.997637,689.485948
143.925476,8660.409521,8586.388927,-536.266849
143.925797,8512.368333,9252.574275,-995.924147
143.926118,6513.812290,8216.285956,-1225.752797
143.926439,6587.832884,7031.956449,-766.095498
143.926760,5773.606348,7105.977043,995.924147
143.927081,4293.194464,6809.894666,76.609550
143.927401,5329.482782,8068.244768,-919.314598
143.927722,5329.482782,9104.533087,-383.047749
143.928043,4145.153275,9104.533087,-766.095498
143.928364,3404.947333,8290.306550,229.828649
143.928685,3108.864956,7624.121203,0.000000
143.929006,2812.782580,8808.450710,536.266849
143.929327,3701.029710,10214.842000,1378.971896
143.929647,3997.112087,10732.986159,229.828649
143.929968,3330.926739,10066.800811,-612.876398
143.930289,2886.803174,9252.574275,-612.876398
143.930610,1776.494261,8586.388927,0.000000
143.930931,2368.659014,7698.141797,383.047749
143.931252,3552.988522,8364.327145,536.266849
143.931573,4145.153275,9474.636058,-153.219100
143.931893,3701.029710,9548.656652,0.000000
143.932214,3627.009116,9178.553681,-306.438199
143.932535,3701.029710,7994.224174,0.000000
143.932856,5033.400406,8142.265362,306.438199
143.933177,7031.956449,8808.450710,1072.533697
143.933498,5329.482782,8882.471304,-383.047749
143.933819,4811.338623,8142.265362,-1302.362347
143.934139,4737.318029,7476.080014,-1072.533697
143.934460,4663.297435,6439.791695,306.438199
143.934781,5403.503377,7105.977043,766.095498
143.935102,5773.606348,7920.203579,76.609550
143.935423,5403.503377,8586.388927,-842.705048
143.935744,4811.338623,7920.203579,-689.485948
143.936065,4515.256246,6143.709319,0.000000
143.936385,4367.215058,5033.400406,459.657299
143.936706,7105.977043,6957.935855,1455.581446
143.937027,6661.853478,8290.306550,306.438199
143.937348,5033.400406,8142.265362,-1608.800546
143.937669,5329.482782,8364.327145,-1149.143247
143.937990,5107.421000,7994.224174,0.000000
143.938311,4219.173869,7328.038826,919.314598
143.938631,6513.812290,6661.853478,1225.752797
143.938952,6143.709319,6439.791695,-76.609550
143.939273,5625.565159,6957.935855,-689.485948
143.939594,5773.606348,8068.244768,0.000000
143.939915,4367.215058,7105.977043,-153.219100
143.940236,4811.338623,6143.709319,383.047749
143.940557,8068.244768,7476.080014,995.924147
143.940877,7550.100608,8660.409521,0.000000
143.941198,6143.709319,8660.409521,-1608.800546
143.941519,6291.750507,8734.430116,-1149.143247
143.941840,4737.318029,7179.997637,-229.828649
143.942161,5181.441594,6143.709319,1685.410096
143.942482,7550.100608,7031.956449,1378.971896
143.942803,6365.771101,8512.368333,-995.924147
143.943123,4293.194464,9178.553681,-1378.971896
143.943444,5181.441594,8142.265362,-153.219100
143.943765,5625.565159,6069.688724,0.000000
143.944086,6587.832884,5403.503377,1378.971896
143.944407,7698.141797,7328.038826,1532.190996
143.944728,5995.668130,9548.656652,-1302.362347
143.945049,4885.359217,9696.697840,-2757.943793
143.945369,6143.709319,8512.368333,-1762.019645
143.945690,5995.668130,6809.894666,-459.657299
143.946011,5625.565159,6291.750507,995.924147
143.946332,5329.482782,7846.182985,536.266849
143.946653,3775.050304,9474.636058,-2451.505594
143.946974,4145.153275,9622.677246,-1991.848295
143.947295,4737.318029,7994.224174,-153.219100
143.947615,4663.297435,6735.874072,689.485948
143.947936,4885.359217,7105.977043,1608.800546
143.948257,5107.421000,9400.615463,459.657299
143.948578,4589.276840,10510.924376,-1302.362347
143.948899,4663.297435,10214.842000,-995.924147
143.949220,5107.421000,8808.450710,-995.924147
143.949541,4071.132681,6957.935855,-229.828649
143.949861,4959.379811,7550.100608,919.314598
143.950182,4959.379811,8956.491898,842.705048
143.950503,3775.050304,8734.430116,-1378.971896
143.950824,3997.112087,8808.450710,-1532.190996
143.951145,4145.153275,8364.327145,-383.047749
143.951466,3997.112087,7624.121203,766.095498
143.951787,5551.544565,8512.368333,1455.581446
143.952107,5773.606348,8956.491898,842.705048
143.952428,5551.544565,9252.574275,-612.876398
143.952749,5329.482782,8734.430116,-459.657299
143.953070,5107.421000,7105.977043,459.657299
143.953391,4367.215058,6439.791695,-383.047749
143.953712,5551.544565,7105.977043,536.266849
143.954033,5625.565159,8142.265362,-153.219100
143.954354,4885.359217,8364.327145,-689.485948
143.954674,5329.482782,8068.244768,-995.924147
143.954995,5477.523971,6957.935855,-459.657299
143.955316,5033.400406,5995.668130,689.485948
143.955637,5847.626942,7031.956449,1149.143247
143.955958,6217.729913,8142.265362,229.828649
143.956279,6217.729913,8586.388927,-919.314598
143.956600,6809.894666,8882.471304,-306.438199
143.956920,5847.626942,7772.162391,-459.657299
143.957241,5255.462188,6069.688724,-229.828649
143.957562,5477.523971,5551.544565,76.609550
143.957883,5551.544565,6587.832884,76.609550
143.958204,5329.482782,7254.018232,459.657299
143.958525,6439.791695,7920.203579,612.876398
143.958846,6069.688724,7698.141797,-153.219100
143.959166,5033.400406,6069.688724,0.000000
143.959487,5551.544565,6513.812290,536.266849
143.959808,6513.812290,8734.430116,1149.143247
143.960129,5255.462188,9178.553681,-383.047749
143.960450,5477.523971,9178.553681,-1149.143247
143.960771,6143.709319,7328.038826,-1685.410096
143.961092,4071.132681,6143.709319,-1072.533697
143.961412,5033.400406,6957.935855,689.485948
143.961733,4885.359217,8586.388927,306.438199
143.962054,3923.091493,8438.347739,-842.705048
143.962375,5033.400406,8882.471304,-383.047749
143.962696,5033.400406,8216.285956,-842.705048
143.963017,3404.947333,7179.997637,-995.924147
143.963338,5403.503377,8364.327145,612.876398
143.963658,5551.544565,10584.944971,536.266849
143.963979,4811.338623,10807.006753,-919.314598
143.964300,4885.359217,9326.594869,-766.095498
143.964621,4441.235652,7920.203579,-1378.971896
143.964942,2516.700203,7476.080014,0.000000
143.965263,3108.864956,8734.430116,1302.362347
143.965584,4293.194464,9400.615463,-229.828649
143.965904,4367.215058,9030.512492,-1149.143247
143.966225,4959.379811,8882.471304,-229.828649
143.966546,4441.235652,8216.285956,0.000000
143.966867,2442.679609,7772.162391,766.095498
143.967188,4071.132681,8586.388927,766.095498
143.967509,5181.441594,9326.594869,0.000000
143.967830,5551.544565,9252.574275,-919.314598
143.968150,5477.523971,9548.656652,306.438199
143.968471,3923.091493,9548.656652,-1072.533697
143.968792,3404.947333,8956.491898,-1378.971896
143.969113,4589.276840,9104.533087,-383.047749
143.969434,5403.503377,7772.162391,-536.266849
143.969755,5773.606348,7179.997637,153.219100
143.970076,4441.235652,7328.038826,383.047749
143.970396,2886.803174,6957.935855,-689.485948
143.970717,3404.947333,7105.977043,-536.266849
143.971038,6439.791695,7772.162391,459.657299
143.971359,7698.141797,7994.224174,459.657299
143.971680,7550.100608,8364.327145,-612.876398
143.972001,6661.853478,8734.430116,-1608.800546
143.972322,4737.318029,7179.997637,-1762.019645
143.972642,4811.338623,5921.647536,-612.876398
143.972963,6735.874072,6513.812290,229.828649
143.973284,6957.935855,7328.038826,0.000000
143.973605,5329.482782,8290.306550,-612.876398
143.973926,4367.215058,9030.512492,-612.876398
143.974247,3478.967927,7402.059420,76.609550
143.974568,4293.194464,6365.771101,1302.362347
143.974888,6143.709319,7402.059420,1302.362347
143.975209,4959.379811,7698.141797,76.609550
143.975530,4367.215058,8956.491898,-229.828649
143.975851,3849.070898,9030.512492,76.609550
143.976172,3182.885551,7328.038826,76.609550
143.976493,3701.029710,7179.997637,459.657299
143.976814,5033.400406,8216.285956,306.438199
143.977134,4737.318029,9030.512492,-612.876398
143.977455,4293.194464,9178.553681,-842.705048
143.977776,2812.782580,8364.327145,-766.095498
143.978097,2516.700203,6809.894666,-766.095498
143.978418,4219.173869,7105.977043,1302.362347
143.978739,5699.585753,8216.285956,1915.238745
143.979060,5995.668130,9104.533087,-919.314598
143.979380,5847.626942,9474.636058,-1838.629195
143.979701,5329.482782,9030.512492,-1685.410096
143.980022,4589.276840,7254.018232,-766.095498
143.980343,5995.668130,6439.791695,1072.533697
143.980664,8586.388927,7105.977043,1455.581446
143.980985,7105.977043,7920.203579,0.000000
143.981306,4737.318029,7402.059420,-1455.581446
143.981626,4737.318029,7846.182985,-766.095498
143.981947,4367.215058,7772.162391,0.000000
143.982268,5403.503377,7772.162391,1072.533697
143.982589,7846.182985,8142.265362,766.095498
143.982910,6365.771101,8216.285956,-1225.752797
143.983231,3478.967927,8512.368333,-2221.676944
143.983552,3256.906145,8660.409521,-1378.971896
143.983872,2442.679609,8586.388927,536.266849
143.984193,3923.091493,8882.471304,1762.019645
143.984514,5329.482782,9992.780217,1302.362347
143.984835,3849.070898,10066.800811,-1378.971896
143.985156,1924.535449,9548.656652,-1762.019645
143.985477,1850.514855,8142.265362,383.047749
143.985798,2368.659014,7105.977043,612.876398
143.986119,4219.173869,7550.100608,1455.581446
143.986439,5477.523971,9474.636058,842.705048
143.986760,4367.215058,11473.192101,-1762.019645
143.987081,2886.803174,11547.212695,-1225.752797
143.987402,3997.112087,9326.594869,-153.219100
143.987723,4663.297435,7179.997637,0.000000
143.988044,5255.462188,5773.606348,459.657299
143.988365,6291.750507,7698.141797,-229.828649
143.988685,5033.400406,9548.656652,-995.924147
143.989006,3775.050304,9696.697840,-842.705048
143.989327,4441.235652,7550.100608,-383.047749
143.989648,5107.421000,5773.606348,383.047749
143.989969,6069.688724,7105.977043,1378.971896
143.990290,5847.626942,9696.697840,689.485948
143.990611,4441.235652,10066.800811,-1762.019645
143.990931,4959.379811,8364.327145,-1915.238745
143.991252,5255.462188,6513.812290,-612.876398
143.991573,5477.523971,5847.626942,1072.533697
143.991894,6143.709319,7105.977043,1455.581446
143.992215,4959.379811,8586.388927,0.000000
143.992536,3627.009116,8882.471304,-2145.067394
143.992857,4737.318029,8290.306550,-1225.752797
143.993177,4959.379811,6217.729913,383.047749
143.993498,5181.441594,5847.626942,1378.971896
143.993819,5551.544565,8216.285956,1149.143247
143.994140,5403.503377,9918.759623,-459.657299
143.994461,4293.194464,9548.656652,-2068.457845
143.994782,5329.482782,7550.100608,-995.924147
143.995103,5773.606348,6735.874072,153.219100
143.995423,4959.379811,6439.791695,1072.533697
143.995744,5625.565159,7550.100608,689.485948
143.996065,5033.400406,8512.368333,-1072.533697
143.996386,4811.338623,8068.244768,-1149.143247
143.996707,5847.626942,7624.121203,229.828649
143.997028,5255.462188,7179.997637,459.657299
143.997349,4589.276840,6661.853478,536.266849
143.997669,5847.626942,8512.368333,306.438199
143.997990,6291.750507,9474.636058,-536.266849
143.998311,4737.318029,9030.512492,-229.828649
143.998632,5403.503377,8216.285956,0.000000
143.998953,4737.318029,7402.059420,-306.438199
143.999274,3627.009116,7402.059420,229.828649
143.999595,4811.338623,8290.306550,612.876398
143.999915,4959.379811,8216.285956,-689.485948
144.000236,3997.112087,7179.997637,-995.924147
144.000557,4663.297435,7846.182985,536.266849
144.000878,4441.235652,7920.203579,842.705048
144.001199,3478.967927,7254.018232,459.657299
144.001520,5551.544565,8512.368333,306.438199
144.001841,6365.771101,9474.636058,-306.438199
144.002161,4959.379811,9548.656652,-995.924147
144.002482,5625.565159,9252.574275,-1455.581446
144.002803,5699.585753,7698.141797,-1532.190996
144.003124,4885.359217,7105.977043,-306.438199
144.003445,5403.503377,7698.141797,842.705048
144.003766,4811.338623,9548.656652,-612.876398
144.004087,3330.926739,9992.780217,-1149.143247
144.004407,2960.823768,9548.656652,-306.438199
144.004728,4811.338623,7105.977043,383.047749
144.005049,4663.297435,7105.977043,1455.581446
144.005370,4737.318029,8290.306550,919.314598
144.005691,4663.297435,8956.491898,-459.657299
144.006012,3923.091493,9548.656652,-689.485948
144.006333,4959.379811,9178.553681,919.314598
144.006653,5181.441594,8290.306550,459.657299
144.006974,4219.173869,7105.977043,-536.266849
144.007295,5255.462188,8216.285956,-919.314598
144.007616,4589.276840,9326.594869,-153.219100
144.007937,4219.173869,8734.430116,-536.266849
144.008258,4737.318029,7179.997637,0.000000
144.008579,4811.338623,5699.585753,0.000000
144.008899,4145.153275,6883.915261,1225.752797
144.009220,5181.441594,8734.430116,1455.581446
144.009541,6217.729913,9326.594869,-766.095498
144.009862,6217.729913,8142.265362,-2068.457845
144.010183,6661.853478,6883.915261,-1072.533697
144.010504,6513.812290,6735.874072,0.000000
144.010825,5625.565159,7476.080014,229.828649
144.011145,5699.585753,7624.121203,-229.828649
144.011466,6439.791695,7698.141797,-1991.848295
144.011787,5403.503377,6735.874072,-1302.362347
144.012108,5625.565159,5921.647536,612.876398
144.012429,4663.297435,6365.771101,536.266849
144.012750,4663.297435,7772.162391,383.047749
144.013071,5773.606348,9252.574275,153.219100
144.013391,5477.523971,9030.512492,-536.266849
144.013712,6069.688724,7550.100608,-689.485948
144.014033,5773.606348,7550.100608,306.438199
144.014354,4589.276840,7402.059420,229.828649
144.014675,4589.276840,8142.265362,0.000000
144.014996,5033.400406,9400.615463,-459.657299
144.015317,4737.318029,9474.636058,-1225.752797
144.015637,4589.276840,8438.347739,153.219100
144.015958,3923.091493,6957.935855,1378.971896
144.016279,3701.029710,6143.709319,1225.752797
144.016600,4441.235652,7402.059420,1225.752797
144.016921,5181.441594,8956.491898,76.609550
144.017242,5699.585753,9622.677246,-1455.581446
144.017563,5625.565159,9474.636058,-536.266849
144.017883,5551.544565,9252.574275,766.095498
144.018204,4811.338623,7624.121203,536.266849
144.018525,5033.400406,6883.915261,229.828649
144.018846,5255.462188,7920.203579,-689.485948
144.019167,4885.359217,8808.450710,-919.314598
144.019488,4441.235652,8512.368333,-689.485948
144.019809,4811.338623,7698.141797,-842.705048
144.020130,4441.235652,7550.100608,0.000000
144.020450,5255.462188,8216.285956,1149.143247
144.020771,5551.544565,9030.512492,229.828649
144.021092,4811.338623,8586.388927,-612.876398
144.021413,4959.379811,9178.553681,-459.657299
144.021734,4367.215058,8734.430116,-612.876398
144.022055,3478.967927,7402.059420,-612.876398
144.022376,4811.338623,7105.977043,842.705048
144.022696,5847.626942,8512.368333,229.828649
144.023017,4145.153275,8586.388927,-842.705048
144.023338,3404.947333,7328.038826,-1072.533697
144.023659,3108.864956,7031.956449,-612.876398
144.023980,4293.194464,7105.977043,1378.971896
144.024301,5773.606348,8068.244768,2374.896044
144.024622,6365.771101,9548.656652,766.095498
144.024942,6809.894666,10584.944971,-1378.971896
144.025263,5625.565159,9326.594869,-1225.752797
144.025584,4959.379811,6957.935855,0.000000
144.025905,5551.544565,5625.565159,1072.533697
144.026226,6365.771101,6513.812290,919.314598
144.026547,5995.668130,7105.977043,-766.095498
144.026868,6069.688724,6809.894666,-1991.848295
144.027188,6069.688724,7031.956449,-1455.581446
144.027509,5921.647536,6513.812290,-383.047749
144.027830,5699.585753,6957.935855,689.485948
144.028151,7254.018232,8364.327145,383.047749
144.028472,7920.203579,8956.491898,-229.828649
144.028792,7031.956449,8512.368333,-306.438199
144.029113,5625.565159,6439.791695,-1378.971896
144.029434,4737.318029,6365.771101,-919.314598
144.029755,5181.441594,7254.018232,229.828649
144.030076,5625.565159,7772.162391,0.000000
144.030396,6143.709319,8142.265362,-689.485948
144.030717,5625.565159,7550.100608,-1532.190996
144.031038,3404.947333,7920.203579,-536.266849
144.031359,2960.823768,7105.977043,689.485948
144.031680,4367.215058,7328.038826,995.924147
144.032000,5625.565159,8882.471304,459.657299
144.032321,5551.544565,9474.636058,-459.657299
144.032642,5255.462188,10288.862594,-1149.143247
144.032963,3997.112087,9326.594869,-995.924147
144.033284,2960.823768,7994.224174,383.047749
144.033604,4515.256246,6661.853478,919.314598
144.033925,4959.379811,7105.977043,0.000000
144.034246,4663.297435,9104.533087,-76.609550
144.034567,3701.029710,9622.677246,-383.047749
144.034888,3849.070898,9622.677246,-1072.533697
144.035208,4515.256246,7772.162391,-306.438199
144.035529,5255.462188,7105.977043,459.657299
144.035850,6883.915261,7698.141797,306.438199
144.036171,5847.626942,8956.491898,-76.609550
144.036492,4589.276840,9992.780217,-1378.971896
144.036812,4589.276840,9326.594869,-766.095498
144.037133,4959.379811,8142.265362,-306.438199
144.037454,4737.318029,7328.038826,306.438199
144.037775,5107.421000,8290.306550,229.828649
144.038096,4959.379811,9326.594869,-153.219100
144.038416,4071.132681,8882.471304,-689.485948
144.038737,3701.029710,8142.265362,0.000000
144.039058,3701.029710,6883.915261,0.000000
144.039379,4293.194464,7920.203579,919.314598
144.039700,4367.215058,8808.450710,919.314598
144.040020,4737.318029,9918.759623,-459.657299
144.040341,4811.338623,9326.594869,-995.924147
144.040662,4737.318029,8438.347739,0.000000
144.040983,4367.215058,7179.997637,383.047749
144.041304,4589.276840,7105.977043,995.924147
144.041624,5107.421000,7698.141797,536.266849
144.041945,4959.379811,8438.347739,-612.876398
144.042266,4737.318029,7920.203579,-766.095498
144.042587,4885.359217,7031.956449,0.000000
144.042908,5847.626942,6735.874072,689.485948
144.043228,5921.647536,6957.935855,1378.971896
144.043549,5921.647536,7179.997637,306.438199
144.043870,5773.606348,7920.203579,-1378.971896
144.044191,6291.750507,8068.244768,-1149.143247
144.044512,5921.647536,7624.121203,0.000000
144.044832,6291.750507,6809.894666,306.438199
144.045153,6069.688724,7179.997637,0.000000
144.045474,5551.544565,7105.977043,-536.266849
144.045795,4737.318029,6735.874072,-689.485948
144.046116,5329.482782,6957.935855,-612.876398
144.046436,5107.421000,5847.626942,-689.485948
144.046757,5403.503377,5995.668130,-459.657299
144.047078,6883.915261,7402.059420,-612.876398
144.047399,6513.812290,8734.430116,-1149.143247
144.047720,5921.647536,8734.430116,-995.924147
144.048040,6883.915261,9400.615463,0.000000
144.048361,5033.400406,8438.347739,0.000000
144.048682,4441.235652,7105.977043,-229.828649
144.049003,5921.647536,6513.812290,0.000000
144.049324,4959.379811,7698.141797,-689.485948
144.049644,4367.215058,8290.306550,-842.705048
144.049965,4515.256246,8956.491898,0.000000
144.050286,4071.132681,7476.080014,-1072.533697
144.050607,3923.091493,7179.997637,229.828649
144.050928,5181.441594,9178.553681,1149.143247
144.051248,4663.297435,9696.697840,-612.876398
144.051569,3849.070898,10881.027347,-995.924147
144.051890,5255.462188,11029.068536,153.219100
144.052211,4737.318029,10214.842000,0.000000
144.052532,3923.091493,8364.327145,842.705048
144.052852,4145.153275,7994.224174,0.000000
144.053173,3330.926739,9104.533087,-1149.143247
144.053494,3256.906145,9252.574275,-536.266849
144.053815,4663.297435,9178.553681,-919.314598
144.054136,3775.050304,7476.080014,-1072.533697
144.054456,4145.153275,7105.977043,306.438199
144.054777,5403.503377,9696.697840,1532.190996
144.055098,4441.235652,10881.027347,-229.828649
144.055419,4663.297435,9696.697840,-536.266849
144.055740,6365.771101,8882.471304,-612.876398
144.056060,5773.606348,8512.368333,0.000000
144.056381,4441.235652,8364.327145,0.000000
144.056702,4737.318029,8586.388927,-459.657299
144.057023,4811.338623,8734.430116,-1608.800546
144.057344,4811.338623,7476.080014,-1455.581446
144.057664,5551.544565,6291.750507,76.609550
144.057985,5033.400406,5477.523971,766.095498
144.058306,3923.091493,5847.626942,766.095498
144.058627,4885.359217,7772.162391,995.924147
144.058948,5551.544565,9030.512492,0.000000
144.059268,5847.626942,8586.388927,-383.047749
144.059589,5625.565159,7328.038826,229.828649
144.059910,5255.462188,6809.894666,536.266849
144.060231,4515.256246,7031.956449,689.485948
144.060552,4737.318029,7624.121203,-536.266849
144.060872,4737.318029,7772.162391,-1838.629195
144.061193,5477.523971,7476.080014,-1762.019645
144.061514,5181.441594,7920.203579,-306.438199
144.061835,3775.050304,7254.018232,689.485948
144.062156,3404.947333,6439.791695,766.095498
144.062476,5255.462188,7550.100608,459.657299
144.062797,5181.441594,8808.450710,-612.876398
144.063118,4737.318029,9104.533087,-612.876398
144.063439,5255.462188,8882.471304,-229.828649
144.063760,4737.318029,8512.368333,306.438199
144.064080,3701.029710,7994.224174,1455.581446
144.064401,4737.318029,8290.306550,536.266849
144.064722,4737.318029,8364.327145,-842.705048
144.065043,4441.235652,9474.636058,-536.266849
144.065364,4219.173869,8438.347739,0.000000
144.065684,3923.091493,7031.956449,0.000000
144.066005,3997.112087,6587.832884,1072.533697
144.066326,5255.462188,8586.388927,1149.143247
144.066647,5107.421000,9252.574275,-229.828649
144.066968,4441.235652,9030.512492,-1685.410096
144.067288,4589.276840,8438.347739,-1149.143247
144.067609,4589.276840,8068.244768,0.000000
144.067930,5107.421000,7994.224174,1149.143247
144.068251,5921.647536,8808.450710,306.438199
144.068572,5477.523971,9326.594869,-1532.190996
144.068892,5847.626942,9400.615463,-2145.067394
144.069213,5921.647536,7920.203579,-689.485948
144.069534,4737.318029,5551.544565,0.000000
144.069855,5033.400406,5181.441594,689.485948
144.070176,5847.626942,8216.285956,536.266849
144.070496,4811.338623,9474.636058,-1378.971896
144.070817,5033.400406,9622.677246,-2374.896044
144.071138,7105.977043,8808.450710,-1762.019645
144.071459,5329.482782,8068.244768,-383.047749
144.071780,4589.276840,7624.121203,766.095498
144.072100,5033.400406,8734.430116,1455.581446
144.072421,4737.318029,9030.512492,-229.828649
144.072742,3849.070898,8216.285956,0.000000
144.073063,4589.276840,8068.244768,0.000000
144.073384,3552.988522,7179.997637,-1072.533697
144.073704,4145.153275,8364.327145,-383.047749
144.074025,5551.544565,9178.553681,383.047749
144.074346,5477.523971,9474.636058,-612.876398
144.074667,5033.400406,8734.430116,-153.219100
144.074988,4367.215058,7402.059420,0.000000
144.075308,3108.864956,7402.059420,-612.876398
144.075629,4293.194464,9178.553681,0.000000
144.075950,5625.565159,10214.842000,-383.047749
144.076271,5107.421000,8734.430116,-1608.800546
144.076592,5995.668130,7254.018232,-689.485948
144.076912,5181.441594,7328.038826,76.609550
144.077233,3182.885551,7328.038826,0.000000
144.077554,4071.132681,7105.977043,842.705048
144.077875,5107.421000,7402.059420,-153.219100
144.078196,6069.688724,7994.224174,-153.219100
144.078516,6809.894666,9400.615463,612.876398
144.078837,5329.482782,9030.512492,0.000000
144.079158,4589.276840,7624.121203,-1532.190996
144.079479,4959.379811,7550.100608,-766.095498
144.079800,5847.626942,6513.812290,-536.266849
144.080120,5699.585753,6217.729913,229.828649
144.080441,5403.503377,7031.956449,153.219100
144.080762,4811.338623,7698.141797,-536.266849
144.081083,4367.215058,7846.182985,-842.705048
144.081404,5181.441594,8216.285956,229.828649
144.081724,6661.853478,8290.306550,-383.047749
144.082045,5551.544565,8438.347739,76.609550
144.082366,5403.503377,8808.450710,1072.533697
144.082687,4145.153275,8364.327145,766.095498
144.083008,3330.926739,7179.997637,0.000000
144.083328,4071.132681,7550.100608,-306.438199
144.083649,5329.482782,9178.553681,-229.828649
144.083970,4441.235652,9474.636058,0.000000
144.084291,3849.070898,9178.553681,0.000000
144.084612,3775.050304,7402.059420,0.000000
144.084932,3552.988522,6809.894666,919.314598
144.085253,4071.132681,7698.141797,1838.629195
144.085574,3849.070898,9104.533087,536.266849
144.085895,3330.926739,9548.656652,-1302.362347
144.086216,4737.318029,9400.615463,-1072.533697
144.086536,4811.338623,9104.533087,306.438199
144.086857,4737.318029,8512.368333,919.314598
144.087178,5033.400406,8068.244768,459.657299
144.087499,5403.503377,8216.285956,-919.314598
144.087820,4663.297435,7920.203579,-2374.896044
144.088140,4737.318029,7550.100608,0.000000
144.088461,4663.297435,6809.894666,306.438199
144.088782,4885.359217,7254.018232,229.828649
144.089103,5181.441594,9178.553681,995.924147
144.089424,4959.379811,8882.471304,-1149.143247
144.089744,5403.503377,8290.306550,-2145.067394
144.090065,6513.812290,8364.327145,-536.266849
144.090386,5403.503377,8290.306550,766.095498
144.090707,5625.565159,7105.977043,306.438199
144.091028,7105.977043,7550.100608,-459.657299
144.091348,6661.853478,9400.615463,-995.924147
144.091669,5255.462188,8882.471304,0.000000
144.091990,4737.318029,6957.935855,229.828649
144.092311,4737.318029,6587.832884,536.266849
144.092632,4515.256246,6587.832884,1532.190996
144.092952,5107.421000,7624.121203,1072.533697
144.093273,6217.729913,8290.306550,-1072.533697
144.093594,5181.441594,9252.574275,-1838.629195
144.093915,5403.503377,9696.697840,0.000000
144.094236,5329.482782,7994.224174,1302.362347
144.094556,5625.565159,6439.791695,1072.533697
144.094877,5995.668130,7031.956449,612.876398
144.095198,5847.626942,8808.450710,-612.876398
144.095519,5033.400406,8290.306550,-2451.505594
144.095840,5625.565159,7105.977043,-1378.971896
144.096160,6513.812290,6291.750507,76.609550
144.096481,5995.668130,6291.750507,919.314598
144.096802,5329.482782,7179.997637,306.438199
144.097123,4737.318029,8142.265362,-1225.752797
144.097444,4663.297435,9104.533087,-2145.067394
144.097764,5921.647536,8586.388927,-306.438199
144.098085,6587.832884,8142.265362,0.000000
144.098406,6143.709319,6957.935855,-459.657299
144.098727,5921.647536,7698.141797,0.000000
144.099048,4959.379811,8956.491898,-1225.752797
144.099368,3256.906145,8734.430116,-1608.800546
144.099689,3775.050304,8216.285956,-536.266849
144.100010,4219.173869,7105.977043,612.876398
144.100331,3849.070898,7994.224174,995.924147
144.100652,5107.421000,10140.821405,1149.143247
144.100972,3775.050304,10584.944971,-1072.533697
144.101293,2442.679609,9548.656652,-1838.629195
144.101614,4219.173869,8142.265362,536.266849
144.101935,4811.338623,7698.141797,1915.238745
144.102256,4145.153275,7772.162391,1838.629195
144.102576,4885.359217,8956.491898,0.000000
144.102897,4737.318029,9770.718434,-2221.676944
144.103218,4589.276840,9844.739029,-1762.019645
144.103539,5181.441594,8586.388927,459.657299
144.103860,5403.503377,6143.709319,612.876398
144.104180,5551.544565,5921.647536,1302.362347
144.104501,5033.400406,8438.347739,459.657299
144.104822,4515.256246,9474.636058,-1378.971896
144.105143,5477.523971,9104.533087,-1838.629195
144.105464,6587.832884,8364.327145,-383.047749
144.105784,6365.771101,7105.977043,842.705048
144.106105,5995.668130,6735.874072,919.314598
144.106426,5551.544565,7179.997637,-229.828649
144.106747,4811.338623,7550.100608,-2068.457845
144.107068,5255.462188,7105.977043,-1608.800546
144.107388,5625.565159,7328.038826,-306.438199
144.107709,5107.421000,6291.750507,0.000000
144.108030,5033.400406,6809.894666,459.657299
144.108351,5995.668130,8660.409521,153.219100
144.108672,5033.400406,9400.615463,-995.924147
144.108992,5033.400406,8808.450710,-842.705048
144.109313,5995.668130,7772.162391,-229.828649
144.109634,6365.771101,6513.812290,612.876398
144.109955,5921.647536,6217.729913,1072.533697
144.110276,5329.482782,7254.018232,612.876398
144.110596,5329.482782,8438.347739,0.000000
144.110917,4589.276840,7772.162391,-306.438199
144.111238,5255.462188,6217.729913,-536.266849
144.111559,6291.750507,5699.585753,-229.828649
144.111880,5625.565159,6587.832884,0.000000
144.112200,6143.709319,8290.306550,-689.485948
144.112521,5625.565159,9474.636058,-1762.019645
144.112842,5625.565159,9474.636058,-1608.800546
144.113163,6365.771101,8956.491898,153.219100
144.113484,5181.441594,8068.244768,306.438199
144.113804,4219.173869,7772.162391,-153.219100
144.114125,4441.235652,9548.656652,-306.438199
144.114446,3849.070898,9474.636058,-612.876398
144.114767,4071.132681,8808.450710,-536.266849
144.115088,4589.276840,6883.915261,842.705048
144.115408,3849.070898,6809.894666,536.266849
144.115729,3701.029710,8438.347739,842.705048
144.116050,3849.070898,9622.677246,229.828649
144.116371,4737.318029,9844.739029,-612.876398
144.116692,4811.338623,8586.388927,0.000000
144.117012,5403.503377,7550.100608,1302.362347
144.117333,5033.400406,7772.162391,459.657299
144.117654,4219.173869,8660.409521,-612.876398
144.117975,5995.668130,9770.718434,-1378.971896
144.118296,5699.585753,8808.450710,-1608.800546
144.118616,6069.688724,7402.059420,-766.095498
144.118937,6365.771101,7031.956449,995.924147
144.119258,4737.318029,7105.977043,766.095498
144.119579,4663.297435,7920.203579,-612.876398
144.119900,5033.400406,8660.409521,-689.485948
144.120220,5403.503377,8290.306550,-1149.143247
144.120541,6365.771101,7994.224174,76.609550
144.120862,5551.544565,7105.977043,229.828649
144.121183,3701.029710,7179.997637,-766.095498
144.121504,4441.235652,8586.388927,76.609550
144.121824,3775.050304,8512.368333,-229.828649
144.122145,4219.173869,7846.182985,-995.924147
144.122466,5107.421000,7772.162391,0.000000
144.122787,4145.153275,8068.244768,306.438199
144.123108,3923.091493,7550.100608,0.000000
144.123428,4589.276840,7179.997637,229.828649
144.123749,4589.276840,7624.121203,0.000000
144.124070,5255.462188,8068.244768,612.876398
144.124391,5477.523971,7772.162391,0.000000
144.124712,5033.400406,7550.100608,-383.047749
144.125032,6069.688724,7254.018232,-536.266849
144.125353,5995.668130,7179.997637,-612.876398
144.125674,6069.688724,7179.997637,-1072.533697
144.125995,6735.874072,7402.059420,-76.609550
144.126316,6513.812290,7550.100608,153.219100
144.126636,5477.523971,6587.832884,-842.705048
144.126957,5477.523971,7254.018232,-919.314598
144.127278,6143.709319,8512.368333,-1225.752797
144.127599,6217.729913,10214.842000,-1838.629195
144.127919,6291.750507,9548.656652,-383.047749
144.128240,5921.647536,7698.141797,-76.609550
144.128561,4959.379811,7105.977043,-383.047749
144.128881,4145.153275,7179.997637,153.219100
144.129202,3923.091493,8660.409521,-536.266849
144.129523,4071.132681,9178.553681,-1149.143247
144.129843,5255.462188,8882.471304,-536.266849
144.130164,4959.379811,7698.141797,0.000000
144.130485,3997.112087,7476.080014,842.705048
144.130805,4071.132681,9030.512492,383.047749
144.131126,3627.009116,10214.842000,-306.438199
144.131447,4145.153275,10214.842000,-1532.190996
144.131767,5551.544565,8882.471304,-995.924147
144.132088,5477.523971,8586.388927,76.609550
144.132409,3627.009116,9104.533087,1838.629195
144.132729,3256.906145,9696.697840,766.095498
144.133050,3552.988522,9474.636058,-612.876398
144.133371,4145.153275,8142.265362,-1455.581446
144.133691,5181.441594,7254.018232,0.000000
144.134012,5329.482782,7179.997637,919.314598
144.134333,4293.194464,7105.977043,842.705048
144.134653,4663.297435,7402.059420,0.000000
144.134974,5995.668130,8364.327145,-995.924147
144.135295,5625.565159,8956.491898,-1302.362347
144.135615,5255.462188,8216.285956,-1302.362347
144.135936,5033.400406,7698.141797,-689.485948
144.136257,5107.421000,7105.977043,0.000000
144.136577,5477.523971,7402.059420,0.000000
144.136898,5773.606348,7920.203579,-1225.752797
144.137219,5477.523971,8290.306550,-2068.457845
144.137539,5255.462188,8808.450710,-995.924147
144.137860,4959.379811,8364.327145,229.828649
144.138181,4959.379811,7402.059420,1378.971896
144.138501,5625.565159,6809.894666,1225.752797
144.138822,5107.421000,7624.121203,153.219100
144.139143,4589.276840,8808.450710,0.000000
144.139463,4293.194464,8808.450710,229.828649
144.139784,4145.153275,7476.080014,0.000000
144.140105,4367.215058,7105.977043,383.047749
144.140425,4589.276840,8216.285956,1149.143247
144.140746,3997.112087,8956.491898,842.705048
144.141067,4293.194464,9030.512492,-229.828649
144.141387,4589.276840,8586.388927,-153.219100
144.141708,3997.112087,7698.141797,536.266849
144.142029,4811.338623,7328.038826,1072.533697
144.142349,5773.606348,7624.121203,536.266849
144.142670,6217.729913,8512.368333,-306.438199
144.142991,5551.544565,9400.615463,-919.314598
144.143311,5847.626942,8956.491898,-766.095498
144.143632,5551.544565,6735.874072,0.000000
144.143953,4885.359217,5995.668130,1225.752797
144.144273,5773.606348,6661.853478,1302.362347
144.144594,5477.523971,7328.038826,-153.219100
144.144915,4515.256246,7846.182985,-1455.581446
144.145235,6143.709319,7920.203579,-689.485948
144.145556,6291.750507,6957.935855,0.000000
144.145877,5551.544565,5329.482782,459.657299
144.146197,5477.523971,7031.956449,536.266849
144.146518,5847.626942,9252.574275,-459.657299
144.146839,4071.132681,9474.636058,-1532.190996
144.147159,5625.565159,8586.388927,-1149.143247
144.147480,6143.709319,7698.141797,-153.219100
144.147801,4589.276840,7550.100608,306.438199
144.148121,4219.173869,7476.080014,612.876398
144.148442,4071.132681,8586.388927,-919.314598
144.148763,3552.988522,8512.368333,-1532.190996
144.149083,4885.359217,8586.388927,153.219100
144.149404,4219.173869,7698.141797,0.000000
144.149725,3627.009116,7550.100608,-383.047749
144.150045,4367.215058,9252.574275,612.876398
144.150366,4663.297435,10214.842000,0.000000
144.150687,4663.297435,9400.615463,-536.266849
144.151007,4737.318029,7846.182985,153.219100
144.151328,4589.276840,7179.997637,-766.095498
144.151649,3997.112087,7328.038826,229.828649
144.151969,4959.379811,8290.306550,-306.438199
144.152290,5255.462188,9030.512492,-1762.019645
144.152611,5551.544565,9622.677246,-1915.238745
144.152931,6809.894666,9400.615463,-919.314598
144.153252,5773.606348,8364.327145,-306.438199
144.153573,4737.318029,7105.977043,-153.219100
144.153893,6365.771101,8586.388927,0.000000
144.154214,5921.647536,9326.594869,0.000000
144.154535,4219.173869,9548.656652,-842.705048
144.154855,5255.462188,9770.718434,-306.438199
144.155176,4515.256246,9474.636058,229.828649
144.155497,2442.679609,8586.388927,76.609550
144.155817,3997.112087,7698.141797,842.705048
144.156138,4589.276840,8216.285956,76.609550
144.156459,3552.988522,8290.306550,0.000000
144.156779,3552.988522,8438.347739,383.047749
144.157100,3849.070898,8660.409521,0.000000
144.157421,3775.050304,9548.656652,76.609550
144.157741,5477.523971,9696.697840,1378.971896
144.158062,4959.379811,9622.677246,76.609550
144.158383,4441.235652,8882.471304,-919.314598
144.158703,4959.379811,8364.327145,229.828649
144.159024,4515.256246,7105.977043,-153.219100
144.159345,4737.318029,6587.832884,-689.485948
144.159665,6217.729913,7031.956449,0.000000
144.159986,5921.647536,7772.162391,-76.609550
144.160307,6143.709319,7698.141797,76.609550
144.160627,6143.709319,6957.935855,1532.190996
144.160948,5551.544565,4811.338623,689.485948
144.161269,6439.791695,4737.318029,153.219100
144.161589,7031.956449,6439.791695,0.000000
144.161910,6587.832884,7698.141797,-1302.362347
144.162231,7105.977043,7550.100608,-1838.629195
144.162551,7254.018232,7105.977043,-1455.581446
144.162872,6291.750507,6069.688724,-459.657299
144.163193,5477.523971,6069.688724,612.876398
144.163513,5847.626942,7624.121203,0.000000
144.163834,5107.421000,8512.368333,-766.095498
144.164155,4441.235652,8290.306550,-919.314598
144.164475,4663.297435,7920.203579,-536.266849
144.164796,4293.194464,6957.935855,459.657299
144.165117,3775.050304,7920.203579,919.314598
144.165437,4293.194464,9844.739029,1149.143247
144.165758,3034.844362,10362.883188,-842.705048
144.166079,2590.720797,9326.594869,-229.828649
144.166399,3478.967927,8586.388927,1149.143247
144.166720,3182.885551,8882.471304,1608.800546
144.167041,2220.617826,8660.409521,1149.143247
144.167361,2664.741391,8660.409521,76.609550
144.167682,3997.112087,9326.594869,-306.438199
144.168003,5107.421000,9326.594869,306.438199
144.168323,4885.359217,7994.224174,153.219100
144.168644,5107.421000,7031.956449,-995.924147
144.168965,6365.771101,8956.491898,-995.924147
144.169285,6809.894666,10881.027347,-612.876398
144.169606,6217.729913,9696.697840,-1532.190996
144.169927,8364.327145,8068.244768,-1685.410096
144.170247,7698.141797,7624.121203,-383.047749
144.170568,5551.544565,6957.935855,0.000000
144.170889,5255.462188,7105.977043,0.000000
144.171209,6291.750507,8068.244768,-919.314598
144.171530,6069.688724,8216.285956,-842.705048
144.171851,5847.626942,7846.182985,-306.438199
144.172171,5551.544565,7105.977043,-306.438199
144.172492,4441.235652,7105.977043,-995.924147
144.172813,4737.318029,8290.306550,306.438199
144.173133,5107.421000,9622.677246,0.000000
144.173454,4663.297435,9252.574275,-689.485948
144.173775,4663.297435,8290.306550,383.047749
144.174095,3997.112087,8216.285956,612.876398
144.174416,3330.926739,8364.327145,383.047749
144.174737,3775.050304,9104.533087,306.438199
144.175057,3182.885551,8512.368333,-919.314598
144.175378,3775.050304,7328.038826,-842.705048
144.175699,4885.359217,7698.141797,459.657299
144.176019,4145.153275,8364.327145,1149.143247
144.176340,3552.988522,7846.182985,1072.533697
144.176661,5255.462188,8290.306550,842.705048
144.176981,5107.421000,9326.594869,-383.047749
144.177302,4885.359217,9400.615463,-153.219100
144.177623,5625.565159,7920.203579,689.485948
144.177943,5255.462188,6513.812290,-306.438199
144.178264,5033.400406,6439.791695,-612.876398
144.178585,6143.709319,6513.812290,-536.266849
144.178905,5995.668130,6809.894666,-1838.629195
144.179226,5921.647536,8290.306550,-1302.362347
144.179547,6439.791695,8808.450710,383.047749
144.179867,5921.647536,7698.141797,0.000000
144.180188,5551.544565,6513.812290,-306.438199
144.180509,6069.688724,7105.977043,-229.828649
144.180829,5921.647536,8586.388927,-689.485948
144.181150,5181.441594,8882.471304,-766.095498
144.181471,5033.400406,7624.121203,-459.657299
144.181791,5403.503377,6587.832884,306.438199
144.182112,5625.565159,6957.935855,1532.190996
144.182433,4811.338623,7846.182985,1225.752797
144.182753,4071.132681,8216.285956,-229.828649
144.183074,4515.256246,7698.141797,-229.828649
144.183395,5403.503377,7105.977043,689.485948
144.183715,5181.441594,6217.729913,1532.190996
144.184036,5329.482782,6365.771101,612.876398
144.184357,5477.523971,9104.533087,-536.266849
144.184677,5255.462188,10140.821405,-1608.800546
144.184998,5329.482782,9400.615463,-919.314598
144.185319,6069.688724,7550.100608,229.828649
144.185639,5033.400406,6883.915261,995.924147
144.185960,4959.379811,8068.244768,536.266849
144.186281,4663.297435,9104.533087,-842.705048
144.186601,4737.318029,9252.574275,-1915.238745
144.186922,5551.544565,8068.244768,-1532.190996
144.187243,6143.709319,7105.977043,229.828649
144.187563,5699.585753,7179.997637,919.314598
144.187884,4737.318029,8586.388927,612.876398
144.188205,4293.194464,9696.697840,-306.438199
144.188525,4589.276840,9104.533087,-1532.190996
144.188846,5329.482782,8734.430116,-689.485948
144.189166,5181.441594,7772.162391,689.485948
144.189487,4367.215058,7772.162391,842.705048
144.189808,3478.967927,7624.121203,0.000000
144.190128,4959.379811,8660.409521,-1225.752797
144.190449,5033.400406,8438.347739,-1455.581446
144.190770,4441.235652,7994.224174,76.609550
144.191090,5477.523971,7920.203579,1149.143247
144.191411,5773.606348,7624.121203,766.095498
144.191732,4663.297435,8364.327145,-153.219100
144.192052,6661.853478,8586.388927,-306.438199
144.192373,6809.894666,8142.265362,-1225.752797
144.192694,5625.565159,7772.162391,-919.314598
144.193014,6365.771101,7179.997637,229.828649
144.193335,5699.585753,7105.977043,0.000000
144.193656,4737.318029,7105.977043,-919.314598
144.193976,5625.565159,7994.224174,-919.314598
144.194297,5403.503377,8216.285956,-1455.581446
144.194618,4663.297435,8142.265362,-1685.410096
144.194938,4737.318029,7772.162391,306.438199
144.195259,4737.318029,7254.018232,919.314598
144.195580,4811.338623,7624.121203,536.266849
144.195900,4367.215058,9030.512492,76.609550
144.196221,4145.153275,9992.780217,-1302.362347
144.196542,4589.276840,8586.388927,-536.266849
144.196862,4885.359217,7772.162391,536.266849
144.197183,4145.153275,7105.977043,459.657299
144.197504,3849.070898,7105.977043,536.266849
144.197824,4885.359217,8586.388927,0.000000
144.198145,4071.132681,9696.697840,-1378.971896
144.198466,3849.070898,8586.388927,-536.266849
144.198786,5329.482782,8142.265362,919.314598
144.199107,4737.318029,7550.100608,689.485948
144.199428,4737.318029,8216.285956,1455.581446
144.199748,4515.256246,8956.491898,306.438199
144.200069,4293.194464,8512.368333,-1302.362347
144.200390,5551.544565,7920.203579,-536.266849
144.200710,5847.626942,6809.894666,689.485948
144.201031,5921.647536,7105.977043,459.657299
144.201352,6143.709319,8142.265362,153.219100
144.201672,5699.585753,8882.471304,-306.438199
144.201993,5773.606348,8068.244768,-995.924147
144.202314,6439.791695,6883.915261,0.000000
144.202634,6957.935855,5477.523971,0.000000
144.202955,5329.482782,5477.523971,229.828649
144.203276,5699.585753,6809.894666,-229.828649
144.203596,6513.812290,9400.615463,-995.924147
144.203917,5773.606348,9992.780217,-1302.362347
144.204238,5403.503377,8512.368333,-919.314598
144.204558,6735.874072,7550.100608,76.609550
144.204879,4663.297435,6957.935855,612.876398
144.205200,4293.194464,7328.038826,229.828649
144.205520,4811.338623,8142.265362,459.657299
144.205841,4663.297435,8438.347739,-383.047749
144.206162,4811.338623,7994.224174,306.438199
144.206482,5403.503377,7846.182985,306.438199
144.206803,4441.235652,7550.100608,0.000000
144.207124,4515.256246,8586.388927,0.000000
144.207444,3997.112087,9252.574275,76.609550
144.207765,4663.297435,8290.306550,-689.485948
144.208086,5181.441594,8586.388927,459.657299
144.208406,3997.112087,8216.285956,76.609550
144.208727,4219.173869,8586.388927,-919.314598
144.209048,4737.318029,8142.265362,-689.485948
144.209368,4885.359217,8734.430116,-995.924147
144.209689,5255.462188,8364.327145,-689.485948
144.210010,5181.441594,6513.812290,536.266849
144.210330,5107.421000,6735.874072,153.219100
144.210651,4737.318029,7476.080014,0.000000
144.210972,5329.482782,8734.430116,-689.485948
144.211292,6439.791695,9844.739029,-1685.410096
144.211613,6439.791695,9104.533087,-1532.190996
144.211934,5921.647536,8512.368333,-766.095498
144.212254,5403.503377,7550.100608,383.047749
144.212575,4441.235652,6661.853478,306.438199
144.212896,3923.091493,7328.038826,-612.876398
144.213216,4589.276840,7846.182985,-1378.971896
144.213537,5181.441594,8438.347739,-919.314598
144.213858,5625.565159,8586.388927,-612.876398
144.214178,4885.359217,8068.244768,76.609550
144.214499,4589.276840,8068.244768,383.047749
144.214820,4737.318029,8808.450710,306.438199
144.215140,4441.235652,9474.636058,229.828649
144.215461,3923.091493,9252.574275,0.000000
144.215782,3923.091493,8364.327145,-306.438199
144.216102,4071.132681,8512.368333,383.047749
144.216423,4737.318029,8512.368333,306.438199
144.216744,4663.297435,8586.388927,-689.485948
144.217064,4367.215058,8216.285956,-1302.362347
144.217385,3701.029710,7920.203579,-995.924147
144.217706,3997.112087,8216.285956,766.095498
144.218026,4737.318029,8512.368333,1378.971896
144.218347,5625.565159,8142.265362,1302.362347
144.218668,6143.709319,8512.368333,-229.828649
144.218988,4959.379811,9252.574275,-1762.019645
144.219309,4737.318029,8142.265362,-919.314598
144.219630,5329.482782,7402.059420,459.657299
144.219950,5551.544565,7105.977043,689.485948
144.220271,5255.462188,6587.832884,612.876398
144.220592,5773.606348,8068.244768,-689.485948
144.220912,4737.318029,8586.388927,-1991.848295
144.221233,4441.235652,8882.471304,-995.924147
144.221554,5181.441594,7994.224174,0.000000
144.221874,5107.421000,6513.812290,919.314598
144.222195,4367.215058,6735.874072,536.266849
144.222516,5033.400406,7846.182985,-459.657299
144.222836,3775.050304,9622.677246,-1302.362347
144.223157,3849.070898,10732.986159,-1378.971896
144.223478,4885.359217,9622.677246,-306.438199
144.223798,5033.400406,7920.203579,766.095498
144.224119,4589.276840,7550.100608,1302.362347
144.224440,3701.029710,7698.141797,689.485948
144.224760,2516.700203,7624.121203,-459.657299
144.225081,3552.988522,7624.121203,229.828649
144.225402,4367.215058,7031.956449,536.266849
144.225722,5107.421000,7254.018232,612.876398
144.226043,5921.647536,8734.430116,306.438199
144.226364,5181.441594,9696.697840,-306.438199
144.226684,4885.359217,9474.636058,-1302.362347
144.227005,5477.523971,8216.285956,-1072.533697
144.227326,6439.791695,6365.771101,-229.828649
144.227646,6809.894666,6957.935855,536.266849
144.227967,5477.523971,7920.203579,766.095498
144.228288,5181.441594,8586.388927,-689.485948
144.228608,5181.441594,8734.430116,-1608.800546
144.228929,6143.709319,7105.977043,-306.438199
144.229250,6069.688724,5773.606348,229.828649
144.229570,5773.606348,4959.379811,1149.143247
144.229891,5107.421000,6883.915261,0.000000
144.230212,4811.338623,9104.533087,-1762.019645
144.230533,5181.441594,9400.615463,-2604.724693
144.230853,6439.791695,9400.615463,-1302.362347
144.231174,6513.812290,8512.368333,0.000000
144.231495,5181.441594,8956.491898,383.047749
144.231816,5255.462188,8808.450710,-383.047749
144.232136,4071.132681,8660.409521,-1455.581446
144.232457,4441.235652,8290.306550,-842.705048
144.232778,4589.276840,7179.997637,-229.828649
144.233099,4589.276840,6957.935855,153.219100
144.233419,4811.338623,7254.018232,689.485948
144.233740,4293.194464,8438.347739,536.266849
144.234061,3997.112087,9252.574275,-229.828649
144.234382,4737.318029,9178.553681,-689.485948
144.234702,5773.606348,8734.430116,0.000000
144.235023,5921.647536,8364.327145,919.314598
144.235344,5329.482782,7920.203579,229.828649
144.235665,5403.503377,8734.430116,-536.266849
144.235985,5033.400406,9474.636058,-766.095498
144.236306,4441.235652,9178.553681,-689.485948
144.236627,5107.421000,7624.121203,-306.438199
144.236948,5551.544565,6513.812290,153.219100
144.237268,4515.256246,6587.832884,153.219100
144.237589,4071.132681,7624.121203,-153.219100
144.237910,4663.297435,9178.553681,-995.924147
144.238231,4885.359217,9696.697840,-995.924147
144.238551,5921.647536,9474.636058,459.657299
144.238872,5847.626942,7920.203579,459.657299
144.239193,3849.070898,6735.874072,0.000000
144.239514,3256.906145,7698.141797,0.000000
144.239834,4071.132681,9326.594869,0.000000
144.240155,3330.926739,8438.347739,-536.266849
144.240476,5107.421000,7031.956449,0.000000
144.240796,4811.338623,6217.729913,-76.609550
144.241117,2886.803174,7105.977043,-306.438199
144.241438,2960.823768,9104.533087,0.000000
144.241759,3997.112087,10066.800811,-76.609550
144.242079,5033.400406,9326.594869,-383.047749
144.242400,6217.729913,9400.615463,995.924147
144.242721,5255.462188,8808.450710,1149.143247
144.243042,3701.029710,8438.347739,689.485948
144.243362,3552.988522,8586.388927,842.705048
144.243683,4071.132681,7920.203579,-229.828649
144.244004,4885.359217,7031.956449,-919.314598
144.244325,4959.379811,6069.688724,153.219100
144.244645,3775.050304,6439.791695,0.000000
144.244966,3404.947333,7920.203579,0.000000
144.245287,4293.194464,9400.615463,76.609550
144.245608,5625.565159,9326.594869,-842.705048
144.245928,5921.647536,8586.388927,-612.876398
144.246249,6809.894666,9252.574275,306.438199
144.246570,5107.421000,8586.388927,689.485948
144.246891,3849.070898,7920.203579,-383.047749
144.247211,5403.503377,8216.285956,-766.095498
144.247532,6587.832884,7920.203579,-1838.629195
144.247853,5995.668130,8142.265362,-1608.800546
144.248174,5403.503377,7105.977043,0.000000
144.248494,4589.276840,5773.606348,536.266849
144.248815,4959.379811,5773.606348,1302.362347
144.249136,5477.523971,6809.894666,383.047749
144.249457,5551.544565,8364.327145,-995.924147
144.249777,5773.606348,8438.347739,-1225.752797
144.250098,6439.791695,8290.306550,153.219100
144.250419,6735.874072,8142.265362,612.876398
144.250740,5921.647536,7772.162391,-306.438199
144.251060,5773.606348,7772.162391,-536.266849
144.251381,6069.688724,8364.327145,-1608.800546
144.251702,5995.668130,7698.141797,-995.924147
144.252023,5551.544565,6809.894666,0.000000
144.252343,6365.771101,5847.626942,76.609550
144.252664,5625.565159,6957.935855,-383.047749
144.252985,5255.462188,8512.368333,-919.314598
144.253305,5847.626942,9548.656652,-1302.362347
144.253626,6365.771101,9326.594869,-1685.410096
144.253947,6069.688724,7920.203579,0.000000
144.254268,5847.626942,7328.038826,459.657299
144.254588,4441.235652,7105.977043,-153.219100
144.254909,4737.318029,9178.553681,-689.485948
144.255230,5107.421000,10584.944971,-229.828649
144.255551,4367.215058,9548.656652,-536.266849
144.255871,4589.276840,8364.327145,0.000000
144.256192,3775.050304,6735.874072,612.876398
144.256513,3627.009116,7105.977043,1149.143247
144.256834,4441.235652,8438.347739,919.314598
144.257154,4367.215058,9474.636058,-919.314598
144.257475,5033.400406,9696.697840,-1608.800546
144.257796,5403.503377,9844.739029,-919.314598
144.258117,4367.215058,9696.697840,306.438199
144.258437,3997.112087,8882.471304,459.657299
144.258758,4737.318029,8438.347739,459.657299
144.259079,4737.318029,8512.368333,-459.657299
144.259400,4293.194464,7624.121203,0.000000
144.259720,3775.050304,7105.977043,306.438199
144.260041,4145.153275,6513.812290,229.828649
144.260362,5033.400406,7550.100608,766.095498
144.260683,6143.709319,8586.388927,689.485948
144.261003,6291.750507,7772.162391,-536.266849
144.261324,5773.606348,7179.997637,-919.314598
144.261645,5551.544565,7920.203579,-383.047749
144.261966,4737.318029,7994.224174,0.000000
144.262286,5699.585753,7772.162391,-383.047749
144.262607,6735.874072,7624.121203,-1225.752797
144.262928,5403.503377,7698.141797,-1608.800546
144.263249,4737.318029,7624.121203,-612.876398
144.263569,4145.153275,7846.182985,995.924147
144.263890,3627.009116,7254.018232,766.095498
144.264211,4737.318029,7105.977043,229.828649
144.264531,5403.503377,8364.327145,306.438199
144.264852,3997.112087,8882.471304,-153.219100
144.265173,4367.215058,8660.409521,306.438199
144.265494,3997.112087,8216.285956,1378.971896
144.265814,3997.112087,7328.038826,842.705048
144.266135,4811.338623,7402.059420,536.266849
144.266456,4441.235652,8438.347739,-1072.533697
144.266777,3478.967927,8808.450710,-1302.362347
144.267097,3849.070898,8438.347739,-153.219100
144.267418,4959.379811,7698.141797,306.438199
144.267739,4811.338623,6291.750507,766.095498
144.268060,5329.482782,7328.038826,306.438199
144.268380,5551.544565,9918.759623,-612.876398
144.268701,4071.132681,10214.842000,-842.705048
144.269022,5329.482782,8068.244768,383.047749
144.269343,7105.977043,6217.729913,459.657299
144.269663,7105.977043,6069.688724,0.000000
144.269984,6291.750507,7550.100608,-995.924147
144.270305,6217.729913,8882.471304,-2451.505594
144.270626,6587.832884,9030.512492,-2911.162892
144.270946,6957.935855,7550.100608,-536.266849
144.271267,6661.853478,5995.668130,383.047749
144.271588,5625.565159,6143.709319,995.924147
144.271909,5107.421000,8290.306550,842.705048
144.272229,4737.318029,9992.780217,-153.219100
144.272550,5033.400406,9696.697840,-1455.581446
144.272871,5255.462188,8660.409521,-1378.971896
144.273192,4959.379811,7994.224174,0.000000
144.273512,4293.194464,8216.285956,1149.143247
144.273833,4441.235652,9104.533087,842.705048
144.274154,3849.070898,9400.615463,-536.266849
144.274475,3923.091493,8660.409521,-1149.143247
144.274795,4071.132681,8290.306550,-229.828649
144.275116,3923.091493,7920.203579,1378.971896
144.275437,4145.153275,7994.224174,1685.410096
144.275758,5033.400406,8290.306550,536.266849
144.276078,4441.235652,8956.491898,-1072.533697
144.276399,5255.462188,8290.306550,-1608.800546
144.276720,5477.523971,7772.162391,-536.266849
144.277040,5477.523971,7402.059420,76.609550
144.277361,5255.462188,7772.162391,229.828649
144.277682,6291.750507,8660.409521,-536.266849
144.278003,6291.750507,8808.450710,-1455.581446
144.278323,5921.647536,7994.224174,-1302.362347
144.278644,5921.647536,6809.894666,-995.924147
144.278965,5847.626942,5625.565159,-536.266849
144.279286,5329.482782,6217.729913,0.000000
144.279606,5181.441594,8438.347739,-383.047749
144.279927,5181.441594,9178.553681,-1225.752797
144.280248,5255.462188,9844.739029,-1072.533697
144.280569,5477.523971,9474.636058,0.000000
144.280889,4737.318029,8290.306550,383.047749
144.281210,3701.029710,7105.977043,306.438199
144.281531,4515.256246,7994.224174,0.000000
144.281852,3997.112087,8882.471304,842.705048
144.282172,4071.132681,8956.491898,1072.533697
144.282493,4959.379811,8216.285956,1302.362347
144.282814,4293.194464,6735.874072,536.266849
144.283135,3997.112087,6661.853478,229.828649
144.283455,4885.359217,8290.306550,766.095498
144.283776,4441.235652,9030.512492,0.000000
144.284097,5181.441594,8808.450710,229.828649
144.284418,6735.874072,7550.100608,919.314598
144.284738,5625.565159,7254.018232,0.000000
144.285059,4737.318029,7402.059420,-306.438199
144.285380,5847.626942,8364.327145,-229.828649
144.285701,5995.668130,8882.471304,-995.924147
144.286021,5773.606348,7698.141797,-842.705048
144.286342,6069.688724,7105.977043,0.000000
144.286663,5033.400406,5847.626942,-1072.533697
144.286984,4367.215058,7105.977043,0.000000
144.287304,4959.379811,8882.471304,459.657299
144.287625,5329.482782,8808.450710,-842.705048
144.287946,5921.647536,8290.306550,-306.438199
144.288266,5625.565159,7624.121203,383.047749
144.288587,3923.091493,6883.915261,0.000000
144.288908,3478.967927,7550.100608,-383.047749
144.289229,4959.379811,8882.471304,-1455.581446
144.289549,4737.318029,8734.430116,-2068.457845
144.289870,5625.565159,7994.224174,-995.924147
144.290191,5551.544565,8512.368333,842.705048
144.290512,3256.906145,8882.471304,842.705048
144.290832,3701.029710,8586.388927,1072.533697
144.291153,4071.132681,8586.388927,459.657299
144.291474,3775.050304,8512.368333,-842.705048
144.291795,4737.318029,8660.409521,76.609550
144.292115,4811.338623,8068.244768,612.876398
144.292436,3997.112087,7846.182985,-229.828649
144.292757,5329.482782,8882.471304,0.000000
144.293078,5107.421000,9474.636058,-306.438199
144.293398,4441.235652,8808.450710,-995.924147
144.293719,4737.318029,7698.141797,383.047749
144.294040,4441.235652,7550.100608,842.705048
144.294361,3923.091493,7698.141797,459.657299
144.294681,4737.318029,8364.327145,-229.828649
144.295002,5403.503377,9326.594869,-1991.848295
144.295323,5329.482782,9104.533087,-1915.238745
144.295644,5773.606348,8882.471304,0.000000
144.295964,5403.503377,8142.265362,536.266849
144.296285,4811.338623,7105.977043,0.000000
144.296606,5033.400406,7179.997637,-536.266849
144.296927,5773.606348,8216.285956,-995.924147
144.297247,5477.523971,8586.388927,-612.876398
144.297568,5403.503377,7698.141797,-229.828649
144.297889,5847.626942,6439.791695,-612.876398
144.298210,5181.441594,6809.894666,-229.828649
144.298530,5033.400406,7624.121203,-153.219100
144.298851,5329.482782,8290.306550,-919.314598
144.299172,5625.565159,8364.327145,-612.876398
144.299493,5625.565159,8586.388927,-229.828649
144.299813,5403.503377,8290.306550,689.485948
144.300134,4589.276840,7328.038826,76.609550
144.300455,4959.379811,8068.244768,0.000000
144.300775,5329.482782,8808.450710,-383.047749
144.301096,5551.544565,8512.368333,-153.219100
144.301417,4959.379811,6809.894666,0.000000
144.301738,5033.400406,6513.812290,612.876398
144.302058,4737.318029,7105.977043,766.095498
144.302379,4293.194464,9326.594869,153.219100
144.302700,3997.112087,10066.800811,-919.314598
144.303021,4737.318029,8882.471304,-1762.019645
144.303341,5551.544565,7846.182985,153.219100
144.303662,4885.359217,6957.935855,1915.238745
144.303983,4071.132681,6735.874072,1149.143247
144.304304,5403.503377,8068.244768,306.438199
144.304624,4959.379811,9400.615463,-1149.143247
144.304945,4885.359217,7994.224174,-1608.800546
144.305266,6587.832884,7624.121203,0.000000
144.305587,6143.709319,7328.038826,689.485948
144.305907,4515.256246,7179.997637,766.095498
144.306228,6513.812290,7254.018232,153.219100
144.306549,5477.523971,7994.224174,-1762.019645
144.306870,4737.318029,8734.430116,-1762.019645
144.307190,5033.400406,8882.471304,0.000000
144.307511,5255.462188,8882.471304,842.705048
144.307832,4663.297435,8290.306550,689.485948
144.308153,4737.318029,8438.347739,153.219100
144.308473,3627.009116,7698.141797,-1302.362347
144.308794,3108.864956,8364.327145,-459.657299
144.309115,3404.947333,8734.430116,1685.410096
144.309436,3404.947333,7476.080014,995.924147
144.309756,4367.215058,7846.182985,383.047749
144.310077,4589.276840,9326.594869,-306.438199
144.310398,3182.885551,10436.903782,-1302.362347
144.310719,3256.906145,9548.656652,-459.657299
144.311039,4515.256246,8216.285956,306.438199
144.311360,4663.297435,7105.977043,689.485948
144.311681,4663.297435,6809.894666,766.095498
144.312002,4885.359217,8882.471304,0.000000
144.312322,4071.132681,9622.677246,-1608.800546
144.312643,4737.318029,8216.285956,-1225.752797
144.312964,6661.853478,6809.894666,76.609550
144.313284,6365.771101,5995.668130,0.000000
144.313605,5329.482782,7179.997637,306.438199
144.313926,5255.462188,8956.491898,-612.876398
144.314247,5033.400406,9030.512492,-2221.676944
144.314567,7105.977043,8068.244768,-766.095498
144.314888,6735.874072,7476.080014,459.657299
144.315209,5551.544565,6883.915261,383.047749
144.315530,4367.215058,7179.997637,-306.438199
144.315850,4293.194464,7772.162391,-612.876398
144.316171,5033.400406,8142.265362,-995.924147
144.316492,5551.544565,7624.121203,-306.438199
144.316813,5329.482782,7402.059420,-306.438199
144.317133,5329.482782,8216.285956,0.000000
144.317454,5107.421000,9178.553681,306.438199
144.317775,4737.318029,9992.780217,-459.657299
144.318096,4811.338623,9696.697840,-1225.752797
144.318416,4589.276840,9400.615463,-689.485948
144.318737,4293.194464,8512.368333,919.314598
144.319058,4737.318029,8364.327145,1455.581446
144.319379,4959.379811,8512.368333,1225.752797
144.319699,4367.215058,9104.533087,-766.095498
144.320020,3997.112087,8956.491898,-995.924147
144.320341,4811.338623,7920.203579,229.828649
144.320662,5921.647536,7031.956449,2145.067394
144.320982,4885.359217,6809.894666,1762.019645
144.321303,5403.503377,7994.224174,0.000000
144.321624,4663.297435,9474.636058,-2145.067394
144.321945,4737.318029,9326.594869,-1532.190996
144.322265,6291.750507,8364.327145,383.047749
144.322586,7105.977043,7550.100608,842.705048
144.322907,5847.626942,6809.894666,0.000000
144.323228,5181.441594,7698.141797,-766.095498
144.323548,5329.482782,8512.368333,-1302.362347
144.323869,5181.441594,7772.162391,-766.095498
144.324190,6143.709319,6883.915261,689.485948
144.324510,6217.729913,6365.771101,766.095498
144.324831,4959.379811,6143.709319,153.219100
144.325152,4367.215058,6587.832884,-919.314598
144.325473,5107.421000,8216.285956,-766.095498
144.325793,4663.297435,7846.182985,-995.924147
144.326114,6143.709319,7476.080014,0.000000
144.326435,5921.647536,7254.018232,459.657299
144.326756,4145.153275,6957.935855,153.219100
144.327076,4219.173869,8142.265362,459.657299
144.327397,4293.194464,9252.574275,0.000000
144.327718,3404.947333,8142.265362,-766.095498
144.328039,6217.729913,7328.038826,612.876398
144.328359,6513.812290,6217.729913,1072.533697
144.328680,3997.112087,5921.647536,-76.609550
144.329001,3849.070898,7402.059420,0.000000
144.329322,4737.318029,9770.718434,-536.266849
144.329642,4959.379811,9844.739029,-919.314598
144.329963,6143.709319,9326.594869,0.000000
144.330284,5921.647536,7846.182985,-383.047749
144.330605,3775.050304,6735.874072,-919.314598
144.330926,3849.070898,7698.141797,459.657299
144.331246,3775.050304,9104.533087,306.438199
144.331567,4293.194464,8882.471304,-766.095498
144.331888,5921.647536,8364.327145,-306.438199
144.332209,5995.668130,8068.244768,-1378.971896
144.332530,4367.215058,8142.265362,-1302.362347
144.332850,4589.276840,9030.512492,0.000000
144.333171,6143.709319,9548.656652,-229.828649
144.333492,5847.626942,9104.533087,-383.047749
144.333813,5995.668130,8290.306550,459.657299
144.334133,5403.503377,8734.430116,0.000000
144.334454,3627.009116,9326.594869,-689.485948
144.334775,3034.844362,8586.388927,0.000000
144.335096,4737.318029,8068.244768,0.000000
144.335417,5625.565159,7846.182985,-306.438199
144.335737,4885.359217,8512.368333,766.095498
144.336058,3256.906145,7994.224174,76.609550
144.336379,3775.050304,8216.285956,-995.924147
144.336700,4293.194464,9474.636058,-76.609550
144.337020,4959.379811,9400.615463,153.219100
144.337341,5773.606348,8734.430116,153.219100
144.337662,5477.523971,8882.471304,1378.971896
144.337983,3701.029710,7994.224174,919.314598
144.338304,3256.906145,7105.977043,-153.219100
144.338624,4441.235652,6957.935855,-1455.581446
144.338945,5107.421000,7698.141797,-2145.067394
144.339266,5403.503377,7772.162391,76.609550
144.339587,6661.853478,7624.121203,1149.143247
144.339908,6365.771101,7254.018232,536.266849
144.340228,4959.379811,7550.100608,-689.485948
144.340549,4959.379811,7698.141797,-1608.800546
144.340870,6143.709319,8290.306550,-1991.848295
144.341191,6439.791695,7772.162391,459.657299
144.341511,7105.977043,7179.997637,1838.629195
144.341832,5995.668130,6439.791695,536.266849
144.342153,5107.421000,6883.915261,-1149.143247
144.342474,4959.379811,7624.121203,-1532.190996
144.342795,4737.318029,7698.141797,-842.705048
144.343115,5921.647536,6365.771101,153.219100
144.343436,7031.956449,6143.709319,1455.581446
144.343757,6217.729913,6143.709319,383.047749
144.344078,5255.462188,7624.121203,-306.438199
144.344398,5255.462188,8660.409521,-1072.533697
144.344719,5329.482782,8956.491898,-1608.800546
144.345040,5773.606348,8512.368333,-919.314598
144.345361,6365.771101,8290.306550,459.657299
144.345682,5033.400406,8216.285956,1149.143247
144.346002,4145.153275,8512.368333,306.438199
144.346323,4145.153275,8586.388927,-689.485948
144.346644,3997.112087,8734.430116,-842.705048
144.346965,4441.235652,8216.285956,689.485948
144.347286,4441.235652,8364.327145,995.924147
144.347606,3701.029710,7179.997637,536.266849
144.347927,3923.091493,7550.100608,76.609550
144.348248,5477.523971,8882.471304,0.000000
144.348569,4959.379811,9030.512492,-536.266849
144.348889,4071.132681,7994.224174,-1685.410096
144.349210,5181.441594,8438.347739,-766.095498
144.349531,5033.400406,9178.553681,306.438199
144.349852,4589.276840,8956.491898,229.828649
144.350173,6439.791695,8364.327145,0.000000
144.350493,5921.647536,8142.265362,-1532.190996
144.350814,5181.441594,8068.244768,-919.314598
144.351135,5033.400406,7105.977043,919.314598
144.351456,5625.565159,6957.935855,766.095498
144.351776,5699.585753,7550.100608,229.828649
144.352097,6217.729913,9178.553681,-306.438199
144.352418,5477.523971,8956.491898,-2221.676944
144.352739,5181.441594,7772.162391,-1608.800546
144.353060,5921.647536,7624.121203,995.924147
144.353380,4737.318029,7920.203579,1532.190996
144.353701,3627.009116,8142.265362,0.000000
144.354022,3552.988522,8068.244768,-995.924147
144.354343,3775.050304,8290.306550,-1455.581446
144.354664,3404.947333,8660.409521,0.000000
144.354984,4959.379811,7994.224174,689.485948
144.355305,4663.297435,8068.244768,-306.438199
144.355626,4367.215058,8142.265362,-536.266849
144.355947,4145.153275,9474.636058,-612.876398
144.356267,4219.173869,10214.842000,-383.047749
144.356588,3997.112087,9030.512492,-153.219100
144.356909,3923.091493,8438.347739,919.314598
144.357230,3627.009116,7698.141797,612.876398
144.357551,4293.194464,8586.388927,229.828649
144.357871,3849.070898,9770.718434,306.438199
144.358192,3182.885551,8660.409521,-689.485948
144.358513,4737.318029,7772.162391,0.000000
144.358834,5477.523971,7031.956449,1225.752797
144.359155,5403.503377,7254.018232,995.924147
144.359475,5773.606348,7772.162391,536.266849
144.359796,5181.441594,8586.388927,-1302.362347
144.360117,5329.482782,9474.636058,-612.876398
144.360438,6143.709319,7846.182985,76.609550
144.360758,6365.771101,6587.832884,306.438199
144.361079,6365.771101,6735.874072,0.000000
144.361400,6069.688724,7772.162391,-229.828649
144.361721,5625.565159,8142.265362,-1302.362347
144.362042,5995.668130,7105.977043,-1072.533697
144.362362,6809.894666,6143.709319,-306.438199
144.362683,6587.832884,6291.750507,689.485948
144.363004,6069.688724,6143.709319,766.095498
144.363325,6513.812290,7179.997637,229.828649
144.363645,5773.606348,7846.182985,-1838.629195
144.363966,6365.771101,7624.121203,-1838.629195
144.364287,6809.894666,7476.080014,0.000000
144.364608,6217.729913,7402.059420,689.485948
144.364929,4515.256246,7624.121203,306.438199
144.365249,4737.318029,7994.224174,-995.924147
144.365570,4219.173869,8216.285956,-1685.410096
144.365891,4071.132681,8142.265362,-689.485948
144.366212,5033.400406,7328.038826,1225.752797
144.366533,5181.441594,7550.100608,1072.533697
144.366853,3923.091493,7920.203579,229.828649
144.367174,3775.050304,8956.491898,-459.657299
144.367495,3404.947333,9918.759623,-919.314598
144.367816,4663.297435,10140.821405,-153.219100
144.368136,5255.462188,9252.574275,1072.533697
144.368457,4441.235652,8512.368333,919.314598
144.368778,3775.050304,8142.265362,76.609550
144.369099,3775.050304,8882.471304,153.219100
144.369420,3849.070898,9104.533087,-919.314598
144.369740,4663.297435,8290.306550,-919.314598
144.370061,5477.523971,7624.121203,0.000000
144.370382,6735.874072,7698.141797,1149.143247
144.370703,5477.523971,7105.977043,536.266849
144.371023,4811.338623,7328.038826,-536.266849
144.371344,5699.585753,8882.471304,-1762.019645
144.371665,5551.544565,8956.491898,-1608.800546
144.371986,5551.544565,7772.162391,-229.828649
144.372307,7402.059420,7402.059420,153.219100
144.372627,5995.668130,8142.265362,-536.266849
144.372948,3997.112087,8882.471304,-842.705048
144.373269,3552.988522,8512.368333,-995.924147
144.373590,4737.318029,7772.162391,-76.609550
144.373911,5107.421000,7179.997637,919.314598
144.374231,4071.132681,7105.977043,1225.752797
144.374552,2812.782580,7402.059420,-306.438199
144.374873,3034.844362,8512.368333,-1378.971896
144.375194,2812.782580,10066.800811,-612.876398
144.375514,3775.050304,9622.677246,0.000000
144.375835,4589.276840,8142.265362,1149.143247
144.376156,3775.050304,7402.059420,1838.629195
144.376477,2960.823768,8512.368333,689.485948
144.376798,2516.700203,9178.553681,0.000000
144.377118,3775.050304,9252.574275,-1225.752797
144.377439,5847.626942,8734.430116,-766.095498
144.377760,6735.874072,7031.956449,459.657299
144.378081,6291.750507,6439.791695,536.266849
144.378401,5255.462188,7105.977043,-536.266849
144.378722,4811.338623,7994.224174,-1378.971896
144.379043,5477.523971,7624.121203,-1072.533697
144.379364,7254.018232,7476.080014,0.000000
144.379685,8660.409521,7624.121203,459.657299
144.380005,7328.038826,8216.285956,0.000000
144.380326,4885.359217,7328.038826,-995.924147
144.380647,5847.626942,6957.935855,-1302.362347
144.380968,6217.729913,7031.956449,0.000000
144.381289,7105.977043,6439.791695,1378.971896
144.381609,6217.729913,6513.812290,1149.143247
144.381930,4663.297435,6883.915261,-1225.752797
144.382251,3997.112087,8808.450710,-1608.800546
144.382572,4811.338623,9104.533087,-459.657299
144.382892,5329.482782,8364.327145,-612.876398
144.383213,6069.688724,7624.121203,766.095498
144.383534,4885.359217,8142.265362,1149.143247
144.383855,3552.988522,9326.594869,306.438199
144.384176,2442.679609,9474.636058,-536.266849
144.384496,3552.988522,8956.491898,-1072.533697
144.384817,4959.379811,8216.285956,-536.266849
144.385138,4959.379811,7994.224174,995.924147
144.385459,4071.132681,7698.141797,1149.143247
144.385779,3404.947333,8216.285956,689.485948
144.386100,2886.803174,8808.450710,-612.876398
144.386421,3923.091493,9030.512492,-536.266849
144.386742,4959.379811,8364.327145,-766.095498
144.387063,6069.688724,7994.224174,919.314598
144.387383,5699.585753,8512.368333,1378.971896
144.387704,3404.947333,8216.285956,76.609550
144.388025,3256.906145,7994.224174,-1378.971896
144.388346,4959.379811,8882.471304,-1991.848295
144.388667,5255.462188,9030.512492,-1532.190996
144.388987,5255.462188,8586.388927,-536.266849
144.389308,5699.585753,7179.997637,-306.438199
144.389629,4959.379811,7994.224174,0.000000
144.389950,4219.173869,8956.491898,76.609550
144.390270,4589.276840,8512.368333,306.438199
144.390591,4663.297435,8364.327145,-766.095498
144.390912,5181.441594,7698.141797,0.000000
144.391233,4737.318029,7698.141797,1455.581446
144.391554,3701.029710,8216.285956,1072.533697
144.391874,3182.885551,8734.430116,-76.609550
144.392195,3627.009116,8882.471304,-1225.752797
144.392516,4811.338623,8438.347739,-383.047749
144.392837,5107.421000,7179.997637,1225.752797
144.393158,4663.297435,6365.771101,1378.971896
144.393478,4367.215058,7105.977043,76.609550
144.393799,5255.462188,10140.821405,-383.047749
144.394120,4737.318029,10584.944971,-919.314598
144.394441,6143.709319,8586.388927,-842.705048
144.394761,7402.059420,6883.915261,-229.828649
144.395082,5699.585753,7031.956449,612.876398
144.395403,3330.926739,7550.100608,536.266849
144.395724,3997.112087,8364.327145,-76.609550
144.396045,5921.647536,8068.244768,-1532.190996
144.396365,6735.874072,7476.080014,-459.657299
144.396686,6735.874072,7031.956449,919.314598
144.397007,5255.462188,6957.935855,76.609550
144.397328,3997.112087,7550.100608,153.219100
144.397648,4367.215058,8068.244768,0.000000
144.397969,5773.606348,7476.080014,0.000000
144.398290,6809.894666,7550.100608,-76.609550
144.398611,6217.729913,7846.182985,-383.047749
144.398932,4441.235652,7772.162391,-383.047749
144.399252,5181.441594,7920.203579,-1149.143247
144.399573,6513.812290,8216.285956,-612.876398
144.399894,5773.606348,6513.812290,0.000000
144.400215,6217.729913,5699.585753,0.000000
144.400536,5773.606348,6661.853478,229.828649
144.400856,3478.967927,7328.038826,229.828649
144.401177,4367.215058,7624.121203,689.485948
144.401498,6809.894666,8216.285956,-612.876398
144.401819,5773.606348,8438.347739,-1378.971896
144.402139,4885.359217,9104.533087,-1072.533697
144.402460,4663.297435,8956.491898,-459.657299
144.402781,4589.276840,8512.368333,0.000000
144.403102,4737.318029,8512.368333,1072.533697
144.403423,4589.276840,9178.553681,76.609550
144.403743,2738.761985,9178.553681,-1608.800546
144.404064,1776.494261,8882.471304,-383.047749
144.404385,3182.885551,8438.347739,1685.410096
144.404706,3775.050304,8068.244768,1532.190996
144.405026,3923.091493,8068.244768,229.828649
144.405347,4737.318029,9252.574275,-306.438199
144.405668,4367.215058,10140.821405,-919.314598
144.405989,4219.173869,10140.821405,229.828649
144.406310,4959.379811,8512.368333,536.266849
144.406630,6217.729913,7624.121203,153.219100
144.406951,6291.750507,9178.553681,-306.438199
144.407272,5107.421000,9474.636058,-306.438199
144.407593,4737.318029,9030.512492,-1532.190996
144.407914,5699.585753,8364.327145,-766.095498
144.408234,6069.688724,7920.203579,383.047749
144.408555,5995.668130,7846.182985,919.314598
144.408876,6291.750507,7772.162391,76.609550
144.409197,5477.523971,7772.162391,-689.485948
144.409517,4145.153275,8142.265362,0.000000
144.409838,4441.235652,8438.347739,536.266849
144.410159,3997.112087,7920.203579,536.266849
144.410480,4885.359217,7772.162391,76.609550
144.410801,5403.503377,8290.306550,153.219100
144.411121,4145.153275,8364.327145,0.000000
144.411442,3330.926739,7105.977043,-1149.143247
144.411763,3627.009116,7624.121203,-229.828649
144.412084,4071.132681,7994.224174,306.438199
144.412404,4663.297435,7698.141797,536.266849
144.412725,5033.400406,8512.368333,306.438199
144.413046,4737.318029,8956.491898,-842.705048
144.413367,3330.926739,8586.388927,-306.438199
144.413688,4145.153275,8660.409521,153.219100
144.414008,4959.379811,8216.285956,306.438199
144.414329,4219.173869,6957.935855,842.705048
144.414650,4441.235652,6735.874072,229.828649
144.414971,4663.297435,7254.018232,-1149.143247
144.415292,3627.009116,7105.977043,-1302.362347
144.415612,5255.462188,7254.018232,0.000000
144.415933,6587.832884,7254.018232,459.657299
144.416254,6143.709319,7328.038826,306.438199
144.416575,6365.771101,7920.203579,459.657299
144.416895,6143.709319,7698.141797,-919.314598
144.417216,5625.565159,7624.121203,-2145.067394
144.417537,6217.729913,7105.977043,-612.876398
144.417858,6735.874072,7328.038826,-306.438199
144.418179,6809.894666,6957.935855,-459.657299
144.418499,5699.585753,7994.224174,-229.828649
144.418820,5625.565159,8142.265362,-919.314598
144.419141,4885.359217,7772.162391,-1072.533697
144.419462,4885.359217,7179.997637,0.000000
144.419782,5255.462188,6365.771101,612.876398
144.420103,5773.606348,6439.791695,842.705048
144.420424,5403.503377,8438.347739,612.876398
144.420745,4441.235652,9770.718434,-1378.971896
144.421066,3923.091493,9770.718434,-2374.896044
144.421386,5847.626942,9326.594869,-919.314598
144.421707,5921.647536,7920.203579,536.266849
144.422028,4885.359217,7254.018232,1149.143247
144.422349,5181.441594,8364.327145,0.000000
144.422670,4663.297435,9326.594869,-1455.581446
144.422990,3404.947333,8512.368333,-919.314598
144.423311,5107.421000,8142.265362,0.000000
144.423632,6735.874072,8290.306550,689.485948
144.423953,4293.194464,7920.203579,383.047749
144.424273,5033.400406,8808.450710,-383.047749
144.424594,6661.853478,9178.553681,-1072.533697
144.424915,4885.359217,8734.430116,-1455.581446
144.425236,5477.523971,7846.182985,306.438199
144.425557,6439.791695,8068.244768,842.705048
144.425877,4959.379811,9178.553681,0.000000
144.426198,4663.297435,9918.759623,-459.657299
144.426519,4515.256246,9400.615463,-536.266849
144.426840,4737.318029,7105.977043,-1072.533697
144.427160,5033.400406,6661.853478,1149.143247
144.427481,4293.194464,5921.647536,2068.457845
144.427802,3997.112087,7402.059420,0.000000
144.428123,4219.173869,8882.471304,-612.876398
144.428444,3997.112087,9326.594869,-1762.019645
144.428764,4811.338623,9030.512492,-1302.362347
144.429085,5847.626942,8882.471304,536.266849
144.429406,4959.379811,8216.285956,536.266849
144.429727,3923.091493,7920.203579,-612.876398
144.430047,4219.173869,9104.533087,-459.657299
144.430368,4219.173869,9326.594869,-612.876398
144.430689,4071.132681,7179.997637,76.609550
144.431009,4959.379811,6513.812290,459.657299
144.431330,4441.235652,6513.812290,383.047749
144.431651,3923.091493,7105.977043,0.000000
144.431972,4441.235652,8808.450710,-536.266849
144.432292,4145.153275,8364.327145,-1302.362347
144.432613,4885.359217,8068.244768,-1072.533697
144.432934,6291.750507,8364.327145,536.266849
144.433254,5625.565159,8438.347739,842.705048
144.433575,5033.400406,8512.368333,0.000000
144.433896,5107.421000,8660.409521,-536.266849
144.434217,4737.318029,7994.224174,-612.876398
144.434537,4737.318029,7772.162391,536.266849
144.434858,4811.338623,7254.018232,1455.581446
144.435179,4885.359217,7179.997637,919.314598
144.435499,5329.482782,7328.038826,-536.266849
144.435820,4885.359217,8660.409521,-842.705048
144.436141,4293.194464,8734.430116,-306.438199
144.436462,4737.318029,7994.224174,76.609550
144.436782,6217.729913,8512.368333,1378.971896
144.437103,5847.626942,9178.553681,689.485948
144.437424,5551.544565,8956.491898,383.047749
144.437744,5625.565159,8512.368333,-153.219100
144.438065,4737.318029,7402.059420,-689.485948
144.438386,4811.338623,6513.812290,0.000000
144.438707,5255.462188,5921.647536,1072.533697
144.439027,5033.400406,6217.729913,612.876398
144.439348,5033.400406,7254.018232,76.609550
144.439669,5847.626942,8808.450710,-1225.752797
144.439989,6217.729913,9104.533087,-1762.019645
144.440310,6957.935855,8808.450710,-612.876398
144.440631,7476.080014,7846.182985,689.485948
144.440952,6809.894666,6883.915261,842.705048
144.441272,5921.647536,6957.935855,-383.047749
144.441593,5033.400406,7624.121203,-1072.533697
144.441914,5033.400406,8068.244768,-2298.286494
144.442235,5551.544565,8586.388927,-1455.581446
144.442555,5033.400406,8512.368333,-536.266849
144.442876,4737.318029,6513.812290,-383.047749
144.443197,5551.544565,6809.894666,383.047749
144.443517,4663.297435,8512.368333,0.000000
144.443838,2368.659014,8512.368333,-383.047749
144.444159,4663.297435,8142.265362,0.000000
144.444480,6661.853478,9104.533087,383.047749
144.444800,5403.503377,9400.615463,1455.581446
144.445121,4589.276840,8808.450710,153.219100
144.445442,5255.462188,9326.594869,-1915.238745
144.445762,3552.988522,9474.636058,-2451.505594
144.446083,3108.864956,8216.285956,0.000000
144.446404,4737.318029,7105.977043,1378.971896
144.446725,5477.523971,6735.874072,1532.190996
144.447045,4515.256246,9252.574275,919.314598
144.447366,4293.194464,9918.759623,-612.876398
144.447687,3701.029710,9844.739029,-2374.896044
144.448007,4737.318029,8438.347739,-1378.971896
144.448328,5773.606348,7328.038826,1072.533697
144.448649,5477.523971,7550.100608,689.485948
144.448970,4959.379811,8586.388927,-1072.533697
144.449290,4293.194464,9696.697840,-1762.019645
144.449611,4367.215058,9030.512492,-2298.286494
144.449932,5773.606348,7994.224174,0.000000
144.450252,5329.482782,7179.997637,1302.362347
144.450573,4737.318029,7031.956449,459.657299
144.450894,4811.338623,8142.265362,-536.266849
144.451215,3849.070898,8142.265362,-2068.457845
144.451535,5033.400406,7994.224174,-2298.286494
144.451856,6735.874072,8290.306550,0.000000
144.452177,6365.771101,9178.553681,1072.533697
144.452497,5551.544565,9992.780217,1072.533697
144.452818,4811.338623,9474.636058,153.219100
144.453139,4441.235652,7772.162391,-459.657299
144.453460,4367.215058,7105.977043,229.828649
144.453780,4589.276840,6809.894666,1532.190996
144.454101,4219.173869,7772.162391,1608.800546
144.454422,3627.009116,7920.203579,1072.533697
144.454743,4145.153275,8216.285956,0.000000
144.455063,4885.359217,8512.368333,-229.828649
144.455384,4293.194464,8068.244768,-306.438199
144.455705,4737.318029,8068.244768,536.266849
144.456025,5181.441594,7846.182985,689.485948
144.456346,4959.379811,8142.265362,0.000000
144.456667,4737.318029,8290.306550,0.000000
144.456988,5107.421000,8660.409521,-536.266849
144.457308,4441.235652,9178.553681,-689.485948
144.457629,4219.173869,8216.285956,0.000000
144.457950,4885.359217,7402.059420,383.047749
144.458270,4663.297435,6809.894666,459.657299
144.458591,3997.112087,7179.997637,459.657299
144.458912,4367.215058,7772.162391,-766.095498
144.459233,4737.318029,8142.265362,-995.924147
144.459553,5921.647536,8512.368333,-153.219100
144.459874,6143.709319,7624.121203,842.705048
144.460195,5699.585753,7846.182985,306.438199
144.460515,5033.400406,7994.224174,-306.438199
144.460836,5033.400406,7772.162391,-919.314598
144.461157,5033.400406,7402.059420,-383.047749
144.461478,5181.441594,6957.935855,76.609550
144.461798,5551.544565,6809.894666,153.219100
144.462119,5551.544565,7476.080014,459.657299
144.462440,5847.626942,8808.450710,-153.219100
144.462760,5773.606348,8808.450710,0.000000
144.463081,5921.647536,7920.203579,0.000000
144.463402,6291.750507,7550.100608,229.828649
144.463723,5181.441594,7550.100608,766.095498
144.464043,4959.379811,7698.141797,919.314598
144.464364,5921.647536,8734.430116,0.000000
144.464685,5181.441594,9770.718434,-1225.752797
144.465006,4737.318029,9030.512492,-1455.581446
144.465326,4959.379811,7328.038826,-536.266849
144.465647,5181.441594,6735.874072,536.266849
144.465968,4737.318029,6735.874072,766.095498
144.466288,4737.318029,8142.265362,306.438199
144.466609,4737.318029,9548.656652,-1455.581446
144.466930,5255.462188,10436.903782,-766.095498
144.467251,5551.544565,8734.430116,766.095498
144.467571,5773.606348,6587.832884,842.705048
144.467892,5329.482782,7105.977043,0.000000
144.468213,4663.297435,8364.327145,-1225.752797
144.468533,3478.967927,8290.306550,-2374.896044
144.468854,5329.482782,7476.080014,-1378.971896
144.469175,6143.709319,7624.121203,153.219100
144.469496,5181.441594,8290.306550,689.485948
144.469816,4145.153275,8142.265362,0.000000
144.470137,3923.091493,8956.491898,-1762.019645
144.470458,3775.050304,9252.574275,-1608.800546
144.470778,5255.462188,8808.450710,229.828649
144.471099,5625.565159,8068.244768,459.657299
144.471420,4589.276840,7920.203579,153.219100
144.471741,3923.091493,8660.409521,0.000000
144.472061,4219.173869,9770.718434,-919.314598
144.472382,4145.153275,8956.491898,-612.876398
144.472703,4737.318029,7105.977043,536.266849
144.473023,5107.421000,6513.812290,1378.971896
144.473344,4367.215058,6735.874072,1149.143247
144.473665,3849.070898,8364.327145,-459.657299
144.473986,4145.153275,9770.718434,-1455.581446
144.474306,4589.276840,9474.636058,-1455.581446
144.474627,6069.688724,9548.656652,0.000000
144.474948,5995.668130,8660.409521,842.705048
144.475268,5181.441594,7402.059420,306.438199
144.475589,4589.276840,7402.059420,0.000000
144.475910,4219.173869,7698.141797,-383.047749
144.476231,4663.297435,7994.224174,-612.876398
144.476551,5181.441594,7402.059420,0.000000
144.476872,4959.379811,6735.874072,612.876398
144.477193,5181.441594,6957.935855,1149.143247
144.477514,5329.482782,7772.162391,995.924147
144.477834,3997.112087,8142.265362,-612.876398
144.478155,4959.379811,7994.224174,-1685.410096
144.478476,6661.853478,8068.244768,-1378.971896
144.478796,5921.647536,7624.121203,536.266849
144.479117,5255.462188,7402.059420,536.266849
144.479438,5181.441594,7920.203579,-459.657299
144.479759,5181.441594,9326.594869,-1685.410096
144.480079,4071.132681,9030.512492,-995.924147
144.480400,4589.276840,7550.100608,-153.219100
144.480721,4959.379811,6217.729913,766.095498
144.481041,4293.194464,6883.915261,1838.629195
144.481362,4589.276840,8586.388927,1072.533697
144.481683,4293.194464,9770.718434,-459.657299
144.482004,4145.153275,9474.636058,-1455.581446
144.482324,4811.338623,9178.553681,-459.657299
144.482645,5329.482782,7476.080014,919.314598
144.482966,4663.297435,7179.997637,1072.533697
144.483286,3849.070898,8586.388927,306.438199
144.483607,3478.967927,8882.471304,-919.314598
144.483928,3997.112087,8734.430116,-1072.533697
144.484249,5255.462188,7846.182985,536.266849
144.484569,5699.585753,7031.956449,1685.410096
144.484890,5699.585753,7179.997637,766.095498
144.485211,4441.235652,8216.285956,-842.705048
144.485531,4811.338623,8512.368333,-2068.457845
144.485852,6143.709319,7624.121203,-1072.533697
144.486173,7105.977043,7476.080014,612.876398
144.486494,6513.812290,7772.162391,1302.362347
144.486814,5921.647536,7846.182985,0.000000
144.487135,5033.400406,8142.265362,-1532.190996
144.487456,5995.668130,7994.224174,-1762.019645
144.487777,7105.977043,7031.956449,-612.876398
144.488097,6587.832884,6587.832884,229.828649
144.488418,5847.626942,6883.915261,0.000000
144.488739,4737.318029,7994.224174,-995.924147
144.489059,4737.318029,8290.306550,-995.924147
144.489380,5403.503377,8956.491898,-1225.752797
144.489701,5699.585753,8586.388927,-459.657299
144.490022,5255.462188,7994.224174,76.609550
144.490342,5625.565159,8438.347739,612.876398
144.490663,5625.565159,7846.182985,383.047749
144.490984,4589.276840,7994.224174,0.000000
144.491304,4811.338623,8142.265362,0.000000
144.491625,5847.626942,8808.450710,229.828649
144.491946,5625.565159,7254.018232,766.095498
144.492267,6217.729913,5033.400406,919.314598
144.492587,7772.162391,4441.235652,459.657299
144.492908,7772.162391,5329.482782,0.000000
144.493229,7698.141797,5847.626942,0.000000
144.493549,9326.594869,5995.668130,-612.876398
144.493870,10881.027347,5477.523971,-459.657299
144.494191,11917.315666,5773.606348,612.876398
144.494512,11251.130318,5773.606348,76.609550
144.494832,10510.924376,5995.668130,-1991.848295
144.495153,10362.883188,5699.585753,-1991.848295
144.495474,9992.780217,5181.441594,-1532.190996
144.495794,9844.739029,4219.173869,76.609550
144.496115,9474.636058,3923.091493,306.438199
144.496436,8290.306550,4959.379811,0.000000
144.496757,7328.038826,6143.709319,-306.438199
144.497077,6957.935855,5921.647536,-689.485948
144.497398,7772.162391,5477.523971,-612.876398
144.497719,7846.182985,5921.647536,689.485948
144.498039,7772.162391,7328.038826,995.924147
144.498360,6069.688724,7846.182985,153.219100
144.498681,5921.647536,7402.059420,-612.876398
144.499002,7476.080014,7328.038826,-153.219100
144.499322,7402.059420,6587.832884,1072.533697
144.499643,7179.997637,5625.565159,1762.019645
144.499964,7328.038826,5847.626942,2145.067394
144.500285,6809.894666,5329.482782,1302.362347
144.500605,7698.141797,4367.215058,76.609550
144.500926,10066.800811,4145.153275,0.000000
144.501247,10955.047942,4737.318029,-842.705048
144.501567,11843.295072,5699.585753,-536.266849
144.501888,11769.274478,5033.400406,153.219100
144.502209,11177.109724,4071.132681,-306.438199
144.502530,11473.192101,4885.359217,76.609550
144.502850,11177.109724,5403.503377,-536.266849
144.503171,10362.883188,5625.565159,-2221.676944
144.503492,11103.089130,5551.544565,-2374.896044
144.503812,11029.068536,5773.606348,-1455.581446
144.504133,9400.615463,5329.482782,-383.047749
144.504454,8882.471304,4885.359217,612.876398
144.504775,8956.491898,5773.606348,612.876398
144.505095,7920.203579,5847.626942,0.000000
144.505416,7698.141797,4885.359217,-76.609550
144.505737,7994.224174,4441.235652,-383.047749
144.506057,8142.265362,5033.400406,383.047749
144.506378,8142.265362,6365.771101,2145.067394
144.506699,8290.306550,7105.977043,995.924147
144.507020,8142.265362,6513.812290,-689.485948
144.507340,8364.327145,5181.441594,-995.924147
144.507661,8364.327145,4071.132681,0.000000
144.507982,9696.697840,3923.091493,536.266849
144.508302,10436.903782,4367.215058,306.438199
144.508623,11917.315666,4811.338623,-612.876398
144.508944,12435.459826,5551.544565,-1378.971896
144.509265,11621.233289,6217.729913,-1685.410096
144.509585,10807.006753,5329.482782,-919.314598
144.509906,10881.027347,4663.297435,-459.657299
144.510227,10807.006753,4515.256246,-306.438199
144.510547,10214.842000,5033.400406,-383.047749
144.510868,9696.697840,5773.606348,-1762.019645
144.511189,9104.533087,5477.523971,-1455.581446
144.511510,8068.244768,5995.668130,-689.485948
144.511830,8216.285956,7031.956449,-306.438199
144.512151,8660.409521,7698.141797,0.000000
144.512472,7328.038826,7846.182985,459.657299
144.512793,7105.977043,6661.853478,1302.362347
144.513113,6957.935855,5181.441594,1455.581446
144.513434,6735.874072,4959.379811,1072.533697
144.513755,6809.894666,4885.359217,-612.876398
144.514075,7476.080014,5773.606348,-842.705048
144.514396,9104.533087,6587.832884,-1302.362347
144.514717,9474.636058,6735.874072,-153.219100
144.515038,10436.903782,6661.853478,689.485948
144.515358,10214.842000,6439.791695,1378.971896
144.515679,9030.512492,5921.647536,1378.971896
144.516000,8586.388927,4959.379811,995.924147
144.516320,9178.553681,4589.276840,612.876398
144.516641,9474.636058,4737.318029,0.000000
144.516962,9992.780217,5551.544565,-919.314598
144.517283,9918.759623,5699.585753,-2298.286494
144.517603,9548.656652,5477.523971,-1915.238745
144.517924,9548.656652,5181.441594,-383.047749
144.518245,9178.553681,4959.379811,1302.362347
144.518565,8734.430116,5033.400406,2145.067394
144.518886,8068.244768,5181.441594,919.314598
144.519207,8512.368333,4589.276840,-612.876398
144.519528,9104.533087,4811.338623,-995.924147
144.519848,8882.471304,5551.544565,-689.485948
144.520169,9104.533087,6217.729913,-766.095498
144.520490,8882.471304,6735.874072,-842.705048
144.520810,9178.553681,6291.750507,-689.485948
144.521131,9326.594869,5773.606348,-383.047749
144.521452,9474.636058,4811.338623,383.047749
144.521773,8734.430116,3849.070898,1149.143247
144.522093,8882.471304,3182.885551,1455.581446
144.522414,9696.697840,2590.720797,1225.752797
144.522735,10066.800811,3182.885551,229.828649
144.523056,9622.677246,4145.153275,-612.876398
144.523376,9918.759623,5107.421000,-1302.362347
144.523697,10807.006753,6217.729913,-1608.800546
144.524018,11843.295072,6809.894666,-995.924147
144.524338,12287.418637,6661.853478,-536.266849
144.524659,11399.171507,6217.729913,-612.876398
144.524980,10066.800811,5329.482782,0.000000
144.525301,9326.594869,5181.441594,995.924147
144.525621,9326.594869,4441.235652,1378.971896
144.525942,9326.594869,4663.297435,1149.143247
144.526263,9104.533087,5033.400406,306.438199
144.526583,9178.553681,5107.421000,306.438199
144.526904,8882.471304,5107.421000,-459.657299
144.527225,8586.388927,4737.318029,-383.047749
144.527546,9178.553681,5403.503377,-842.705048
144.527866,9992.780217,6661.853478,-766.095498
144.528187,9992.780217,7476.080014,-383.047749
144.528508,10436.903782,7772.162391,76.609550
144.528828,10362.883188,7031.956449,459.657299
144.529149,9622.677246,6365.771101,612.876398
144.529470,9252.574275,5255.462188,536.266849
144.529791,9696.697840,4663.297435,306.438199
144.530111,9326.594869,3627.009116,0.000000
144.530432,9844.739029,2590.720797,306.438199
144.530753,9918.759623,2812.782580,153.219100
144.531073,10140.821405,4219.173869,229.828649
144.531394,9622.677246,6587.832884,0.000000
144.531715,9844.739029,7920.203579,-153.219100
144.532036,9474.636058,8290.306550,0.000000
144.532357,8660.409521,7698.141797,0.000000
144.532677,6809.894666,7031.956449,459.657299
144.532998,5625.565159,6809.894666,-153.219100
144.533319,4811.338623,6365.771101,-306.438199
144.533640,4811.338623,5921.647536,-689.485948
144.533961,4959.379811,6513.812290,-229.828649
144.534281,4885.359217,7402.059420,0.000000
144.534602,4367.215058,8734.430116,766.095498
144.534923,4737.318029,9918.759623,1915.238745
144.535244,5551.544565,10436.903782,2757.943793
144.535565,5847.626942,9622.677246,3217.601092
144.535885,5477.523971,9030.512492,3294.210641
144.536206,5403.503377,7476.080014,2451.505594
144.536527,5033.400406,7846.182985,2451.505594
144.536848,5255.462188,8438.347739,3294.210641
144.537168,6587.832884,9104.533087,3140.991542
144.537489,7550.100608,9548.656652,3294.210641
144.537810,7179.997637,9178.553681,4290.134789
144.538131,6883.915261,8364.327145,4519.963438
144.538452,6809.894666,7550.100608,4826.401637
144.538772,6809.894666,7402.059420,4519.963438
144.539093,7624.121203,7698.141797,4903.011187
144.539414,8290.306550,8512.368333,5515.887586
144.539735,7920.203579,9178.553681,5515.887586
144.540056,7402.059420,9474.636058,6052.154434
144.540376,7105.977043,9178.553681,6971.469032
144.540697,6809.894666,8512.368333,6741.640382
144.541018,6809.894666,7846.182985,7048.078582
144.541339,6735.874072,6661.853478,6894.859482
144.541660,6439.791695,5625.565159,7201.297681
144.541980,5921.647536,4959.379811,6588.421283
144.542301,6291.750507,5477.523971,7277.907231
144.542622,6439.791695,6735.874072,6741.640382
144.542943,6217.729913,7772.162391,7277.907231
144.543263,6365.771101,8142.265362,7277.907231
144.543584,6291.750507,7624.121203,8120.612279
144.543905,5551.544565,7031.956449,8733.488677
144.544226,4737.318029,6439.791695,8580.269578
144.544547,4145.153275,5773.606348,7890.783629
144.544867,3701.029710,5625.565159,7354.516781
144.545188,2960.823768,5625.565159,7048.078582
144.545509,2368.659014,5033.400406,6358.592633
144.545830,2516.700203,5255.462188,6741.640382
144.546151,2442.679609,5773.606348,7048.078582
144.546471,2442.679609,6661.853478,6818.249932
144.546792,2812.782580,7328.038826,6971.469032
144.547113,3330.926739,7772.162391,6818.249932
144.547434,3478.967927,8290.306550,7048.078582
144.547755,3256.906145,7920.203579,6205.373534
144.548075,3478.967927,7031.956449,5209.449386
144.548396,3182.885551,6365.771101,4979.620737
144.548717,2886.803174,5625.565159,5132.839837
144.549038,2960.823768,4589.276840,5209.449386
144.549358,3256.906145,4219.173869,4903.011187
144.549679,3034.844362,4663.297435,4136.915689
144.550000,3849.070898,5329.482782,2987.772442
144.550321,5329.482782,6661.853478,2757.943793
144.550642,5773.606348,8438.347739,2451.505594
144.550962,6957.935855,9844.739029,2374.896044
144.551283,7031.956449,11177.109724,2681.334243
144.551604,6957.935855,10362.883188,2834.553343
144.551925,6143.709319,9770.718434,4213.525239
144.552246,5773.606348,8882.471304,5669.106685
144.552566,5551.544565,8956.491898,5209.449386
144.552887,4885.359217,8512.368333,4903.011187
144.553208,4071.132681,7624.121203,3830.477490
144.553529,3034.844362,5033.400406,2145.067394
144.553850,3256.906145,2590.720797,1608.800546
144.554170,4737.318029,2220.617826,1149.143247
144.554491,6217.729913,5773.606348,76.609550
144.554812,7254.018232,10881.027347,-1302.362347
144.555133,9326.594869,15470.304188,-2528.115143
144.555453,10881.027347,18431.127956,-1455.581446
144.555774,11177.109724,18505.148550,2451.505594
144.556095,9696.697840,16432.571912,4290.134789
144.556416,7550.100608,12139.377449,4903.011187
144.556737,5551.544565,8438.347739,6205.373534
144.557057,4959.379811,7179.997637,7814.174080
144.557378,2294.638420,6291.750507,6665.030833
144.557699,1184.329507,5625.565159,4749.792088
144.558020,1924.535449,6069.688724,3524.039291
144.558341,3404.947333,6513.812290,3294.210641
144.558661,4515.256246,6735.874072,3524.039291
144.558982,6883.915261,9252.574275,3064.381992
144.559303,7550.100608,12213.398043,2604.724693
144.559624,6513.812290,15618.345376,2145.067394
144.559945,7328.038826,16506.592507,1915.238745
144.560265,9918.759623,16358.551318,1455.581446
144.560586,8068.244768,13471.748144,3447.429741
144.560907,4441.235652,8216.285956,4366.744339
144.561228,3997.112087,3849.070898,5439.278036
144.561548,2664.741391,2516.700203,7584.345430
144.561869,444.123565,4441.235652,7124.688131
144.562190,3108.864956,6809.894666,4903.011187
144.562511,4959.379811,9030.512492,3983.696590
144.562832,4811.338623,8438.347739,6205.373534
144.563152,5181.441594,7105.977043,9652.803275
144.563473,7179.997637,7550.100608,10572.117872
144.563794,5107.421000,10362.883188,8656.879127
144.564115,1554.432478,10584.944971,6358.592633
144.564436,2442.679609,7698.141797,3830.477490
144.564756,4737.318029,4441.235652,4366.744339
144.565077,4293.194464,2886.803174,7737.564530
144.565398,5181.441594,6069.688724,10342.289223
144.565719,1702.473667,8734.430116,7660.954980
144.566040,962.267725,8882.471304,4060.306139
144.566360,1924.535449,5921.647536,4060.306139
144.566681,3849.070898,2368.659014,5669.106685
144.567002,4737.318029,1036.288319,7737.564530
144.567323,6217.729913,4441.235652,8580.269578
144.567643,5847.626942,10288.862594,6818.249932
144.567964,4589.276840,11843.295072,4903.011187
144.568285,3849.070898,8956.491898,5132.839837
144.568606,4515.256246,5403.503377,6818.249932
144.568927,1998.556043,3775.050304,8886.707777
144.569247,1258.350101,3627.009116,10189.070123
144.569568,4589.276840,5995.668130,9576.193725
144.569889,1628.453072,8882.471304,6894.859482
144.570210,2516.700203,11769.274478,5592.497135
144.570531,4071.132681,11325.150913,4673.182538
144.570851,4663.297435,9474.636058,3447.429741
144.571172,962.267725,5033.400406,3830.477490
144.571493,4293.194464,962.267725,5822.325785
144.571814,5477.523971,1850.514855,7277.907231
144.572135,3923.091493,6439.791695,6128.763984
144.572455,2220.617826,7920.203579,2681.334243
144.572776,5255.462188,9992.780217,-1225.752797
144.573097,7550.100608,11103.089130,229.828649
144.573418,6587.832884,11769.274478,4903.011187
144.573738,7624.121203,10288.862594,6128.763984
144.574059,7254.018232,9548.656652,2834.553343
144.574380,4811.338623,9178.553681,-229.828649
144.574701,3849.070898,7105.977043,-1225.752797
144.575022,4737.318029,5181.441594,-1149.143247
144.575342,5107.421000,4663.297435,1762.019645
144.575663,6143.709319,8660.409521,4903.011187
144.575984,5403.503377,10732.986159,4366.744339
144.576305,3552.988522,9548.656652,689.485948
144.576626,3701.029710,7698.141797,-1915.238745
144.576946,5107.421000,7624.121203,-2068.457845
144.577267,4071.132681,8290.306550,-1149.143247
144.577588,4885.359217,9918.759623,0.000000
144.577909,6587.832884,13397.727550,306.438199
144.578230,7179.997637,14508.036463,-306.438199
144.578550,5551.544565,13471.748144,-1072.533697
144.578871,4737.318029,10658.965565,-2068.457845
144.579192,4219.173869,8660.409521,536.266849
144.579513,5477.523971,8290.306550,3447.429741
144.579833,5551.544565,7328.038826,2451.505594
144.580154,4589.276840,7031.956449,-229.828649
144.580475,4589.276840,7328.038826,-1149.143247
144.580796,5921.647536,8660.409521,-919.314598
144.581117,6661.853478,8512.368333,-1532.190996
144.581437,6809.894666,9030.512492,-1608.800546
144.581758,7920.203579,9696.697840,-1532.190996
144.582079,8512.368333,10584.944971,76.609550
144.582400,7031.956449,11843.295072,612.876398
144.582721,6587.832884,12065.356855,-1762.019645
144.583041,6069.688724,11769.274478,-2298.286494
144.583362,5033.400406,9696.697840,306.438199
144.583683,4145.153275,7254.018232,3983.696590
144.584004,3627.009116,5921.647536,3447.429741
144.584325,2368.659014,5995.668130,1072.533697
144.584645,1110.308913,7105.977043,-1455.581446
144.584966,2442.679609,7328.038826,-1149.143247
144.585287,4367.215058,8512.368333,1991.848295
144.585608,3849.070898,8512.368333,3600.648841
144.585928,3256.906145,8142.265362,2451.505594
144.586249,3849.070898,8734.430116,842.705048
144.586570,3478.967927,10732.986159,-766.095498
144.586891,4885.359217,11621.233289,-1302.362347
144.587212,6143.709319,10881.027347,0.000000
144.587532,5255.462188,8586.388927,2911.162892
144.587853,3923.091493,7328.038826,5056.230287
144.588174,2664.741391,5625.565159,3983.696590
144.588495,1998.556043,4885.359217,536.266849
144.588816,1702.473667,4145.153275,-383.047749
144.589136,3775.050304,3552.988522,1762.019645
144.589457,6143.709319,4737.318029,4519.963438
144.589778,6217.729913,7254.018232,4903.011187
144.590099,4737.318029,9104.533087,2068.457845
144.590420,4071.132681,8512.368333,-1838.629195
144.590740,4367.215058,6735.874072,-2221.676944
144.591061,5033.400406,6143.709319,229.828649
