#time,accel_x,accel_y,accel_z
162.513526,4663.297435,7994.224174,0.000000
162.513846,4811.338623,7994.224174,0.000000
162.514167,4959.379811,8068.244768,-383.047749
162.514487,4959.379811,7920.203579,0.000000
162.514808,4885.359217,8290.306550,0.000000
162.515128,5107.421000,8290.306550,0.000000
162.515449,5033.400406,7846.182985,229.828649
162.515769,5181.441594,7772.162391,0.000000
162.516090,5033.400406,7994.224174,0.000000
162.516410,4959.379811,8216.285956,-229.828649
162.516731,5181.441594,8216.285956,0.000000
162.517051,5107.421000,7994.224174,0.000000
162.517372,4885.359217,8068.244768,-306.438199
162.517692,4885.359217,8068.244768,0.000000
162.518013,5033.400406,8068.244768,-229.828649
162.518333,5033.400406,8068.244768,0.000000
162.518654,5107.421000,8290.306550,306.438199
162.518974,5107.421000,7994.224174,0.000000
162.519295,4885.359217,7772.162391,-383.047749
162.519615,5033.400406,7846.182985,0.000000
162.519936,4959.379811,8142.265362,-306.438199
162.520256,4959.379811,7846.182985,0.000000
162.520577,4811.338623,7994.224174,-153.219100
162.520897,4737.318029,8142.265362,-153.219100
162.521218,4959.379811,8216.285956,0.000000
162.521538,5107.421000,7994.224174,0.000000
162.521859,4737.318029,8068.244768,-229.828649
162.522179,4885.359217,7920.203579,0.000000
162.522500,4885.359217,7846.182985,0.000000
162.522820,4885.359217,7698.141797,-153.219100
162.523141,5033.400406,8142.265362,-229.828649
162.523461,4959.379811,7994.224174,76.609550
162.523782,4737.318029,7698.141797,0.000000
162.524102,4441.235652,7624.121203,-383.047749
162.524423,4589.276840,7328.038826,-536.266849
162.524743,3923.091493,8364.327145,-459.657299
162.525064,4293.194464,9400.615463,-766.095498
162.525384,4663.297435,9992.780217,-919.314598
162.525705,4737.318029,9992.780217,-1302.362347
162.526025,4441.235652,9400.615463,-919.314598
162.526346,3997.112087,9326.594869,0.000000
162.526666,2960.823768,8734.430116,842.705048
162.526987,2664.741391,9178.553681,995.924147
162.527307,2516.700203,9326.594869,459.657299
162.527628,2516.700203,8660.409521,-229.828649
162.527948,3256.906145,8290.306550,-766.095498
162.528269,3404.947333,8882.471304,-536.266849
162.528589,3182.885551,9548.656652,0.000000
162.528910,3108.864956,9770.718434,153.219100
162.529230,2442.679609,9104.533087,153.219100
162.529551,2590.720797,8734.430116,306.438199
162.529871,2368.659014,9696.697840,-536.266849
162.530192,2146.597232,11177.109724,-1302.362347
162.530512,1258.350101,11843.295072,-1532.190996
162.530833,1332.370696,11917.315666,-1608.800546
162.531153,1628.453072,11325.150913,-1302.362347
162.531474,296.082377,11695.253884,-766.095498
162.531794,-740.205942,11991.336260,-306.438199
162.532115,-1480.411884,12583.501014,0.000000
162.532435,-1924.535449,12583.501014,689.485948
162.532756,-2072.576638,11547.212695,1685.410096
162.533076,-1184.329507,11547.212695,1378.971896
162.533397,-1332.370696,12361.439231,1685.410096
162.533717,-2812.782580,12657.521608,842.705048
162.534038,-2960.823768,11473.192101,-306.438199
162.534358,-1036.288319,10436.903782,-459.657299
162.534679,-666.185348,10436.903782,612.876398
162.534999,-740.205942,10584.944971,1762.019645
162.535320,-370.102971,10807.006753,842.705048
162.535640,74.020594,11251.130318,-919.314598
162.535961,888.247130,11843.295072,-1072.533697
162.536281,1628.453072,10436.903782,-689.485948
162.536602,2072.576638,9770.718434,-306.438199
162.536922,2886.803174,10214.842000,-306.438199
162.537243,2294.638420,10066.800811,-1225.752797
162.537563,2368.659014,9030.512492,-2068.457845
162.537884,2294.638420,9474.636058,-1991.848295
162.538204,2516.700203,9622.677246,-536.266849
162.538525,2146.597232,9844.739029,0.000000
162.538845,1628.453072,10140.821405,-383.047749
162.539166,1332.370696,10807.006753,-229.828649
162.539486,814.226536,10955.047942,-229.828649
162.539807,148.041188,10732.986159,-459.657299
162.540127,74.020594,10214.842000,0.000000
162.540448,222.061783,10066.800811,766.095498
162.540768,0.000000,9696.697840,1991.848295
162.541088,-666.185348,10214.842000,1608.800546
162.541409,-888.247130,10066.800811,995.924147
162.541729,74.020594,11103.089130,1072.533697
162.542050,814.226536,11029.068536,766.095498
162.542370,1332.370696,10732.986159,0.000000
162.542691,1702.473667,10436.903782,-1149.143247
162.543011,1850.514855,10362.883188,-1225.752797
162.543332,1554.432478,10066.800811,-536.266849
162.543652,1332.370696,9548.656652,0.000000
162.543973,2072.576638,9104.533087,76.609550
162.544293,2368.659014,9474.636058,229.828649
162.544614,1998.556043,9918.759623,0.000000
162.544934,2220.617826,10510.924376,-229.828649
162.545255,2368.659014,10584.944971,-536.266849
162.545575,3034.844362,10436.903782,-612.876398
162.545896,3182.885551,9918.759623,-1072.533697
162.546216,3108.864956,10066.800811,-1072.533697
162.546537,2072.576638,10436.903782,-919.314598
162.546857,1332.370696,10955.047942,-229.828649
162.547178,1702.473667,11325.150913,0.000000
162.547498,1110.308913,10881.027347,-766.095498
162.547819,740.205942,10510.924376,-1608.800546
162.548139,222.061783,10658.965565,-2145.067394
162.548460,-1628.453072,10214.842000,-1302.362347
162.548780,-1776.494261,9178.553681,76.609550
162.549101,-444.123565,9844.739029,1762.019645
162.549421,0.000000,11769.274478,2145.067394
162.549742,-296.082377,12731.542202,1838.629195
162.550062,-222.061783,13323.706956,689.485948
162.550383,222.061783,13175.665768,-229.828649
162.550703,740.205942,12657.521608,76.609550
162.551024,1554.432478,10881.027347,-229.828649
162.551344,1110.308913,9548.656652,-1302.362347
162.551665,666.185348,9474.636058,-1378.971896
162.551985,-666.185348,9326.594869,-1455.581446
162.552306,-2146.597232,9030.512492,-1762.019645
162.552626,-1258.350101,10362.883188,-1149.143247
162.552947,222.061783,12287.418637,306.438199
162.553267,814.226536,13323.706956,689.485948
162.553588,1258.350101,14063.912898,0.000000
162.553908,592.164754,13471.748144,-919.314598
162.554229,0.000000,12731.542202,-995.924147
162.554549,296.082377,11399.171507,-919.314598
162.554870,814.226536,9178.553681,-612.876398
162.555190,2220.617826,8290.306550,-766.095498
162.555511,2146.597232,9696.697840,-459.657299
162.555831,814.226536,10584.944971,459.657299
162.556152,-444.123565,11251.130318,1149.143247
162.556472,-222.061783,10658.965565,842.705048
162.556793,222.061783,8808.450710,1302.362347
162.557113,740.205942,7550.100608,1149.143247
162.557434,444.123565,8956.491898,229.828649
162.557754,296.082377,11325.150913,-1072.533697
162.558075,-296.082377,13619.789333,-2145.067394
162.558395,74.020594,13841.851115,-2374.896044
162.558716,1258.350101,13397.727550,-1225.752797
162.559036,1776.494261,13841.851115,612.876398
162.559357,814.226536,13323.706956,766.095498
162.559677,-1258.350101,11251.130318,0.000000
162.559998,-444.123565,9548.656652,0.000000
162.560318,-592.164754,8142.265362,1838.629195
162.560639,-1184.329507,7624.121203,1762.019645
162.560959,-1184.329507,8216.285956,1072.533697
162.561280,-740.205942,10066.800811,306.438199
162.561600,-888.247130,11251.130318,-766.095498
162.561921,0.000000,11029.068536,-306.438199
162.562241,1850.514855,11917.315666,-536.266849
162.562562,2294.638420,12213.398043,-306.438199
162.562882,1850.514855,11325.150913,-306.438199
162.563203,1924.535449,8216.285956,-1608.800546
162.563523,2146.597232,5921.647536,-1378.971896
162.563844,2368.659014,7698.141797,459.657299
162.564164,3552.988522,11103.089130,1378.971896
162.564485,2146.597232,14063.912898,-995.924147
162.564805,1850.514855,13101.645173,-3753.867940
162.565126,2738.761985,10584.944971,-3064.381992
162.565446,1406.391290,6957.935855,-1532.190996
162.565767,-962.267725,5255.462188,-536.266849
162.566087,0.000000,8068.244768,383.047749
162.566408,592.164754,13767.830521,229.828649
162.566728,-962.267725,16728.654289,0.000000
162.567049,-888.247130,15396.283594,0.000000
162.567369,370.102971,14211.954086,0.000000
162.567690,-1554.432478,13175.665768,536.266849
162.568010,-2664.741391,11399.171507,1302.362347
162.568331,-2072.576638,9696.697840,459.657299
162.568651,-740.205942,9474.636058,612.876398
162.568972,-740.205942,9696.697840,2451.505594
162.569292,-666.185348,10510.924376,2068.457845
162.569613,-1184.329507,10436.903782,919.314598
162.569933,296.082377,10510.924376,1149.143247
162.570254,2812.782580,9992.780217,1225.752797
162.570574,5181.441594,10066.800811,0.000000
162.570895,4885.359217,10362.883188,-995.924147
162.571215,3404.947333,10955.047942,-2298.286494
162.571536,3256.906145,10362.883188,-3217.601092
162.571856,2812.782580,9252.574275,-2987.772442
162.572177,2960.823768,8882.471304,-1915.238745
162.572497,3849.070898,10955.047942,-536.266849
162.572817,1850.514855,13471.748144,-306.438199
162.573138,0.000000,13619.789333,-1149.143247
162.573458,0.000000,10955.047942,-1762.019645
162.573779,-1776.494261,7994.224174,-689.485948
162.574100,-2146.597232,8068.244768,1149.143247
162.574421,-1924.535449,10214.842000,1608.800546
162.574741,-1554.432478,13545.768739,0.000000
162.575062,-1406.391290,14434.015869,-459.657299
162.575383,-1184.329507,13249.686362,-383.047749
162.575704,-1332.370696,10732.986159,919.314598
162.576024,-1184.329507,8660.409521,2757.943793
162.576345,-296.082377,9326.594869,4136.915689
162.576666,0.000000,10066.800811,2757.943793
162.576987,2220.617826,9770.718434,1072.533697
162.577308,2960.823768,8438.347739,-76.609550
162.577628,3034.844362,7105.977043,766.095498
162.577949,3627.009116,6587.832884,1838.629195
162.578270,5329.482782,6513.812290,153.219100
162.578591,5995.668130,6143.709319,-1838.629195
162.578911,8438.347739,6735.874072,-1915.238745
162.579232,8216.285956,8364.327145,-1762.019645
162.579553,6957.935855,9104.533087,-2681.334243
162.579874,7846.182985,9474.636058,-3140.991542
162.580195,7476.080014,9030.512492,-2451.505594
162.580515,5551.544565,6587.832884,-2068.457845
162.580836,5255.462188,7179.997637,-1225.752797
162.581157,4663.297435,9030.512492,-1532.190996
162.581478,1998.556043,10732.986159,-2681.334243
162.581798,1036.288319,10658.965565,-1072.533697
162.582119,1628.453072,9326.594869,0.000000
162.582440,1776.494261,9178.553681,1455.581446
162.582761,1628.453072,10807.006753,3447.429741
162.583082,-148.041188,12287.418637,2528.115143
162.583402,-1554.432478,11177.109724,306.438199
162.583723,814.226536,9844.739029,1455.581446
162.584044,2220.617826,8142.265362,2604.724693
162.584365,1110.308913,8142.265362,3217.601092
162.584685,2812.782580,9918.759623,3600.648841
162.585006,2368.659014,9918.759623,842.705048
162.585327,2738.761985,7772.162391,-1302.362347
162.585648,6069.688724,5773.606348,-1072.533697
162.585969,8734.430116,5921.647536,-306.438199
162.586289,8512.368333,6439.791695,76.609550
162.586610,9030.512492,6439.791695,-306.438199
162.586931,8660.409521,6217.729913,-3064.381992
162.587252,9622.677246,7476.080014,-3370.820191
162.587572,10288.862594,7698.141797,-2451.505594
162.587893,11621.233289,8586.388927,-3600.648841
162.588214,10510.924376,7402.059420,-4136.915689
162.588535,7105.977043,6291.750507,-4443.353888
162.588856,7698.141797,6661.853478,-3370.820191
162.589176,6513.812290,8438.347739,-612.876398
162.589497,2368.659014,8290.306550,-383.047749
162.589818,3182.885551,8290.306550,0.000000
162.590139,3182.885551,8068.244768,0.000000
162.590459,1554.432478,9252.574275,1072.533697
162.590780,1110.308913,11547.212695,2374.896044
162.591101,814.226536,13027.624579,2068.457845
162.591422,296.082377,10807.006753,1915.238745
162.591743,0.000000,7698.141797,2528.115143
162.592063,1628.453072,8808.450710,2834.553343
162.592384,0.000000,11103.089130,1991.848295
162.592705,-592.164754,11325.150913,1608.800546
162.593026,1184.329507,10066.800811,995.924147
162.593346,3478.967927,6957.935855,1455.581446
162.593667,5033.400406,5995.668130,2374.896044
162.593988,5995.668130,7402.059420,1532.190996
162.594309,4071.132681,7920.203579,-995.924147
162.594630,6735.874072,7624.121203,-1762.019645
162.594950,9178.553681,6291.750507,-1149.143247
162.595271,11695.253884,6217.729913,-459.657299
162.595592,11399.171507,7179.997637,0.000000
162.595913,9696.697840,9030.512492,-1838.629195
162.596233,7476.080014,7920.203579,-4749.792088
162.596554,8586.388927,5847.626942,-4060.306139
162.596875,10881.027347,5403.503377,-1072.533697
162.597196,10362.883188,4737.318029,459.657299
162.597517,5625.565159,4737.318029,76.609550
162.597837,3256.906145,5921.647536,-1378.971896
162.598158,4219.173869,8216.285956,-1378.971896
162.598479,4219.173869,8216.285956,689.485948
162.598800,3923.091493,6217.729913,1149.143247
162.599120,5255.462188,5625.565159,1455.581446
162.599441,2812.782580,7624.121203,1762.019645
162.599762,1998.556043,9474.636058,1225.752797
162.600083,2368.659014,9326.594869,1455.581446
162.600403,2960.823768,8290.306550,1072.533697
162.600724,4441.235652,8216.285956,1685.410096
162.601045,3701.029710,7920.203579,1072.533697
162.601366,3330.926739,9104.533087,-919.314598
162.601687,3108.864956,9104.533087,-1149.143247
162.602007,3108.864956,7476.080014,-919.314598
162.602328,5181.441594,5847.626942,0.000000
162.602649,7254.018232,6513.812290,229.828649
162.602970,5921.647536,8216.285956,-919.314598
162.603290,5699.585753,10881.027347,-1762.019645
162.603611,5995.668130,10732.986159,-1455.581446
162.603932,6365.771101,8734.430116,-1225.752797
162.604253,7402.059420,5403.503377,229.828649
162.604574,8216.285956,6217.729913,0.000000
162.604894,6069.688724,8808.450710,-1685.410096
162.605215,4219.173869,8882.471304,-3370.820191
162.605536,5033.400406,7476.080014,-3983.696590
162.605857,8142.265362,7105.977043,-1302.362347
162.606177,7994.224174,9178.553681,1991.848295
162.606498,5847.626942,9918.759623,1685.410096
162.606819,2960.823768,8660.409521,-1608.800546
162.607140,4219.173869,8438.347739,-1532.190996
162.607461,3849.070898,8216.285956,76.609550
162.607781,5255.462188,8068.244768,919.314598
162.608102,5773.606348,9474.636058,383.047749
162.608423,4737.318029,10214.842000,-383.047749
162.608744,3849.070898,9918.759623,-689.485948
162.609064,4663.297435,8586.388927,0.000000
162.609385,3256.906145,7179.997637,-153.219100
162.609706,4441.235652,7105.977043,766.095498
162.610027,4071.132681,8438.347739,1072.533697
162.610348,4145.153275,8660.409521,-612.876398
162.610668,5033.400406,7772.162391,-919.314598
162.610989,5773.606348,7994.224174,-536.266849
162.611310,5181.441594,7402.059420,0.000000
162.611631,5403.503377,6957.935855,0.000000
162.611951,6513.812290,7105.977043,-1302.362347
162.612272,6809.894666,7920.203579,-1302.362347
162.612593,6883.915261,8068.244768,-612.876398
162.612914,6883.915261,7994.224174,-919.314598
162.613235,6217.729913,7624.121203,-1072.533697
162.613555,7105.977043,8142.265362,-536.266849
162.613876,6587.832884,7698.141797,-536.266849
162.614197,4737.318029,7476.080014,-1302.362347
162.614518,4219.173869,6809.894666,-536.266849
162.614838,4737.318029,5921.647536,459.657299
162.615159,5551.544565,5921.647536,1072.533697
162.615480,5551.544565,7031.956449,1378.971896
162.615801,4515.256246,7994.224174,-306.438199
162.616122,4145.153275,7920.203579,0.000000
162.616442,5921.647536,6883.915261,919.314598
162.616763,5551.544565,5995.668130,1838.629195
162.617084,6365.771101,7254.018232,1685.410096
162.617405,6291.750507,8882.471304,536.266849
162.617725,3997.112087,8438.347739,-1532.190996
162.618046,5477.523971,7179.997637,-1532.190996
162.618367,7772.162391,6513.812290,153.219100
162.618688,6217.729913,6291.750507,229.828649
162.619009,6661.853478,7328.038826,-1072.533697
162.619329,6439.791695,8734.430116,-995.924147
162.619650,5107.421000,8438.347739,-459.657299
162.619971,6587.832884,7402.059420,1991.848295
162.620292,7031.956449,8142.265362,2068.457845
162.620612,4441.235652,7254.018232,-919.314598
162.620933,3849.070898,7994.224174,-1608.800546
162.621254,5773.606348,8512.368333,-383.047749
162.621575,5181.441594,8290.306550,766.095498
162.621896,5181.441594,7254.018232,1762.019645
162.622216,3627.009116,7550.100608,-689.485948
162.622537,2442.679609,9400.615463,-1072.533697
162.622858,3997.112087,11251.130318,1302.362347
162.623179,4885.359217,9844.739029,1072.533697
162.623499,4885.359217,6957.935855,76.609550
162.623820,5477.523971,6513.812290,766.095498
162.624141,4219.173869,7920.203579,689.485948
162.624462,3330.926739,8512.368333,-383.047749
162.624783,4885.359217,9178.553681,-1378.971896
162.625103,5625.565159,7994.224174,-1532.190996
162.625424,5625.565159,6661.853478,153.219100
162.625745,6291.750507,6439.791695,1225.752797
162.626066,5255.462188,8438.347739,76.609550
162.626386,5033.400406,9770.718434,-689.485948
162.626707,4959.379811,8290.306550,-1455.581446
162.627028,6439.791695,6735.874072,-1685.410096
162.627349,7105.977043,6365.771101,-536.266849
162.627670,6735.874072,8290.306550,-306.438199
162.627990,5255.462188,9918.759623,-1915.238745
162.628311,3923.091493,9178.553681,-2451.505594
162.628632,4071.132681,7328.038826,-842.705048
162.628953,5033.400406,6883.915261,1532.190996
162.629273,5033.400406,7550.100608,1302.362347
162.629594,3256.906145,8068.244768,0.000000
162.629915,3034.844362,9030.512492,-1915.238745
162.630236,4145.153275,8438.347739,-2145.067394
162.630557,5625.565159,7994.224174,-76.609550
162.630877,6587.832884,7772.162391,766.095498
162.631198,5033.400406,8734.430116,306.438199
162.631519,3330.926739,8956.491898,-919.314598
162.631840,3552.988522,7994.224174,-1532.190996
162.632160,5329.482782,7328.038826,-76.609550
162.632481,7254.018232,7772.162391,919.314598
162.632802,6957.935855,8586.388927,995.924147
162.633123,4737.318029,8438.347739,-1225.752797
162.633444,4959.379811,8216.285956,-2374.896044
162.633764,6217.729913,7994.224174,-612.876398
162.634085,6217.729913,7846.182985,689.485948
162.634406,7328.038826,7846.182985,842.705048
162.634727,7031.956449,7105.977043,-229.828649
162.635047,5625.565159,6883.915261,-995.924147
162.635368,5847.626942,7254.018232,0.000000
162.635689,5699.585753,8808.450710,383.047749
162.636010,4737.318029,9030.512492,-306.438199
162.636331,5995.668130,8142.265362,-689.485948
162.636651,7550.100608,6661.853478,-229.828649
162.636972,5551.544565,6513.812290,-689.485948
162.637293,4441.235652,7772.162391,-153.219100
162.637614,2960.823768,9548.656652,76.609550
162.637934,3849.070898,8216.285956,0.000000
162.638255,6069.688724,8364.327145,766.095498
162.638576,7105.977043,9696.697840,1302.362347
162.638897,3552.988522,8808.450710,-1608.800546
162.639218,2664.741391,8290.306550,-1378.971896
162.639538,3330.926739,7328.038826,459.657299
162.639859,3256.906145,6217.729913,919.314598
162.640180,5107.421000,6439.791695,1302.362347
162.640501,4515.256246,8512.368333,-459.657299
162.640821,2368.659014,9696.697840,-1302.362347
162.641142,3775.050304,10066.800811,76.609550
162.641463,5847.626942,8882.471304,689.485948
162.641784,5699.585753,7254.018232,536.266849
162.642105,5995.668130,7772.162391,995.924147
162.642425,3552.988522,8364.327145,-689.485948
162.642746,2368.659014,8142.265362,-1838.629195
162.643067,4441.235652,8290.306550,-153.219100
162.643388,5699.585753,7772.162391,0.000000
162.643708,4293.194464,7698.141797,-536.266849
162.644029,4441.235652,9400.615463,383.047749
162.644350,4811.338623,10955.047942,536.266849
162.644671,2738.761985,9400.615463,229.828649
162.644992,3034.844362,6809.894666,383.047749
162.645312,4589.276840,6587.832884,766.095498
162.645633,4219.173869,8808.450710,1302.362347
162.645954,3256.906145,10140.821405,612.876398
162.646275,4589.276840,9252.574275,-1762.019645
162.646595,3849.070898,7550.100608,-2145.067394
162.646916,3923.091493,7550.100608,0.000000
162.647237,5329.482782,8290.306550,1225.752797
162.647558,4515.256246,8956.491898,459.657299
162.647879,4145.153275,9104.533087,1072.533697
162.648199,5181.441594,8808.450710,612.876398
162.648520,4589.276840,7476.080014,-383.047749
162.648841,4441.235652,7846.182985,-1225.752797
162.649162,5921.647536,9844.739029,-383.047749
162.649482,5329.482782,9178.553681,-306.438199
162.649803,5773.606348,6735.874072,0.000000
162.650124,6069.688724,4959.379811,1072.533697
162.650445,6439.791695,5477.523971,306.438199
162.650766,5255.462188,7994.224174,-153.219100
162.651086,5921.647536,10140.821405,-766.095498
162.651407,5403.503377,9104.533087,-2604.724693
162.651728,6809.894666,6365.771101,-995.924147
162.652049,7550.100608,5995.668130,995.924147
162.652369,6143.709319,6957.935855,153.219100
162.652690,4071.132681,8512.368333,-1149.143247
162.653011,4737.318029,7698.141797,-2451.505594
162.653332,5625.565159,7105.977043,-2374.896044
162.653653,7031.956449,7254.018232,689.485948
162.653973,5995.668130,8734.430116,1455.581446
162.654294,4959.379811,9030.512492,0.000000
162.654615,3997.112087,7476.080014,-1532.190996
162.654936,4959.379811,6143.709319,-1149.143247
162.655256,6661.853478,6143.709319,383.047749
162.655577,6143.709319,6809.894666,1225.752797
162.655898,5255.462188,7254.018232,0.000000
162.656219,5107.421000,8290.306550,-1225.752797
162.656540,6735.874072,9400.615463,-842.705048
162.656860,5773.606348,8734.430116,-612.876398
162.657181,6143.709319,8734.430116,-612.876398
162.657502,4885.359217,8438.347739,-459.657299
162.657823,3775.050304,7846.182985,-306.438199
162.658143,4885.359217,8660.409521,-306.438199
162.658464,4441.235652,9992.780217,-919.314598
162.658785,2886.803174,9696.697840,-459.657299
162.659106,3997.112087,10140.821405,612.876398
162.659427,2664.741391,9696.697840,0.000000
162.659747,1924.535449,9400.615463,-383.047749
162.660068,2442.679609,10362.883188,766.095498
162.660389,740.205942,9770.718434,306.438199
162.660710,814.226536,9474.636058,383.047749
162.661030,3404.947333,9030.512492,919.314598
162.661351,3182.885551,9326.594869,-536.266849
162.661672,2812.782580,10584.944971,-229.828649
162.661993,3108.864956,10732.986159,536.266849
162.662314,1998.556043,8956.491898,0.000000
162.662634,3849.070898,7920.203579,919.314598
162.662955,5921.647536,8364.327145,2068.457845
162.663276,4885.359217,9104.533087,153.219100
162.663597,3997.112087,8734.430116,-1149.143247
162.663917,4145.153275,8142.265362,-1455.581446
162.664238,5107.421000,6883.915261,-995.924147
162.664559,7179.997637,7698.141797,919.314598
162.664880,6661.853478,8956.491898,1302.362347
162.665201,3849.070898,8290.306550,-1378.971896
162.665521,4441.235652,7105.977043,-1608.800546
162.665842,5329.482782,6735.874072,0.000000
162.666163,4959.379811,6439.791695,1685.410096
162.666484,5033.400406,6661.853478,1455.581446
162.666804,4293.194464,7254.018232,-612.876398
162.667125,3997.112087,6957.935855,-2298.286494
162.667446,5107.421000,7920.203579,-459.657299
162.667767,4071.132681,8068.244768,76.609550
162.668088,3478.967927,7402.059420,-306.438199
162.668408,5033.400406,7550.100608,842.705048
162.668729,4367.215058,7772.162391,995.924147
162.669050,4885.359217,7105.977043,76.609550
162.669371,5995.668130,7698.141797,-153.219100
162.669691,4441.235652,7624.121203,-1225.752797
162.670012,4811.338623,6957.935855,-612.876398
162.670333,7846.182985,5921.647536,0.000000
162.670654,7994.224174,7031.956449,229.828649
162.670975,6883.915261,7846.182985,229.828649
162.671295,5847.626942,8068.244768,766.095498
162.671616,6365.771101,6883.915261,-919.314598
162.671937,8068.244768,7105.977043,0.000000
162.672258,9104.533087,7994.224174,1302.362347
162.672578,7550.100608,7772.162391,-306.438199
162.672899,5551.544565,7476.080014,-1455.581446
162.673220,5477.523971,7624.121203,-995.924147
162.673541,6069.688724,7994.224174,-536.266849
162.673861,6365.771101,8438.347739,76.609550
162.674182,4737.318029,9104.533087,-306.438199
162.674503,4737.318029,9622.677246,0.000000
162.674823,4441.235652,8808.450710,229.828649
162.675144,3182.885551,7402.059420,766.095498
162.675464,3997.112087,9400.615463,153.219100
162.675785,3478.967927,10288.862594,-306.438199
162.676106,962.267725,9844.739029,-1455.581446
162.676426,3701.029710,8290.306550,-1608.800546
162.676747,5033.400406,9030.512492,0.000000
162.677068,3182.885551,10140.821405,459.657299
162.677388,3182.885551,10658.965565,-153.219100
162.677709,2812.782580,9844.739029,0.000000
162.678030,2960.823768,7698.141797,0.000000
162.678350,5329.482782,8586.388927,1838.629195
162.678671,5107.421000,9178.553681,612.876398
162.678992,2368.659014,8142.265362,-2068.457845
162.679312,4441.235652,7624.121203,-1608.800546
162.679633,6809.894666,7698.141797,-995.924147
162.679953,6217.729913,7920.203579,0.000000
162.680274,5773.606348,7624.121203,0.000000
162.680595,5181.441594,8290.306550,-919.314598
162.680915,4959.379811,8512.368333,-306.438199
162.681236,6143.709319,7846.182985,1302.362347
162.681557,6365.771101,6957.935855,612.876398
162.681877,5181.441594,6439.791695,-842.705048
162.682198,4737.318029,8438.347739,-1149.143247
162.682519,3923.091493,8882.471304,-1838.629195
162.682839,4367.215058,7402.059420,-2145.067394
162.683160,6587.832884,8068.244768,-153.219100
162.683481,5255.462188,7920.203579,689.485948
162.683801,3775.050304,7550.100608,1302.362347
162.684122,4293.194464,7624.121203,1762.019645
162.684442,4515.256246,7846.182985,459.657299
162.684763,4071.132681,7328.038826,0.000000
162.685084,4959.379811,7254.018232,-229.828649
162.685404,5033.400406,7476.080014,-995.924147
162.685725,5477.523971,7698.141797,0.000000
162.686046,6809.894666,8290.306550,1072.533697
162.686366,6439.791695,8068.244768,153.219100
162.686687,4811.338623,7994.224174,153.219100
162.687008,5625.565159,7254.018232,1149.143247
162.687328,6883.915261,7328.038826,1762.019645
162.687649,6735.874072,8290.306550,536.266849
162.687970,5625.565159,7550.100608,-612.876398
162.688290,5181.441594,6439.791695,-1532.190996
162.688611,5551.544565,6439.791695,-766.095498
162.688931,5477.523971,7254.018232,919.314598
162.689252,5181.441594,7328.038826,689.485948
162.689573,5033.400406,7550.100608,-306.438199
162.689893,4959.379811,8734.430116,383.047749
162.690214,5033.400406,8216.285956,766.095498
162.690535,6069.688724,8512.368333,689.485948
162.690855,6069.688724,8512.368333,153.219100
162.691176,3775.050304,7994.224174,-1225.752797
162.691497,3182.885551,6957.935855,-1532.190996
162.691817,4959.379811,5847.626942,-1149.143247
162.692138,5477.523971,7031.956449,-536.266849
162.692459,6143.709319,8068.244768,0.000000
162.692779,5921.647536,8660.409521,-1378.971896
162.693100,4219.173869,7624.121203,-1455.581446
162.693420,4737.318029,6735.874072,459.657299
162.693741,7328.038826,8216.285956,2451.505594
162.694062,5255.462188,7994.224174,995.924147
162.694382,4219.173869,7254.018232,-2221.676944
162.694703,5921.647536,6883.915261,-2757.943793
162.695024,6217.729913,7179.997637,-1915.238745
162.695344,6587.832884,9178.553681,383.047749
162.695665,5033.400406,9548.656652,612.876398
162.695986,3404.947333,8364.327145,-1072.533697
162.696306,4959.379811,8808.450710,306.438199
162.696627,5625.565159,9548.656652,1762.019645
162.696948,3701.029710,8364.327145,153.219100
162.697268,3997.112087,8068.244768,-1455.581446
162.697589,4145.153275,8438.347739,-1072.533697
162.697909,3775.050304,8438.347739,-1149.143247
162.698230,5181.441594,7698.141797,-153.219100
162.698551,5033.400406,8808.450710,-1302.362347
162.698871,3997.112087,10214.842000,-919.314598
162.699192,4071.132681,10288.862594,1302.362347
162.699513,4589.276840,8660.409521,842.705048
162.699833,5181.441594,7402.059420,995.924147
162.700154,5921.647536,8808.450710,1302.362347
162.700475,3997.112087,9326.594869,-766.095498
162.700795,3997.112087,7328.038826,-2681.334243
162.701116,6735.874072,7105.977043,-2451.505594
162.701437,7920.203579,7031.956449,-1378.971896
162.701757,7105.977043,7624.121203,459.657299
162.702078,6735.874072,8290.306550,1762.019645
162.702398,5699.585753,8438.347739,842.705048
162.702719,6439.791695,7550.100608,536.266849
162.703040,7254.018232,7402.059420,612.876398
162.703360,7105.977043,7105.977043,-536.266849
162.703681,5403.503377,5995.668130,-229.828649
162.704002,5847.626942,5551.544565,-153.219100
162.704322,5699.585753,5403.503377,0.000000
162.704643,5551.544565,7328.038826,-153.219100
162.704964,4589.276840,8808.450710,0.000000
162.705284,3256.906145,8734.430116,-536.266849
162.705605,4293.194464,8068.244768,306.438199
162.705926,5995.668130,7920.203579,1991.848295
162.706246,5403.503377,8142.265362,1608.800546
162.706567,2812.782580,8142.265362,-306.438199
162.706887,2294.638420,7402.059420,-1991.848295
162.707208,1924.535449,5625.565159,-2068.457845
162.707529,5329.482782,6143.709319,153.219100
162.707849,5921.647536,6957.935855,1225.752797
162.708170,4885.359217,7920.203579,-1225.752797
162.708491,5255.462188,9400.615463,-1149.143247
162.708811,5921.647536,10140.821405,76.609550
162.709132,6291.750507,8142.265362,1072.533697
162.709453,7624.121203,6587.832884,1302.362347
162.709773,6735.874072,7105.977043,153.219100
162.710094,4145.153275,6365.771101,-1762.019645
162.710415,6365.771101,6735.874072,-1838.629195
162.710735,7698.141797,6661.853478,-1378.971896
162.711056,6809.894666,7920.203579,0.000000
162.711376,5181.441594,8512.368333,689.485948
162.711697,4367.215058,8882.471304,76.609550
162.712018,4293.194464,8068.244768,459.657299
162.712338,6069.688724,8586.388927,2221.676944
162.712659,4885.359217,8142.265362,1072.533697
162.712980,2960.823768,7105.977043,-2068.457845
162.713300,3997.112087,7402.059420,-2145.067394
162.713621,5255.462188,8512.368333,-689.485948
162.713942,4293.194464,10362.883188,-536.266849
162.714262,4515.256246,10510.924376,-306.438199
162.714583,3034.844362,10584.944971,-1608.800546
162.714904,3330.926739,9252.574275,-1302.362347
162.715224,3849.070898,9178.553681,1149.143247
162.715545,3849.070898,9178.553681,1608.800546
162.715865,3997.112087,9252.574275,76.609550
162.716186,3552.988522,7846.182985,-1149.143247
162.716507,3997.112087,7105.977043,-2068.457845
162.716827,5921.647536,8734.430116,-536.266849
162.717148,6217.729913,8956.491898,229.828649
162.717469,5255.462188,8586.388927,0.000000
162.717789,5181.441594,7179.997637,306.438199
162.718110,6735.874072,8586.388927,459.657299
162.718431,6291.750507,8956.491898,1072.533697
162.718751,4811.338623,8956.491898,-153.219100
162.719072,5625.565159,7550.100608,-1685.410096
162.719393,5847.626942,6809.894666,-2374.896044
162.719713,6513.812290,7550.100608,0.000000
162.720034,7031.956449,8734.430116,766.095498
162.720354,4145.153275,8882.471304,0.000000
162.720675,3256.906145,7846.182985,-1072.533697
162.720996,3997.112087,7846.182985,-459.657299
162.721316,5181.441594,7920.203579,153.219100
162.721637,5551.544565,7920.203579,536.266849
162.721958,4811.338623,8364.327145,-229.828649
162.722278,3627.009116,7698.141797,-995.924147
162.722599,4145.153275,6587.832884,-536.266849
162.722920,5625.565159,7105.977043,536.266849
162.723240,5329.482782,7624.121203,229.828649
162.723561,4959.379811,7698.141797,-383.047749
162.723882,4959.379811,7031.956449,-612.876398
162.724202,5847.626942,6661.853478,-229.828649
162.724523,7254.018232,7846.182985,842.705048
162.724843,6957.935855,7846.182985,383.047749
162.725164,5329.482782,7624.121203,-1378.971896
162.725485,5625.565159,7031.956449,-1149.143247
162.725805,6291.750507,6365.771101,0.000000
162.726126,7254.018232,7550.100608,1149.143247
162.726447,6809.894666,8808.450710,459.657299
162.726767,4441.235652,9178.553681,-919.314598
162.727088,4145.153275,8216.285956,-1225.752797
162.727409,5181.441594,8216.285956,383.047749
162.727729,5403.503377,8068.244768,1991.848295
162.728050,2812.782580,7920.203579,1149.143247
162.728371,3108.864956,7624.121203,-153.219100
162.728691,3775.050304,7550.100608,-1072.533697
162.729012,3404.947333,7402.059420,383.047749
162.729332,3849.070898,8068.244768,842.705048
162.729653,3627.009116,9622.677246,0.000000
162.729974,1924.535449,9326.594869,-1149.143247
162.730294,4367.215058,8512.368333,0.000000
162.730615,6291.750507,8290.306550,766.095498
162.730936,4441.235652,9252.574275,-536.266849
162.731256,4219.173869,9992.780217,-1455.581446
162.731577,3997.112087,9622.677246,-1762.019645
162.731898,5107.421000,8734.430116,-1378.971896
162.732218,7105.977043,8364.327145,612.876398
162.732539,6365.771101,8808.450710,306.438199
162.732860,3256.906145,8438.347739,-1608.800546
162.733180,3182.885551,8734.430116,-689.485948
162.733501,4367.215058,7624.121203,76.609550
162.733821,5033.400406,7476.080014,1225.752797
162.734142,5329.482782,7254.018232,1532.190996
162.734463,3552.988522,7328.038826,-306.438199
162.734783,2886.803174,8290.306550,-1149.143247
162.735104,5033.400406,10362.883188,612.876398
162.735425,4737.318029,10362.883188,766.095498
162.735745,4071.132681,8438.347739,-153.219100
162.736066,4219.173869,8586.388927,229.828649
162.736387,3330.926739,8808.450710,0.000000
162.736707,3182.885551,9548.656652,-76.609550
162.737028,4515.256246,9696.697840,-459.657299
162.737349,3701.029710,9030.512492,-2451.505594
162.737669,3775.050304,8734.430116,-919.314598
162.737990,5107.421000,7476.080014,1225.752797
162.738310,5403.503377,7550.100608,689.485948
162.738631,4441.235652,7402.059420,-153.219100
162.738952,4663.297435,7179.997637,-306.438199
162.739272,4885.359217,7105.977043,0.000000
162.739593,6735.874072,6661.853478,919.314598
162.739914,7402.059420,7624.121203,76.609550
162.740234,6735.874072,7846.182985,-1608.800546
162.740555,5403.503377,7920.203579,-2298.286494
162.740876,6069.688724,8364.327145,-612.876398
162.741196,6069.688724,6809.894666,153.219100
162.741517,6883.915261,7254.018232,1149.143247
162.741838,6291.750507,8068.244768,919.314598
162.742158,3849.070898,7624.121203,-459.657299
162.742479,3478.967927,7550.100608,-689.485948
162.742799,5329.482782,6587.832884,-459.657299
162.743120,5255.462188,7105.977043,-459.657299
162.743441,4959.379811,8216.285956,612.876398
162.743761,2738.761985,7994.224174,0.000000
162.744082,3108.864956,7994.224174,-536.266849
162.744403,4293.194464,8734.430116,306.438199
162.744723,4145.153275,9696.697840,842.705048
162.745044,3627.009116,9474.636058,383.047749
162.745365,4515.256246,9252.574275,-459.657299
162.745685,4145.153275,8586.388927,0.000000
162.746006,3923.091493,7994.224174,766.095498
162.746327,5255.462188,7402.059420,689.485948
162.746647,4145.153275,7846.182985,-459.657299
162.746968,2960.823768,7031.956449,-1072.533697
162.747288,5773.606348,7328.038826,-766.095498
162.747609,7105.977043,8808.450710,229.828649
162.747930,5181.441594,9770.718434,689.485948
162.748250,5921.647536,9104.533087,153.219100
162.748571,5625.565159,7550.100608,0.000000
162.748892,5773.606348,7328.038826,0.000000
162.749212,5699.585753,7994.224174,1072.533697
162.749533,5107.421000,8586.388927,-153.219100
162.749854,4145.153275,8586.388927,-1378.971896
162.750174,5181.441594,9474.636058,-76.609550
162.750495,5625.565159,9030.512492,0.000000
162.750816,4663.297435,9326.594869,-306.438199
162.751136,2960.823768,9474.636058,766.095498
162.751457,1628.453072,9178.553681,995.924147
162.751777,3627.009116,7698.141797,1072.533697
162.752098,4737.318029,7179.997637,842.705048
162.752419,4885.359217,8364.327145,-153.219100
162.752739,3256.906145,8956.491898,-919.314598
162.753060,3034.844362,9696.697840,-1455.581446
162.753381,3997.112087,7698.141797,-612.876398
162.753701,5477.523971,7476.080014,919.314598
162.754022,6365.771101,8882.471304,612.876398
162.754343,4219.173869,8438.347739,-1378.971896
162.754663,3627.009116,8068.244768,-1915.238745
162.754984,6291.750507,7772.162391,-766.095498
162.755305,6291.750507,7920.203579,0.000000
162.755625,5847.626942,7476.080014,76.609550
162.755946,5403.503377,7550.100608,-612.876398
162.756266,4885.359217,6957.935855,-842.705048
162.756587,6217.729913,6809.894666,-153.219100
162.756908,6661.853478,7179.997637,-536.266849
162.757228,5773.606348,8068.244768,-1072.533697
162.757549,5181.441594,8512.368333,-766.095498
162.757870,5033.400406,7624.121203,76.609550
162.758190,5625.565159,7624.121203,842.705048
162.758511,5625.565159,7624.121203,766.095498
162.758832,3330.926739,7624.121203,-995.924147
162.759152,3478.967927,6957.935855,-1915.238745
162.759473,4811.338623,7994.224174,-1378.971896
162.759794,5995.668130,8660.409521,229.828649
162.760114,6217.729913,9030.512492,689.485948
162.760435,5107.421000,8512.368333,-766.095498
162.760755,3701.029710,8142.265362,-1532.190996
162.761076,5477.523971,7994.224174,76.609550
162.761397,6661.853478,8216.285956,919.314598
162.761717,6291.750507,8290.306550,-383.047749
162.762038,5181.441594,8512.368333,-919.314598
162.762359,5329.482782,8734.430116,-1225.752797
162.762679,5995.668130,8216.285956,-536.266849
162.763000,7105.977043,8660.409521,1072.533697
162.763321,5921.647536,8734.430116,1149.143247
162.763641,4441.235652,8290.306550,536.266849
162.763962,3849.070898,7179.997637,995.924147
162.764283,6365.771101,7105.977043,1225.752797
162.764603,6217.729913,7254.018232,536.266849
162.764924,4071.132681,7031.956449,-1225.752797
162.765244,3923.091493,9030.512492,-2374.896044
162.765565,4441.235652,9548.656652,-1608.800546
162.765886,4885.359217,8586.388927,0.000000
162.766206,7105.977043,8956.491898,1532.190996
162.766527,4737.318029,10066.800811,0.000000
162.766848,2516.700203,10732.986159,-1149.143247
162.767168,3182.885551,9770.718434,459.657299
162.767489,4515.256246,8290.306550,536.266849
162.767810,4737.318029,7772.162391,1455.581446
162.768130,3552.988522,8216.285956,306.438199
162.768451,1332.370696,6809.894666,-2374.896044
162.768772,2516.700203,6809.894666,-1608.800546
162.769092,3478.967927,8216.285956,689.485948
162.769413,4737.318029,8438.347739,1302.362347
162.769733,5551.544565,7772.162391,459.657299
162.770054,4737.318029,7772.162391,-229.828649
162.770375,5033.400406,8364.327145,459.657299
162.770695,5255.462188,8512.368333,76.609550
162.771016,5329.482782,7772.162391,-459.657299
162.771337,4663.297435,6143.709319,-1225.752797
162.771657,6439.791695,6291.750507,-153.219100
162.771978,6883.915261,6513.812290,-612.876398
162.772299,5477.523971,6587.832884,-1685.410096
162.772619,5477.523971,8734.430116,-1149.143247
162.772940,4589.276840,8586.388927,-1455.581446
162.773261,4071.132681,5995.668130,0.000000
162.773581,8142.265362,6143.709319,2451.505594
162.773902,7105.977043,7550.100608,2145.067394
162.774222,3775.050304,7698.141797,-229.828649
162.774543,4663.297435,8290.306550,-2451.505594
162.774864,5921.647536,8956.491898,-2374.896044
162.775184,6513.812290,8808.450710,-612.876398
162.775505,7994.224174,8216.285956,612.876398
162.775826,6143.709319,8216.285956,-842.705048
162.776146,3627.009116,8142.265362,-1225.752797
162.776466,3923.091493,8068.244768,995.924147
162.776787,4589.276840,7254.018232,842.705048
162.777108,6143.709319,7846.182985,536.266849
162.777428,5181.441594,8660.409521,306.438199
162.777749,4959.379811,8512.368333,-459.657299
162.778069,5477.523971,7920.203579,-766.095498
162.778390,6439.791695,6735.874072,0.000000
162.778711,6365.771101,7402.059420,459.657299
162.779031,5773.606348,7624.121203,306.438199
162.779352,4737.318029,7846.182985,-919.314598
162.779672,6143.709319,8290.306550,-459.657299
162.779993,7254.018232,8956.491898,76.609550
162.780313,7179.997637,9474.636058,-1072.533697
162.780634,5551.544565,8438.347739,-2145.067394
162.780955,5847.626942,7402.059420,-2068.457845
162.781275,6365.771101,7476.080014,-459.657299
162.781596,5921.647536,7402.059420,383.047749
162.781916,4441.235652,8512.368333,0.000000
162.782237,4071.132681,8364.327145,-842.705048
162.782557,4811.338623,8882.471304,-689.485948
162.782878,5551.544565,9400.615463,229.828649
162.783199,4663.297435,8216.285956,383.047749
162.783519,3034.844362,7105.977043,0.000000
162.783840,3478.967927,8216.285956,612.876398
162.784160,2886.803174,8142.265362,995.924147
162.784481,4367.215058,8808.450710,383.047749
162.784802,5255.462188,8586.388927,-612.876398
162.785122,3701.029710,8438.347739,-1149.143247
162.785443,3108.864956,7920.203579,-919.314598
162.785763,4885.359217,7254.018232,306.438199
162.786084,5181.441594,6957.935855,459.657299
162.786404,5477.523971,7624.121203,995.924147
162.786725,3923.091493,8068.244768,0.000000
162.787046,3552.988522,7994.224174,-2451.505594
162.787366,4663.297435,8438.347739,-1532.190996
162.787687,6069.688724,8956.491898,-153.219100
162.788007,6217.729913,8438.347739,-536.266849
162.788328,5699.585753,7550.100608,-689.485948
162.788649,4885.359217,7476.080014,-1149.143247
162.788969,5181.441594,9548.656652,-306.438199
162.789290,4811.338623,9992.780217,1149.143247
162.789610,4737.318029,9992.780217,459.657299
162.789931,4219.173869,7772.162391,0.000000
162.790251,5329.482782,6957.935855,1072.533697
162.790572,4959.379811,7402.059420,1532.190996
162.790893,3330.926739,7920.203579,459.657299
162.791213,1554.432478,7402.059420,-766.095498
162.791534,3849.070898,7105.977043,-1225.752797
162.791854,7476.080014,7328.038826,2068.457845
162.792175,6661.853478,7402.059420,2911.162892
162.792496,5255.462188,7402.059420,689.485948
162.792816,5477.523971,9252.574275,-995.924147
162.793137,5255.462188,9622.677246,-1225.752797
162.793457,6883.915261,7328.038826,-459.657299
162.793778,10807.006753,5625.565159,459.657299
162.794098,8364.327145,5699.585753,-995.924147
162.794419,5847.626942,6439.791695,-1378.971896
162.794740,5329.482782,6143.709319,-842.705048
162.795060,5921.647536,6217.729913,-1455.581446
162.795381,7846.182985,6957.935855,0.000000
162.795701,7994.224174,8142.265362,766.095498
162.796022,5403.503377,7105.977043,-1149.143247
162.796342,5033.400406,7105.977043,-1378.971896
162.796663,5625.565159,7994.224174,-306.438199
162.796984,5403.503377,7920.203579,0.000000
162.797304,4589.276840,7476.080014,-689.485948
162.797625,3849.070898,8068.244768,-1072.533697
162.797945,3701.029710,8956.491898,-689.485948
162.798266,4145.153275,10362.883188,1225.752797
162.798587,3552.988522,10288.862594,383.047749
162.798907,3034.844362,9252.574275,0.000000
162.799228,2664.741391,7624.121203,919.314598
162.799548,3256.906145,7994.224174,995.924147
162.799869,2812.782580,9326.594869,383.047749
162.800189,1850.514855,9696.697840,-229.828649
162.800510,2886.803174,9030.512492,-1532.190996
162.800831,4441.235652,7254.018232,-383.047749
162.801151,5403.503377,7846.182985,1302.362347
162.801472,4737.318029,8216.285956,536.266849
162.801792,4219.173869,8956.491898,-1685.410096
162.802113,3923.091493,9252.574275,-2374.896044
162.802434,5107.421000,8734.430116,-1532.190996
162.802754,8068.244768,7920.203579,-306.438199
162.803075,8364.327145,7994.224174,-306.438199
162.803395,6143.709319,7994.224174,-1225.752797
162.803716,5107.421000,8216.285956,-2451.505594
162.804036,4663.297435,7105.977043,-2604.724693
162.804357,6291.750507,6143.709319,-1225.752797
162.804678,7698.141797,7179.997637,536.266849
162.804998,5329.482782,8734.430116,-536.266849
162.805319,3923.091493,8882.471304,-1532.190996
162.805639,4219.173869,8956.491898,-995.924147
162.805960,4737.318029,8734.430116,-229.828649
162.806281,5995.668130,9474.636058,842.705048
162.806601,4071.132681,9770.718434,612.876398
162.806922,3108.864956,9622.677246,-919.314598
162.807242,3478.967927,8734.430116,229.828649
162.807563,4441.235652,8808.450710,2068.457845
162.807883,4219.173869,8882.471304,1532.190996
162.808204,3404.947333,7846.182985,612.876398
162.808525,3849.070898,7105.977043,0.000000
162.808845,4811.338623,6735.874072,536.266849
162.809166,4959.379811,7179.997637,1455.581446
162.809486,5033.400406,7105.977043,536.266849
162.809807,4737.318029,6809.894666,0.000000
162.810127,5995.668130,6439.791695,153.219100
162.810448,7254.018232,7994.224174,689.485948
162.810769,7994.224174,8660.409521,-383.047749
162.811089,6291.750507,9548.656652,-2374.896044
162.811410,6143.709319,8068.244768,-2451.505594
162.811730,6809.894666,6809.894666,-306.438199
162.812051,8216.285956,6217.729913,1225.752797
162.812372,6957.935855,6587.832884,995.924147
162.812692,4367.215058,7402.059420,-1149.143247
162.813013,2738.761985,7550.100608,-2221.676944
162.813333,4071.132681,7179.997637,-766.095498
162.813654,5847.626942,6587.832884,689.485948
162.813974,6291.750507,7624.121203,842.705048
162.814295,3775.050304,8882.471304,153.219100
162.814616,1258.350101,8882.471304,-995.924147
162.814936,2738.761985,8068.244768,-536.266849
162.815257,4071.132681,8290.306550,1762.019645
162.815577,4441.235652,9696.697840,1915.238745
162.815898,3404.947333,9030.512492,995.924147
162.816219,3034.844362,8142.265362,383.047749
162.816539,4663.297435,7772.162391,766.095498
162.816860,4589.276840,7328.038826,1532.190996
162.817180,4293.194464,7846.182985,306.438199
162.817501,4515.256246,7772.162391,-919.314598
162.817821,4885.359217,8068.244768,-1072.533697
162.818142,5995.668130,8142.265362,-459.657299
162.818463,6365.771101,7550.100608,0.000000
162.818783,5699.585753,7846.182985,-536.266849
162.819104,4811.338623,8808.450710,-1149.143247
162.819424,4293.194464,8216.285956,-995.924147
162.819745,6143.709319,7846.182985,-995.924147
162.820066,6587.832884,8660.409521,-919.314598
162.820386,5181.441594,9548.656652,-1302.362347
162.820707,5255.462188,9474.636058,-995.924147
162.821027,5329.482782,8808.450710,-2145.067394
162.821348,4589.276840,6735.874072,-995.924147
162.821668,4811.338623,8068.244768,612.876398
162.821989,3627.009116,8586.388927,766.095498
162.822310,2146.597232,8142.265362,0.000000
162.822630,5181.441594,8142.265362,-459.657299
162.822951,5773.606348,9400.615463,-536.266849
162.823271,4737.318029,8808.450710,-689.485948
162.823592,4145.153275,8364.327145,459.657299
162.823912,3478.967927,8142.265362,76.609550
162.824233,4959.379811,8364.327145,153.219100
162.824554,5329.482782,8364.327145,612.876398
162.824874,4663.297435,7772.162391,-1378.971896
162.825195,4885.359217,8660.409521,-919.314598
162.825515,5477.523971,8808.450710,842.705048
162.825836,5847.626942,8216.285956,229.828649
162.826157,7031.956449,7550.100608,-229.828649
162.826477,5847.626942,7772.162391,-1762.019645
162.826798,4589.276840,8438.347739,-1608.800546
162.827118,5921.647536,7698.141797,-229.828649
162.827439,7031.956449,7476.080014,-689.485948
162.827759,6143.709319,7179.997637,-536.266849
162.828080,6291.750507,7994.224174,0.000000
162.828401,3849.070898,8438.347739,-689.485948
162.828721,3552.988522,7920.203579,-229.828649
162.829042,4959.379811,8438.347739,1302.362347
162.829362,5181.441594,8882.471304,0.000000
162.829683,2960.823768,7920.203579,-766.095498
162.830004,4071.132681,7624.121203,383.047749
162.830324,3849.070898,8364.327145,766.095498
162.830645,4811.338623,8586.388927,842.705048
162.830965,4811.338623,8142.265362,536.266849
162.831286,5255.462188,7328.038826,-766.095498
162.831606,5107.421000,7550.100608,0.000000
162.831927,6513.812290,7920.203579,1762.019645
162.832248,5921.647536,7105.977043,306.438199
162.832568,5625.565159,7698.141797,306.438199
162.832889,4737.318029,7624.121203,459.657299
162.833209,4885.359217,7105.977043,0.000000
162.833530,5847.626942,7105.977043,-383.047749
162.833851,5995.668130,7772.162391,-306.438199
162.834171,5773.606348,7920.203579,-153.219100
162.834492,5181.441594,7328.038826,229.828649
162.834812,4441.235652,6957.935855,0.000000
162.835133,4589.276840,7179.997637,0.000000
162.835453,4589.276840,7846.182985,153.219100
162.835774,3849.070898,8808.450710,229.828649
162.836095,4071.132681,7550.100608,-383.047749
162.836415,5921.647536,6883.915261,-1149.143247
162.836736,6661.853478,7772.162391,-459.657299
162.837056,4959.379811,8438.347739,-536.266849
162.837377,4589.276840,8734.430116,-306.438199
162.837697,3849.070898,7994.224174,-383.047749
162.838018,4515.256246,7402.059420,459.657299
162.838339,6143.709319,8216.285956,2451.505594
162.838659,4885.359217,9474.636058,1455.581446
162.838980,3330.926739,9252.574275,-229.828649
162.839300,3627.009116,7105.977043,-383.047749
162.839621,5551.544565,5847.626942,-306.438199
162.839942,5107.421000,6365.771101,1302.362347
162.840262,4663.297435,9474.636058,612.876398
162.840583,3330.926739,9844.739029,-1608.800546
162.840903,4071.132681,9622.677246,-1762.019645
162.841224,7550.100608,8734.430116,536.266849
162.841544,6439.791695,9252.574275,1225.752797
162.841865,4885.359217,9770.718434,153.219100
162.842186,3182.885551,9400.615463,-1072.533697
162.842506,3552.988522,8216.285956,-1685.410096
162.842827,5773.606348,7179.997637,153.219100
162.843147,6587.832884,8068.244768,536.266849
162.843468,3701.029710,8734.430116,-1532.190996
162.843789,2886.803174,9474.636058,-1838.629195
162.844109,3997.112087,8734.430116,153.219100
162.844430,5551.544565,8290.306550,1915.238745
162.844750,6439.791695,7550.100608,1915.238745
162.845071,4737.318029,7105.977043,-612.876398
162.845391,3404.947333,8512.368333,-2528.115143
162.845712,4737.318029,8808.450710,-766.095498
162.846033,6217.729913,8882.471304,536.266849
162.846353,6735.874072,7031.956449,0.000000
162.846674,6143.709319,7254.018232,-766.095498
162.846994,4959.379811,8142.265362,-1532.190996
162.847315,5551.544565,7772.162391,-1072.533697
162.847636,7105.977043,7550.100608,153.219100
162.847956,6513.812290,6809.894666,-536.266849
162.848277,4367.215058,6217.729913,-306.438199
162.848597,5403.503377,7550.100608,689.485948
162.848918,4367.215058,8438.347739,306.438199
162.849238,4441.235652,7772.162391,-842.705048
162.849559,5625.565159,6883.915261,-1225.752797
162.849880,4885.359217,7328.038826,-1378.971896
162.850200,4959.379811,7698.141797,229.828649
162.850521,6291.750507,8438.347739,842.705048
162.850841,5255.462188,8660.409521,0.000000
162.851162,3923.091493,8512.368333,-306.438199
162.851482,4367.215058,7698.141797,459.657299
162.851803,4589.276840,6661.853478,-612.876398
162.852124,5995.668130,7476.080014,-229.828649
162.852444,5403.503377,8290.306550,-919.314598
162.852765,5181.441594,7624.121203,-2145.067394
162.853085,5255.462188,6809.894666,-1685.410096
162.853406,6217.729913,7402.059420,229.828649
162.853727,6439.791695,8438.347739,1225.752797
162.854047,5329.482782,8586.388927,919.314598
162.854368,4737.318029,8882.471304,536.266849
162.854688,5255.462188,7550.100608,383.047749
162.855009,6069.688724,6809.894666,0.000000
162.855329,6957.935855,7772.162391,-842.705048
162.855650,5625.565159,8438.347739,-766.095498
162.855971,5477.523971,8364.327145,-842.705048
162.856291,5551.544565,8068.244768,-383.047749
162.856612,6291.750507,9548.656652,919.314598
162.856932,5181.441594,9770.718434,1685.410096
162.857253,3627.009116,9326.594869,995.924147
162.857574,4071.132681,8956.491898,766.095498
162.857894,4071.132681,7254.018232,0.000000
162.858215,4737.318029,6735.874072,0.000000
162.858535,5181.441594,8216.285956,229.828649
162.858856,3849.070898,8882.471304,0.000000
162.859176,3034.844362,9030.512492,0.000000
162.859497,4737.318029,9474.636058,306.438199
162.859818,4885.359217,9474.636058,689.485948
162.860138,3849.070898,9326.594869,919.314598
162.860459,3997.112087,7772.162391,842.705048
162.860779,3552.988522,6365.771101,-229.828649
162.861100,5329.482782,6587.832884,0.000000
162.861421,5921.647536,7920.203579,-153.219100
162.861741,4811.338623,7846.182985,-1762.019645
162.862062,4737.318029,8290.306550,-1915.238745
162.862382,5995.668130,8068.244768,-153.219100
162.862703,6143.709319,6735.874072,536.266849
162.863023,6735.874072,6661.853478,612.876398
162.863344,5551.544565,7031.956449,229.828649
162.863665,4885.359217,7254.018232,-536.266849
162.863985,5699.585753,6365.771101,-689.485948
162.864306,6735.874072,5995.668130,-766.095498
162.864626,6291.750507,7994.224174,-1455.581446
162.864947,4885.359217,9252.574275,-689.485948
162.865267,4367.215058,8364.327145,-1302.362347
162.865588,5255.462188,6809.894666,0.000000
162.865909,5699.585753,7179.997637,1225.752797
162.866229,3701.029710,8512.368333,383.047749
162.866550,2664.741391,9474.636058,-689.485948
162.866870,2886.803174,9474.636058,-536.266849
162.867191,4737.318029,7994.224174,612.876398
162.867512,6809.894666,7994.224174,1455.581446
162.867832,5773.606348,9178.553681,459.657299
162.868153,2960.823768,9252.574275,-1608.800546
162.868473,4145.153275,7624.121203,-459.657299
162.868794,6217.729913,6217.729913,1149.143247
162.869114,7402.059420,6291.750507,2298.286494
162.869435,7105.977043,8290.306550,1455.581446
162.869756,4737.318029,8882.471304,-1532.190996
162.870076,5699.585753,8216.285956,-2298.286494
162.870397,8438.347739,7624.121203,0.000000
162.870717,7179.997637,6661.853478,153.219100
162.871038,6587.832884,6661.853478,-1991.848295
162.871359,5477.523971,7846.182985,-1072.533697
162.871679,5107.421000,8438.347739,-919.314598
162.872000,7179.997637,8290.306550,689.485948
162.872320,7846.182985,8364.327145,153.219100
162.872641,4885.359217,8216.285956,-1302.362347
162.872961,4219.173869,8882.471304,-459.657299
162.873282,4515.256246,8660.409521,229.828649
162.873603,4515.256246,7254.018232,-689.485948
162.873923,3775.050304,6587.832884,0.000000
162.874244,2812.782580,7994.224174,-1378.971896
162.874564,1776.494261,9770.718434,-1532.190996
162.874885,2072.576638,10066.800811,612.876398
162.875206,3701.029710,10436.903782,536.266849
162.875526,4367.215058,9696.697840,306.438199
162.875847,1850.514855,8808.450710,1225.752797
162.876168,2220.617826,8882.471304,842.705048
162.876488,3627.009116,8660.409521,1072.533697
162.876809,3849.070898,8364.327145,766.095498
162.877130,3775.050304,7179.997637,0.000000
162.877451,4515.256246,6809.894666,-995.924147
162.877771,5255.462188,7846.182985,-306.438199
162.878092,5625.565159,7920.203579,383.047749
162.878413,6513.812290,7624.121203,-766.095498
162.878733,6439.791695,7179.997637,-1378.971896
162.879054,5995.668130,7476.080014,0.000000
162.879375,7179.997637,6957.935855,536.266849
162.879696,7550.100608,6587.832884,-536.266849
162.880016,6587.832884,7105.977043,-1838.629195
162.880337,6217.729913,9178.553681,-1915.238745
162.880658,5625.565159,9178.553681,-1149.143247
162.880978,5995.668130,7624.121203,-459.657299
162.881299,7698.141797,7105.977043,153.219100
162.881620,5699.585753,7105.977043,383.047749
162.881941,4145.153275,7550.100608,-689.485948
162.882261,3330.926739,7994.224174,459.657299
162.882582,4293.194464,7254.018232,536.266849
162.882903,5995.668130,7772.162391,919.314598
162.883224,5107.421000,8512.368333,1072.533697
162.883544,2368.659014,8512.368333,-995.924147
162.883865,2220.617826,8290.306550,-612.876398
162.884186,2960.823768,7476.080014,536.266849
162.884506,5625.565159,8142.265362,612.876398
162.884827,6513.812290,9252.574275,1915.238745
162.885148,4293.194464,9400.615463,229.828649
162.885469,4737.318029,7994.224174,-1149.143247
162.885789,6291.750507,8290.306550,0.000000
162.886110,6735.874072,7550.100608,689.485948
162.886431,5477.523971,6365.771101,1072.533697
162.886751,6069.688724,4885.359217,383.047749
162.887072,6217.729913,6661.853478,-689.485948
162.887393,5181.441594,7105.977043,-689.485948
162.887714,5625.565159,7994.224174,-1302.362347
162.888034,6217.729913,9178.553681,-2451.505594
162.888355,5329.482782,9326.594869,-1608.800546
162.888676,6513.812290,8660.409521,229.828649
162.888997,6217.729913,7550.100608,153.219100
162.889317,4441.235652,8660.409521,-383.047749
162.889638,2294.638420,9474.636058,-766.095498
162.889959,1998.556043,8586.388927,-1149.143247
162.890279,3849.070898,8512.368333,-229.828649
162.890600,4885.359217,8956.491898,766.095498
162.890921,3923.091493,9178.553681,1225.752797
162.891242,2516.700203,9400.615463,-229.828649
162.891562,1332.370696,9252.574275,-766.095498
162.891883,2294.638420,7846.182985,306.438199
162.892204,4811.338623,7846.182985,1455.581446
162.892524,4515.256246,8586.388927,1455.581446
162.892845,3034.844362,10140.821405,459.657299
162.893166,3404.947333,9252.574275,-766.095498
162.893487,5255.462188,8512.368333,-1302.362347
162.893807,5921.647536,8216.285956,-689.485948
162.894128,5181.441594,7920.203579,0.000000
162.894449,5255.462188,7698.141797,-459.657299
162.894769,5033.400406,7994.224174,-612.876398
162.895090,5551.544565,8142.265362,-153.219100
162.895411,7031.956449,9252.574275,-229.828649
162.895732,5773.606348,9326.594869,-919.314598
162.896052,4589.276840,8512.368333,-842.705048
162.896373,5921.647536,7624.121203,306.438199
162.896694,5847.626942,6809.894666,919.314598
162.897015,4589.276840,7402.059420,-229.828649
162.897335,5033.400406,7328.038826,-689.485948
162.897656,3997.112087,7254.018232,-1378.971896
162.897977,4737.318029,7179.997637,-612.876398
162.898297,5995.668130,9178.553681,229.828649
162.898618,5255.462188,9770.718434,0.000000
162.898939,3478.967927,8142.265362,-612.876398
162.899260,5403.503377,7328.038826,612.876398
162.899580,6143.709319,6809.894666,612.876398
162.899901,5329.482782,7031.956449,229.828649
162.900222,5329.482782,8290.306550,0.000000
162.900542,4811.338623,8882.471304,-1455.581446
162.900863,5107.421000,8364.327145,-459.657299
162.901184,6661.853478,7105.977043,536.266849
162.901505,6735.874072,6143.709319,0.000000
162.901825,4737.318029,6957.935855,0.000000
162.902146,3256.906145,7476.080014,306.438199
162.902467,4219.173869,6957.935855,-612.876398
162.902788,7031.956449,7624.121203,0.000000
162.903108,6809.894666,7402.059420,0.000000
162.903429,4737.318029,8290.306550,-1915.238745
162.903750,4663.297435,9400.615463,-2068.457845
162.904070,4589.276840,8808.450710,-459.657299
162.904391,4885.359217,7550.100608,0.000000
162.904712,6883.915261,7994.224174,842.705048
162.905033,5995.668130,9252.574275,-306.438199
162.905353,2738.761985,8512.368333,-1915.238745
162.905674,3701.029710,8586.388927,-995.924147
162.905995,5699.585753,9178.553681,0.000000
162.906315,4811.338623,9252.574275,919.314598
162.906636,4441.235652,9178.553681,1072.533697
162.906957,4219.173869,7698.141797,0.000000
162.907278,3478.967927,7994.224174,306.438199
162.907598,3849.070898,7994.224174,1455.581446
162.907919,3849.070898,8216.285956,1532.190996
162.908240,4663.297435,8142.265362,536.266849
162.908560,4441.235652,8512.368333,383.047749
162.908881,4737.318029,8660.409521,383.047749
162.909202,5551.544565,9252.574275,-842.705048
162.909523,3552.988522,10066.800811,-1685.410096
162.909843,2960.823768,9548.656652,-689.485948
162.910164,5477.523971,8956.491898,76.609550
162.910485,5921.647536,8660.409521,306.438199
162.910806,4959.379811,8882.471304,0.000000
162.911126,4145.153275,9548.656652,0.000000
162.911447,2294.638420,8956.491898,-1302.362347
162.911768,3701.029710,7772.162391,-612.876398
162.912088,5699.585753,7031.956449,1149.143247
162.912409,5181.441594,7624.121203,1762.019645
162.912730,3034.844362,8586.388927,536.266849
162.913051,2368.659014,8068.244768,153.219100
162.913371,3627.009116,8142.265362,-536.266849
162.913692,6587.832884,7328.038826,306.438199
162.914013,6809.894666,7994.224174,0.000000
162.914333,5551.544565,8734.430116,-612.876398
162.914654,4071.132681,8512.368333,-919.314598
162.914975,4885.359217,7772.162391,-383.047749
162.915296,6513.812290,7254.018232,459.657299
162.915616,6217.729913,7402.059420,612.876398
162.915937,5699.585753,8068.244768,0.000000
162.916258,4663.297435,6291.750507,-1302.362347
162.916579,5551.544565,4737.318029,-766.095498
162.916899,7179.997637,5773.606348,919.314598
162.917220,5921.647536,6809.894666,919.314598
162.917541,4663.297435,6217.729913,-229.828649
162.917861,7179.997637,5921.647536,-1225.752797
162.918182,7994.224174,6587.832884,-689.485948
162.918503,7105.977043,7994.224174,459.657299
162.918824,6809.894666,8808.450710,-766.095498
162.919144,5921.647536,8364.327145,-2374.896044
162.919465,6587.832884,7772.162391,-1991.848295
162.919786,8068.244768,7920.203579,-459.657299
162.920106,6439.791695,7920.203579,-229.828649
162.920427,2738.761985,8068.244768,-2068.457845
162.920748,2960.823768,8808.450710,-612.876398
162.921069,4737.318029,8216.285956,536.266849
162.921389,6069.688724,7994.224174,1991.848295
162.921710,5477.523971,7772.162391,2145.067394
162.922031,1998.556043,8216.285956,-842.705048
162.922351,1480.411884,8364.327145,-1455.581446
162.922672,3552.988522,8734.430116,689.485948
162.922993,5403.503377,8808.450710,842.705048
162.923314,5181.441594,8512.368333,76.609550
162.923634,4737.318029,9696.697840,-383.047749
162.923955,2516.700203,9844.739029,-1608.800546
162.924276,3775.050304,10066.800811,0.000000
162.924597,6365.771101,9770.718434,919.314598
162.924917,5773.606348,8142.265362,-842.705048
162.925238,5033.400406,7402.059420,-1149.143247
162.925559,5181.441594,7476.080014,-612.876398
162.925879,4811.338623,7402.059420,-842.705048
162.926200,4959.379811,7402.059420,-459.657299
162.926521,4737.318029,8216.285956,-1685.410096
162.926842,5181.441594,8512.368333,-1991.848295
162.927162,6217.729913,8438.347739,-76.609550
162.927483,6439.791695,8512.368333,842.705048
162.927804,4811.338623,9400.615463,-383.047749
162.928124,3404.947333,9326.594869,-842.705048
162.928445,3034.844362,8660.409521,-919.314598
162.928766,3997.112087,8290.306550,0.000000
162.929087,5329.482782,8660.409521,842.705048
162.929407,4367.215058,9400.615463,-306.438199
162.929728,2368.659014,9104.533087,-1378.971896
162.930049,2516.700203,8216.285956,76.609550
162.930369,3775.050304,7105.977043,1838.629195
162.930690,5033.400406,7624.121203,2451.505594
162.931011,4071.132681,7698.141797,2068.457845
162.931332,2442.679609,8142.265362,153.219100
162.931652,3627.009116,7920.203579,-383.047749
162.931973,5773.606348,7698.141797,-612.876398
162.932294,6883.915261,7105.977043,76.609550
162.932615,6587.832884,7772.162391,-612.876398
162.932935,5255.462188,8216.285956,-995.924147
162.933256,5181.441594,7328.038826,-689.485948
162.933577,7920.203579,6661.853478,536.266849
162.933897,8512.368333,6217.729913,995.924147
162.934218,6883.915261,6291.750507,306.438199
162.934539,6217.729913,6291.750507,-689.485948
162.934860,5921.647536,7179.997637,-1608.800546
162.935180,6439.791695,7179.997637,-1532.190996
162.935501,7624.121203,6587.832884,-536.266849
162.935822,7994.224174,7624.121203,-919.314598
162.936142,4589.276840,8142.265362,-1072.533697
162.936463,4441.235652,8512.368333,0.000000
162.936784,5995.668130,8512.368333,1838.629195
162.937105,5033.400406,9326.594869,2145.067394
162.937425,3108.864956,9104.533087,1302.362347
162.937746,2664.741391,7402.059420,-689.485948
162.938067,3552.988522,6883.915261,-1149.143247
162.938388,4293.194464,7328.038826,689.485948
162.938708,3775.050304,6735.874072,1378.971896
162.939029,3552.988522,6957.935855,0.000000
162.939350,3775.050304,7846.182985,-306.438199
162.939670,5107.421000,9178.553681,306.438199
162.939991,5255.462188,10066.800811,0.000000
162.940312,4663.297435,9622.677246,-766.095498
162.940633,4663.297435,9104.533087,-1072.533697
162.940953,5551.544565,7179.997637,0.000000
162.941274,6291.750507,6809.894666,229.828649
162.941595,7031.956449,7994.224174,-995.924147
162.941915,5033.400406,9844.739029,-2528.115143
162.942236,4589.276840,9400.615463,-2834.553343
162.942557,5329.482782,7402.059420,-612.876398
162.942878,8586.388927,7328.038826,2451.505594
162.943198,7476.080014,8512.368333,2451.505594
162.943519,3923.091493,8142.265362,-306.438199
162.943840,1406.391290,6883.915261,-3217.601092
162.944160,4293.194464,8068.244768,-2145.067394
162.944481,6957.935855,9104.533087,1072.533697
162.944802,6661.853478,9104.533087,1455.581446
162.945123,5551.544565,9326.594869,-1225.752797
162.945443,3552.988522,9474.636058,-2451.505594
162.945764,2960.823768,9548.656652,-536.266849
162.946085,4441.235652,8882.471304,1532.190996
162.946406,5255.462188,7772.162391,1685.410096
162.946726,3997.112087,8142.265362,612.876398
162.947047,3923.091493,7550.100608,0.000000
162.947368,5625.565159,8068.244768,-536.266849
162.947688,6143.709319,7402.059420,0.000000
162.948009,3997.112087,7105.977043,0.000000
162.948330,3997.112087,6661.853478,-1072.533697
162.948651,5255.462188,6661.853478,-766.095498
162.948971,6217.729913,7624.121203,1149.143247
162.949292,7402.059420,9696.697840,1072.533697
162.949613,6365.771101,11399.171507,-995.924147
162.949933,4515.256246,9844.739029,-2681.334243
162.950254,5329.482782,8290.306550,-1838.629195
162.950575,7254.018232,7476.080014,76.609550
162.950896,5403.503377,7179.997637,919.314598
162.951216,3034.844362,7179.997637,0.000000
162.951537,4663.297435,6587.832884,-459.657299
162.951858,4515.256246,6661.853478,536.266849
162.952179,4589.276840,6735.874072,2068.457845
162.952499,5477.523971,8512.368333,1838.629195
162.952820,4441.235652,9104.533087,153.219100
162.953141,2738.761985,7994.224174,0.000000
162.953461,6587.832884,6365.771101,536.266849
162.953782,6661.853478,7031.956449,0.000000
162.954103,4737.318029,7846.182985,-459.657299
162.954424,4293.194464,8660.409521,-383.047749
162.954744,4515.256246,8290.306550,-383.047749
162.955065,6365.771101,8068.244768,76.609550
162.955386,6883.915261,8956.491898,1532.190996
162.955706,4441.235652,7920.203579,-1149.143247
162.956027,3478.967927,7105.977043,-1455.581446
162.956348,4219.173869,6217.729913,995.924147
162.956669,4811.338623,6439.791695,1149.143247
162.956989,5847.626942,6883.915261,229.828649
162.957310,4885.359217,8216.285956,-1455.581446
162.957631,3552.988522,9844.739029,-2834.553343
162.957951,5403.503377,9770.718434,-459.657299
162.958272,6439.791695,8734.430116,612.876398
162.958593,5329.482782,7698.141797,536.266849
162.958914,4663.297435,8290.306550,536.266849
162.959234,3701.029710,10066.800811,0.000000
162.959555,2812.782580,9548.656652,-919.314598
162.959876,5551.544565,9104.533087,-689.485948
162.960197,5477.523971,8808.450710,-766.095498
162.960517,3627.009116,7772.162391,-229.828649
162.960838,4071.132681,7994.224174,1378.971896
162.961159,4737.318029,7254.018232,1225.752797
162.961479,4737.318029,7179.997637,536.266849
162.961800,5181.441594,7994.224174,383.047749
162.962121,4441.235652,9178.553681,-1072.533697
162.962442,4737.318029,9030.512492,-995.924147
162.962762,7105.977043,8512.368333,229.828649
162.963083,8290.306550,7772.162391,-306.438199
162.963404,5699.585753,7846.182985,-919.314598
162.963724,4441.235652,7179.997637,-766.095498
162.964045,4367.215058,7994.224174,-1762.019645
162.964366,5625.565159,7994.224174,-766.095498
162.964687,7105.977043,8808.450710,1225.752797
162.965007,7179.997637,8512.368333,459.657299
162.965328,5403.503377,7624.121203,-1149.143247
162.965649,4811.338623,6883.915261,-1455.581446
162.965970,4811.338623,7105.977043,-995.924147
162.966290,5255.462188,7550.100608,0.000000
162.966611,4663.297435,7920.203579,766.095498
162.966932,4737.318029,7328.038826,-153.219100
162.967252,5625.565159,8142.265362,-1225.752797
162.967573,5921.647536,9400.615463,0.000000
162.967894,3701.029710,9992.780217,0.000000
162.968215,4071.132681,9178.553681,-229.828649
162.968535,3478.967927,7698.141797,306.438199
162.968856,4071.132681,6513.812290,995.924147
162.969177,6661.853478,6735.874072,2068.457845
162.969497,5551.544565,7179.997637,1072.533697
162.969818,3034.844362,7105.977043,-995.924147
162.970139,3775.050304,6735.874072,-1378.971896
162.970460,5995.668130,7105.977043,-306.438199
162.970780,5995.668130,7328.038826,919.314598
162.971101,6587.832884,8216.285956,612.876398
162.971422,5551.544565,8660.409521,-1608.800546
162.971742,4515.256246,7698.141797,-3140.991542
162.972063,5921.647536,7994.224174,-612.876398
162.972384,6365.771101,9030.512492,1072.533697
162.972705,5403.503377,8956.491898,153.219100
162.973025,4811.338623,8438.347739,-995.924147
162.973346,3923.091493,7846.182985,-1378.971896
162.973667,4293.194464,7254.018232,383.047749
162.973988,3627.009116,7772.162391,1302.362347
162.974308,2960.823768,8290.306550,612.876398
162.974629,3552.988522,8290.306550,-306.438199
162.974950,3923.091493,7846.182985,-766.095498
162.975270,4737.318029,9104.533087,-536.266849
162.975591,3923.091493,9844.739029,153.219100
162.975912,2812.782580,9696.697840,153.219100
162.976233,3849.070898,8660.409521,306.438199
162.976553,4441.235652,7402.059420,919.314598
162.976874,5477.523971,8882.471304,1225.752797
162.977195,4515.256246,9770.718434,-306.438199
162.977515,3034.844362,8956.491898,-2068.457845
162.977836,4589.276840,8364.327145,-1378.971896
162.978157,6661.853478,7328.038826,306.438199
162.978478,7698.141797,7402.059420,1072.533697
162.978798,6587.832884,7772.162391,689.485948
162.979119,3330.926739,7698.141797,-919.314598
162.979440,4219.173869,8364.327145,-1225.752797
162.979760,6217.729913,7772.162391,153.219100
162.980081,6809.894666,8068.244768,536.266849
162.980402,6809.894666,8734.430116,-459.657299
162.980723,5255.462188,7920.203579,-1302.362347
162.981043,4441.235652,7994.224174,-1685.410096
162.981364,5551.544565,8734.430116,-229.828649
162.981685,4589.276840,7920.203579,153.219100
162.982005,4219.173869,7994.224174,306.438199
162.982326,4367.215058,8364.327145,612.876398
162.982647,3849.070898,7624.121203,1225.752797
162.982968,3849.070898,7920.203579,919.314598
162.983288,3997.112087,8438.347739,0.000000
162.983609,2960.823768,8290.306550,-1685.410096
162.983930,3701.029710,7624.121203,-612.876398
162.984250,5847.626942,7994.224174,383.047749
162.984571,5995.668130,8660.409521,919.314598
162.984892,4737.318029,8438.347739,153.219100
162.985213,4959.379811,8734.430116,-689.485948
162.985533,5477.523971,7624.121203,-306.438199
162.985854,6291.750507,6661.853478,459.657299
162.986175,6809.894666,7031.956449,536.266849
162.986495,5255.462188,7698.141797,-229.828649
162.986816,4219.173869,6809.894666,-612.876398
162.987137,7476.080014,6143.709319,459.657299
162.987458,7994.224174,6291.750507,0.000000
162.987778,6439.791695,6809.894666,-536.266849
162.988099,4885.359217,7846.182985,-689.485948
162.988420,4219.173869,8438.347739,-1302.362347
162.988740,4737.318029,8068.244768,0.000000
162.989061,7772.162391,7920.203579,842.705048
162.989382,5847.626942,8216.285956,-766.095498
162.989703,3256.906145,8882.471304,-2221.676944
162.990023,2442.679609,9030.512492,-919.314598
162.990344,3552.988522,8808.450710,383.047749
162.990665,5181.441594,8808.450710,766.095498
162.990985,5107.421000,8956.491898,1072.533697
162.991306,2738.761985,8956.491898,-1072.533697
162.991627,2812.782580,8734.430116,-612.876398
162.991948,3108.864956,8660.409521,1532.190996
162.992268,3701.029710,7846.182985,1378.971896
162.992589,4885.359217,8438.347739,1532.190996
162.992910,4589.276840,9252.574275,0.000000
162.993230,3552.988522,9178.553681,-1532.190996
162.993551,5107.421000,8438.347739,-919.314598
162.993872,5921.647536,8438.347739,0.000000
162.994193,4885.359217,8364.327145,459.657299
162.994513,5107.421000,7105.977043,766.095498
162.994834,6143.709319,7698.141797,306.438199
162.995155,6143.709319,8216.285956,0.000000
162.995475,4737.318029,7698.141797,0.000000
162.995796,5033.400406,7402.059420,-383.047749
162.996117,5995.668130,7698.141797,-689.485948
162.996437,5921.647536,7846.182985,-229.828649
162.996758,6735.874072,8142.265362,0.000000
162.997079,5773.606348,8142.265362,-1532.190996
162.997400,2960.823768,8216.285956,-1608.800546
162.997720,3997.112087,8142.265362,-383.047749
162.998041,5995.668130,8068.244768,919.314598
162.998362,6513.812290,7624.121203,306.438199
162.998682,5329.482782,8364.327145,383.047749
162.999003,3849.070898,8142.265362,-919.314598
162.999324,1998.556043,7476.080014,-2145.067394
162.999645,3997.112087,6439.791695,-459.657299
162.999965,6661.853478,7254.018232,766.095498
163.000286,6217.729913,8734.430116,612.876398
163.000607,4663.297435,7994.224174,-459.657299
163.000927,5033.400406,7254.018232,-1608.800546
163.001248,5329.482782,8142.265362,-612.876398
163.001569,5329.482782,9104.533087,842.705048
163.001890,4885.359217,9030.512492,459.657299
163.002210,5551.544565,7846.182985,-1149.143247
163.002531,5625.565159,7254.018232,-306.438199
163.002852,5255.462188,7920.203579,229.828649
163.003172,4589.276840,8586.388927,-766.095498
163.003493,4071.132681,8956.491898,-689.485948
163.003814,4515.256246,7994.224174,229.828649
163.004135,5699.585753,7846.182985,766.095498
163.004455,5551.544565,8512.368333,1378.971896
163.004776,3627.009116,9696.697840,459.657299
163.005097,2664.741391,10066.800811,-689.485948
163.005417,3404.947333,8290.306550,-1302.362347
163.005738,5477.523971,7550.100608,0.000000
163.006059,7105.977043,7328.038826,1455.581446
163.006380,4589.276840,7846.182985,0.000000
163.006700,2590.720797,8438.347739,-1149.143247
163.007021,3701.029710,9400.615463,-689.485948
163.007342,6365.771101,9030.512492,0.000000
163.007662,6661.853478,7179.997637,919.314598
163.007983,7031.956449,7328.038826,1072.533697
163.008304,4293.194464,7179.997637,-229.828649
163.008625,3552.988522,6513.812290,-1072.533697
163.008945,5477.523971,6513.812290,-459.657299
163.009266,8290.306550,6735.874072,-229.828649
163.009587,7328.038826,8290.306550,-459.657299
163.009907,5403.503377,9178.553681,-612.876398
163.010228,4663.297435,8290.306550,-1149.143247
163.010549,5403.503377,7994.224174,153.219100
163.010870,5107.421000,7624.121203,1762.019645
163.011190,4145.153275,7402.059420,0.000000
163.011511,4293.194464,7105.977043,-1225.752797
163.011832,3923.091493,7105.977043,-1762.019645
163.012152,4737.318029,8216.285956,0.000000
163.012473,4515.256246,9474.636058,459.657299
163.012794,3404.947333,9400.615463,-612.876398
163.013115,3478.967927,7846.182985,-995.924147
163.013435,4885.359217,7550.100608,459.657299
163.013756,5329.482782,8808.450710,1608.800546
163.014077,4071.132681,8438.347739,536.266849
163.014397,3552.988522,7846.182985,-1378.971896
163.014718,4885.359217,7920.203579,-1685.410096
163.015039,6291.750507,8290.306550,0.000000
163.015360,6365.771101,7994.224174,153.219100
163.015680,7254.018232,7846.182985,-689.485948
163.016001,5773.606348,8216.285956,-2145.067394
163.016322,5255.462188,7476.080014,-1455.581446
163.016642,7328.038826,7698.141797,766.095498
163.016963,7624.121203,7994.224174,2451.505594
163.017284,5255.462188,7920.203579,766.095498
163.017605,5699.585753,7402.059420,-459.657299
163.017925,5181.441594,7772.162391,-919.314598
163.018246,4737.318029,8290.306550,-919.314598
163.018567,6217.729913,7920.203579,306.438199
163.018887,6513.812290,8808.450710,-612.876398
163.019208,4959.379811,8808.450710,-919.314598
163.019529,4885.359217,8290.306550,-229.828649
163.019850,5477.523971,7920.203579,229.828649
163.020170,4885.359217,8586.388927,536.266849
163.020491,3701.029710,8512.368333,1225.752797
163.020812,3330.926739,7994.224174,612.876398
163.021132,4663.297435,7920.203579,306.438199
163.021453,4663.297435,8586.388927,0.000000
163.021774,3775.050304,7994.224174,-536.266849
163.022095,3701.029710,6809.894666,-1455.581446
163.022415,5255.462188,6957.935855,-995.924147
163.022736,5995.668130,8068.244768,459.657299
163.023057,6365.771101,9474.636058,1378.971896
163.023377,4515.256246,9548.656652,76.609550
163.023698,4145.153275,8142.265362,-1149.143247
163.024019,5107.421000,6513.812290,-689.485948
163.024340,6513.812290,6661.853478,459.657299
163.024660,5699.585753,7179.997637,0.000000
163.024981,5699.585753,6365.771101,-459.657299
163.025302,5329.482782,6735.874072,-1532.190996
163.025622,5329.482782,6809.894666,-76.609550
163.025943,5921.647536,9030.512492,766.095498
163.026264,5107.421000,9992.780217,1149.143247
163.026585,3552.988522,9548.656652,229.828649
163.026905,5255.462188,6735.874072,0.000000
163.027226,4663.297435,5551.544565,-229.828649
163.027547,4441.235652,6439.791695,-229.828649
163.027867,3701.029710,9326.594869,-306.438199
163.028188,2812.782580,10510.924376,-1685.410096
163.028509,3701.029710,9770.718434,-1149.143247
163.028830,5181.441594,9844.739029,536.266849
163.029150,3997.112087,9178.553681,0.000000
163.029471,2590.720797,8734.430116,-383.047749
163.029792,2368.659014,8882.471304,-995.924147
163.030112,3108.864956,7920.203579,229.828649
163.030433,5329.482782,7698.141797,1302.362347
163.030754,5847.626942,8142.265362,306.438199
163.031075,3775.050304,9548.656652,-1838.629195
163.031395,3108.864956,10584.944971,-1302.362347
163.031716,4589.276840,8586.388927,-766.095498
163.032037,7402.059420,6365.771101,153.219100
163.032357,8586.388927,6439.791695,1532.190996
163.032678,5699.585753,8512.368333,1072.533697
163.032999,4145.153275,8956.491898,-612.876398
163.033320,4737.318029,9030.512492,-1532.190996
163.033640,6291.750507,8142.265362,-612.876398
163.033961,7550.100608,7402.059420,536.266849
163.034282,7698.141797,7698.141797,306.438199
163.034602,4367.215058,7402.059420,-612.876398
163.034923,3552.988522,7031.956449,-1072.533697
163.035244,4737.318029,7105.977043,0.000000
163.035565,5107.421000,8438.347739,536.266849
163.035885,4811.338623,8956.491898,1072.533697
163.036206,5033.400406,8290.306550,459.657299
163.036527,4663.297435,7550.100608,-1532.190996
163.036847,4811.338623,7994.224174,-383.047749
163.037168,3923.091493,8956.491898,-459.657299
163.037489,3478.967927,8290.306550,-995.924147
163.037810,5255.462188,7624.121203,-689.485948
163.038130,7105.977043,7254.018232,76.609550
163.038451,6513.812290,7920.203579,153.219100
163.038772,5181.441594,7846.182985,0.000000
163.039092,5329.482782,8216.285956,-689.485948
163.039413,5477.523971,7105.977043,-306.438199
163.039734,6661.853478,6069.688724,536.266849
163.040055,7846.182985,6217.729913,1072.533697
163.040375,5921.647536,6365.771101,-766.095498
163.040696,4959.379811,7179.997637,-2221.676944
163.041017,6069.688724,6513.812290,-1915.238745
163.041337,7920.203579,6735.874072,-1225.752797
163.041658,8142.265362,8142.265362,1302.362347
163.041979,5847.626942,8808.450710,919.314598
163.042300,3775.050304,8068.244768,-1455.581446
163.042620,4737.318029,7772.162391,-1149.143247
163.042941,4737.318029,7772.162391,229.828649
163.043262,4663.297435,8142.265362,306.438199
163.043582,4811.338623,8734.430116,153.219100
163.043903,2590.720797,8808.450710,-919.314598
163.044224,1406.391290,8660.409521,-383.047749
163.044545,3182.885551,9252.574275,612.876398
163.044865,3034.844362,10362.883188,153.219100
163.045186,1628.453072,9104.533087,-383.047749
163.045507,4811.338623,8290.306550,76.609550
163.045827,5181.441594,8882.471304,766.095498
163.046148,3034.844362,9696.697840,153.219100
163.046469,2812.782580,10140.821405,-459.657299
163.046790,3627.009116,9548.656652,-2145.067394
163.047110,5329.482782,9178.553681,-459.657299
163.047431,6587.832884,9400.615463,1991.848295
163.047752,6365.771101,8512.368333,536.266849
163.048072,3775.050304,8216.285956,-1072.533697
163.048393,2812.782580,8290.306550,-536.266849
163.048714,4811.338623,7994.224174,306.438199
163.049035,7254.018232,7476.080014,1149.143247
163.049355,7105.977043,8364.327145,153.219100
163.049676,4515.256246,8660.409521,-1455.581446
163.049997,3182.885551,8438.347739,-1685.410096
163.050317,3997.112087,7846.182985,153.219100
163.050638,4811.338623,7328.038826,1302.362347
163.050959,5033.400406,7254.018232,766.095498
163.051280,4663.297435,8808.450710,306.438199
163.051600,3034.844362,9178.553681,-1532.190996
163.051921,3775.050304,8068.244768,-1455.581446
163.052242,6291.750507,7920.203579,-383.047749
163.052562,6513.812290,8512.368333,0.000000
163.052883,4737.318029,7402.059420,-383.047749
163.053204,4737.318029,6365.771101,-383.047749
163.053525,5699.585753,7624.121203,-842.705048
163.053845,4737.318029,7254.018232,-229.828649
163.054166,5255.462188,7846.182985,-306.438199
163.054487,6143.709319,7624.121203,-383.047749
163.054807,6513.812290,6291.750507,-919.314598
163.055128,7402.059420,6661.853478,0.000000
163.055449,5551.544565,7402.059420,76.609550
163.055770,4219.173869,7994.224174,-1225.752797
163.056090,4589.276840,7328.038826,-689.485948
163.056411,6365.771101,6143.709319,229.828649
163.056732,8512.368333,6587.832884,689.485948
163.057052,7254.018232,8290.306550,919.314598
163.057373,4145.153275,8512.368333,-1455.581446
163.057694,3478.967927,7476.080014,-2221.676944
163.058015,5477.523971,7031.956449,-1072.533697
163.058335,7328.038826,7476.080014,459.657299
163.058656,6513.812290,8364.327145,383.047749
163.058977,4589.276840,9474.636058,-1149.143247
163.059297,2886.803174,9178.553681,-1762.019645
163.059618,3108.864956,7846.182985,-153.219100
163.059939,5329.482782,7476.080014,1149.143247
163.060260,6069.688724,8956.491898,1532.190996
163.060580,3849.070898,10362.883188,229.828649
163.060901,3552.988522,9696.697840,-1149.143247
163.061222,4663.297435,8290.306550,-995.924147
163.061542,5625.565159,8142.265362,383.047749
163.061863,4589.276840,9104.533087,1302.362347
163.062184,3997.112087,8068.244768,-383.047749
163.062504,4811.338623,8142.265362,-1225.752797
163.062825,6291.750507,8216.285956,-306.438199
163.063146,5847.626942,7846.182985,459.657299
163.063467,4071.132681,9030.512492,-306.438199
163.063787,3775.050304,8808.450710,-1149.143247
163.064108,3849.070898,8290.306550,-383.047749
163.064429,6143.709319,8068.244768,0.000000
163.064749,5551.544565,9326.594869,0.000000
163.065070,1924.535449,10436.903782,-995.924147
163.065391,888.247130,8586.388927,-995.924147
163.065712,3330.926739,8290.306550,1149.143247
163.066032,5255.462188,7846.182985,2374.896044
163.066353,4293.194464,9844.739029,2221.676944
163.066674,1628.453072,10510.924376,-1149.143247
163.066994,0.000000,9326.594869,-3064.381992
163.067315,2368.659014,7920.203579,-153.219100
163.067636,5551.544565,6513.812290,1532.190996
163.067957,6809.894666,8216.285956,1302.362347
163.068277,3775.050304,9178.553681,-1072.533697
163.068598,1258.350101,8882.471304,-3064.381992
163.068919,3627.009116,8882.471304,-1302.362347
163.069239,6439.791695,8216.285956,1991.848295
163.069560,6217.729913,7402.059420,2604.724693
163.069881,6365.771101,6735.874072,612.876398
163.070202,5181.441594,8142.265362,-1608.800546
163.070522,5181.441594,8660.409521,-1685.410096
163.070843,7328.038826,6587.832884,-153.219100
163.071164,7772.162391,4811.338623,-383.047749
163.071484,7476.080014,5107.421000,-842.705048
163.071805,7105.977043,6661.853478,383.047749
163.072126,6661.853478,7550.100608,153.219100
163.072447,6957.935855,7254.018232,-612.876398
163.072767,7920.203579,7550.100608,0.000000
163.073088,6809.894666,6809.894666,-1608.800546
163.073409,5625.565159,6291.750507,-2374.896044
163.073729,7476.080014,6513.812290,-995.924147
163.074050,6661.853478,8068.244768,766.095498
163.074371,4441.235652,7994.224174,995.924147
163.074692,4441.235652,7994.224174,229.828649
163.075012,5107.421000,8290.306550,-842.705048
163.075333,4293.194464,9178.553681,459.657299
163.075654,3701.029710,8808.450710,1455.581446
163.075974,3478.967927,7031.956449,229.828649
163.076295,4071.132681,6439.791695,-689.485948
163.076616,4293.194464,7105.977043,-536.266849
163.076937,4367.215058,8808.450710,-842.705048
163.077257,3478.967927,10066.800811,-1685.410096
163.077578,4441.235652,10881.027347,-459.657299
163.077899,5329.482782,9696.697840,1378.971896
163.078219,6513.812290,8882.471304,1149.143247
163.078540,5773.606348,9252.574275,383.047749
163.078861,3923.091493,8808.450710,-1225.752797
163.079181,3627.009116,8142.265362,-1302.362347
163.079502,4663.297435,7105.977043,-919.314598
163.079823,5995.668130,7328.038826,-383.047749
163.080143,6513.812290,8734.430116,0.000000
163.080464,3923.091493,9696.697840,-536.266849
163.080785,3701.029710,9548.656652,-995.924147
163.081105,5255.462188,8882.471304,0.000000
163.081426,5699.585753,8882.471304,842.705048
163.081747,5403.503377,9178.553681,842.705048
163.082067,4515.256246,9030.512492,0.000000
163.082388,3627.009116,7550.100608,-995.924147
163.082709,3404.947333,8142.265362,-766.095498
163.083029,4293.194464,9326.594869,-459.657299
163.083350,3478.967927,9474.636058,-306.438199
163.083671,3256.906145,8068.244768,229.828649
163.083991,4441.235652,6883.915261,689.485948
163.084312,3997.112087,7920.203579,612.876398
163.084633,3034.844362,9104.533087,1225.752797
163.084953,2886.803174,10140.821405,1149.143247
163.085274,3775.050304,9474.636058,0.000000
163.085595,4811.338623,7920.203579,-153.219100
163.085915,5847.626942,7994.224174,76.609550
163.086236,4515.256246,7772.162391,-1608.800546
163.086557,3108.864956,7994.224174,-1685.410096
163.086877,3552.988522,7254.018232,-612.876398
163.087198,6439.791695,7105.977043,306.438199
163.087519,7772.162391,7772.162391,1532.190996
163.087839,6365.771101,8956.491898,995.924147
163.088160,4219.173869,9178.553681,-689.485948
163.088481,4441.235652,7402.059420,-536.266849
163.088801,7105.977043,5477.523971,383.047749
163.089122,8734.430116,3627.009116,1685.410096
163.089443,7179.997637,5477.523971,689.485948
163.089763,5329.482782,8364.327145,-842.705048
163.090084,4071.132681,8438.347739,-2451.505594
163.090405,6439.791695,7179.997637,-536.266849
163.090725,9770.718434,6735.874072,2451.505594
163.091046,8216.285956,6883.915261,2068.457845
163.091367,5107.421000,6883.915261,536.266849
163.091687,3849.070898,6513.812290,-919.314598
163.092008,5255.462188,6809.894666,-536.266849
163.092329,6439.791695,6513.812290,459.657299
163.092649,5921.647536,7105.977043,-612.876398
163.092970,4441.235652,7328.038826,-2145.067394
163.093291,4589.276840,7772.162391,-1685.410096
163.093611,5403.503377,8438.347739,1225.752797
163.093932,5995.668130,8512.368333,1838.629195
163.094253,5847.626942,9178.553681,0.000000
163.094573,4589.276840,9178.553681,-1838.629195
163.094894,3923.091493,7994.224174,-1455.581446
163.095215,4885.359217,7105.977043,-459.657299
163.095535,6957.935855,7624.121203,536.266849
163.095856,5255.462188,8512.368333,-229.828649
163.096177,3182.885551,9400.615463,-2068.457845
163.096497,4589.276840,10807.006753,-1685.410096
163.096818,5477.523971,10732.986159,1149.143247
163.097139,4737.318029,10288.862594,2681.334243
163.097459,4663.297435,8364.327145,2145.067394
163.097780,3849.070898,7031.956449,-459.657299
163.098101,4367.215058,7994.224174,-76.609550
163.098421,3701.029710,8586.388927,919.314598
163.098742,3330.926739,8734.430116,0.000000
163.099063,4071.132681,8586.388927,-612.876398
163.099383,4145.153275,8882.471304,-306.438199
163.099704,4663.297435,9400.615463,-153.219100
163.100025,5403.503377,9548.656652,689.485948
163.100345,5255.462188,9548.656652,229.828649
163.100666,3034.844362,8142.265362,-1149.143247
163.100987,2960.823768,6735.874072,-919.314598
163.101307,5773.606348,8142.265362,306.438199
163.101628,5477.523971,9474.636058,1225.752797
163.101949,5255.462188,9104.533087,153.219100
163.102269,7105.977043,7550.100608,-1991.848295
163.102590,6069.688724,5921.647536,-2374.896044
163.102911,6809.894666,5403.503377,689.485948
163.103231,7105.977043,5995.668130,2528.115143
163.103552,6957.935855,6217.729913,1149.143247
163.103873,7698.141797,6143.709319,0.000000
163.104193,9326.594869,5995.668130,-536.266849
163.104514,9326.594869,5255.462188,-1608.800546
163.104835,9474.636058,5033.400406,-383.047749
163.105155,9696.697840,3775.050304,0.000000
163.105476,10288.862594,2812.782580,-842.705048
163.105797,10881.027347,3404.947333,-229.828649
163.106117,10436.903782,4959.379811,-383.047749
163.106438,9622.677246,6661.853478,-842.705048
163.106759,9696.697840,7031.956449,0.000000
163.107079,9622.677246,5107.421000,383.047749
163.107400,9474.636058,2664.741391,229.828649
163.107720,9104.533087,2442.679609,459.657299
163.108041,7328.038826,5403.503377,0.000000
163.108362,5181.441594,5847.626942,-689.485948
163.108682,7328.038826,5181.441594,-1149.143247
163.109003,9104.533087,4737.318029,-919.314598
163.109324,9844.739029,5699.585753,612.876398
163.109644,9326.594869,8142.265362,1608.800546
163.109965,8216.285956,7328.038826,229.828649
163.110286,8290.306550,4737.318029,-919.314598
163.110606,10140.821405,3775.050304,459.657299
163.110927,10732.986159,5329.482782,459.657299
163.111248,9770.718434,6513.812290,229.828649
163.111568,9548.656652,5625.565159,-919.314598
163.111889,11843.295072,4293.194464,-612.876398
163.112210,12435.459826,2960.823768,842.705048
163.112530,12657.521608,2812.782580,1072.533697
163.112851,11917.315666,4737.318029,0.000000
163.113172,10658.965565,5551.544565,-1685.410096
163.113492,11473.192101,4959.379811,-842.705048
163.113813,13915.871710,3923.091493,536.266849
163.114134,14211.954086,4515.256246,383.047749
163.114454,11251.130318,7031.956449,-842.705048
163.114775,7254.018232,7476.080014,-2757.943793
163.115096,7846.182985,6217.729913,-2145.067394
163.115416,9474.636058,4885.359217,1302.362347
163.115737,9400.615463,4885.359217,2451.505594
163.116058,7031.956449,7179.997637,0.000000
163.116378,4219.173869,8808.450710,-2221.676944
163.116699,4145.153275,8290.306550,-842.705048
163.117020,6513.812290,5551.544565,2145.067394
163.117340,7328.038826,4663.297435,3217.601092
163.117661,6143.709319,6365.771101,1608.800546
163.117982,4441.235652,8734.430116,-1838.629195
163.118302,5107.421000,8586.388927,-1991.848295
163.118623,7328.038826,7402.059420,536.266849
163.118944,9474.636058,5181.441594,2068.457845
163.119264,8956.491898,4885.359217,1455.581446
163.119585,8364.327145,5995.668130,-383.047749
163.119906,8586.388927,6069.688724,-2374.896044
163.120226,10288.862594,4737.318029,-1149.143247
163.120547,12065.356855,2590.720797,153.219100
163.120868,12435.459826,2368.659014,766.095498
163.121188,11547.212695,4145.153275,306.438199
163.121509,11325.150913,5551.544565,-766.095498
163.121830,10436.903782,5329.482782,-1991.848295
163.122150,10807.006753,4885.359217,-2145.067394
163.122471,11177.109724,5403.503377,-383.047749
163.122792,10288.862594,5477.523971,-306.438199
163.123112,9030.512492,6957.935855,153.219100
163.123433,7846.182985,6587.832884,-383.047749
163.123754,6217.729913,4885.359217,-1225.752797
163.124074,6291.750507,3923.091493,76.609550
163.124395,7105.977043,5329.482782,306.438199
163.124716,7031.956449,7328.038826,689.485948
163.125036,7105.977043,8882.471304,919.314598
163.125357,7254.018232,7846.182985,689.485948
163.125678,6957.935855,5477.523971,766.095498
163.125998,7105.977043,3775.050304,1378.971896
163.126319,8364.327145,3552.988522,689.485948
163.126640,9030.512492,4589.276840,-153.219100
163.126960,10732.986159,5773.606348,306.438199
163.127281,12139.377449,6513.812290,612.876398
163.127602,12213.398043,5255.462188,383.047749
163.127922,12065.356855,3627.009116,0.000000
163.128243,12361.439231,2442.679609,612.876398
163.128564,11917.315666,1628.453072,-612.876398
163.128884,12361.439231,1332.370696,-1378.971896
163.129205,13619.789333,1850.514855,-1838.629195
163.129526,13693.809927,3478.967927,-1532.190996
163.129846,13101.645173,5625.565159,-612.876398
163.130167,11991.336260,7254.018232,-995.924147
163.130488,10658.965565,7328.038826,-1991.848295
163.130808,8660.409521,5625.565159,-1685.410096
163.131129,7920.203579,3923.091493,-766.095498
163.131450,8216.285956,4441.235652,-229.828649
163.131770,7105.977043,5773.606348,-229.828649
163.132091,6143.709319,7254.018232,-1532.190996
163.132412,6365.771101,8364.327145,-2145.067394
163.132732,6069.688724,9326.594869,0.000000
163.133053,5921.647536,9474.636058,2145.067394
163.133374,6069.688724,7698.141797,2911.162892
163.133694,5995.668130,6661.853478,1608.800546
163.134015,5181.441594,6291.750507,689.485948
163.134336,5329.482782,5107.421000,0.000000
163.134656,7179.997637,4959.379811,536.266849
163.134977,8956.491898,5773.606348,383.047749
163.135298,9770.718434,6587.832884,0.000000
163.135618,11473.192101,7179.997637,-1608.800546
163.135939,11991.336260,6735.874072,-1149.143247
163.136260,12065.356855,5403.503377,919.314598
163.136580,11843.295072,4293.194464,2298.286494
163.136901,11399.171507,3627.009116,1149.143247
163.137222,10214.842000,4589.276840,-1149.143247
163.137542,9992.780217,5847.626942,-2987.772442
163.137863,10288.862594,6365.771101,-3064.381992
163.138184,10066.800811,5403.503377,-2451.505594
163.138504,9770.718434,4811.338623,-1532.190996
163.138825,9474.636058,4885.359217,-229.828649
163.139146,8290.306550,5921.647536,842.705048
163.139466,7105.977043,6513.812290,1378.971896
163.139787,7105.977043,5995.668130,1072.533697
163.140108,8290.306550,5329.482782,459.657299
163.140428,8438.347739,5403.503377,612.876398
163.140749,7920.203579,6439.791695,0.000000
163.141070,8438.347739,6883.915261,-383.047749
163.141390,8290.306550,6661.853478,-536.266849
163.141711,8290.306550,5403.503377,306.438199
163.142032,9252.574275,5033.400406,1762.019645
163.142352,9400.615463,4441.235652,2068.457845
163.142673,9252.574275,3627.009116,1608.800546
163.142994,9844.739029,2516.700203,1378.971896
163.143314,11399.171507,2146.597232,612.876398
163.143635,12065.356855,2442.679609,536.266849
163.143956,11103.089130,2738.761985,-306.438199
163.144276,11547.212695,4145.153275,-1915.238745
163.144597,12361.439231,4959.379811,-2221.676944
163.144918,12731.542202,5107.421000,-1608.800546
163.145238,13027.624579,5107.421000,-1225.752797
163.145559,11547.212695,4515.256246,-766.095498
163.145880,10955.047942,4441.235652,-612.876398
163.146200,9622.677246,4589.276840,229.828649
163.146521,9400.615463,4737.318029,536.266849
163.146842,10066.800811,5107.421000,536.266849
163.147162,9104.533087,4737.318029,0.000000
163.147483,8586.388927,3997.112087,-306.438199
163.147804,8586.388927,3997.112087,-306.438199
163.148124,8290.306550,4219.173869,-919.314598
163.148445,7846.182985,5625.565159,-612.876398
163.148766,8808.450710,7476.080014,-612.876398
163.149086,9030.512492,9104.533087,0.000000
163.149407,9252.574275,9548.656652,1149.143247
163.149728,8882.471304,8290.306550,2221.676944
163.150048,8586.388927,7550.100608,1685.410096
163.150369,7994.224174,5995.668130,1225.752797
163.150690,7254.018232,5181.441594,766.095498
163.151010,7698.141797,4145.153275,459.657299
163.151331,8438.347739,3701.029710,306.438199
163.151652,8956.491898,4293.194464,0.000000
163.151972,9474.636058,6291.750507,0.000000
163.152293,9770.718434,7772.162391,-229.828649
163.152614,9770.718434,9104.533087,76.609550
163.152934,9178.553681,9104.533087,153.219100
163.153255,8216.285956,7994.224174,536.266849
163.153576,7328.038826,7698.141797,459.657299
163.153896,5995.668130,7402.059420,306.438199
163.154217,5181.441594,7179.997637,-536.266849
163.154538,5181.441594,6587.832884,-1378.971896
163.154858,5033.400406,6661.853478,-1072.533697
163.155179,4885.359217,7105.977043,0.000000
163.155500,4737.318029,8660.409521,1225.752797
163.155820,5255.462188,9918.759623,1991.848295
163.156141,5625.565159,10436.903782,2221.676944
163.156462,5921.647536,10066.800811,2757.943793
163.156782,6069.688724,9326.594869,3370.820191
163.157103,5329.482782,7846.182985,3370.820191
163.157424,4885.359217,7698.141797,3370.820191
163.157744,5329.482782,8068.244768,3677.258390
163.158065,5995.668130,8956.491898,3830.477490
163.158386,6513.812290,9326.594869,3830.477490
163.158706,6513.812290,8808.450710,4596.572988
163.159027,6439.791695,7994.224174,5132.839837
163.159348,6439.791695,7105.977043,5439.278036
163.159668,6735.874072,6809.894666,5132.839837
163.159989,7105.977043,6735.874072,5439.278036
163.160310,7476.080014,7328.038826,4979.620737
163.160630,7254.018232,7624.121203,5362.668486
163.160951,7550.100608,7772.162391,5362.668486
163.161272,7698.141797,7920.203579,5822.325785
163.161592,7254.018232,7179.997637,5975.544884
163.161913,7179.997637,6217.729913,6128.763984
163.162234,7179.997637,5699.585753,5898.935335
163.162554,6661.853478,4959.379811,5286.058936
163.162875,6957.935855,4959.379811,5515.887586
163.163196,7105.977043,5477.523971,6052.154434
163.163516,6957.935855,7179.997637,6358.592633
163.163837,6439.791695,8216.285956,6435.202183
163.164158,6217.729913,7846.182985,6435.202183
163.164478,5995.668130,6809.894666,7584.345430
163.164799,4959.379811,6439.791695,7737.564530
163.165120,4145.153275,6143.709319,8044.002729
163.165440,3404.947333,5847.626942,7354.516781
163.165761,3034.844362,6217.729913,7124.688131
163.166082,2738.761985,6365.771101,6971.469032
163.166402,2368.659014,6513.812290,6894.859482
163.166723,2072.576638,6587.832884,7048.078582
163.167044,2294.638420,7254.018232,7048.078582
163.167364,2442.679609,7550.100608,7431.126331
163.167685,2960.823768,7994.224174,7660.954980
163.168006,3108.864956,7994.224174,7048.078582
163.168326,3256.906145,8512.368333,6741.640382
163.168647,3404.947333,8734.430116,5669.106685
163.168968,3923.091493,7994.224174,4749.792088
163.169288,4071.132681,7328.038826,4903.011187
163.169609,3997.112087,5995.668130,4749.792088
163.169930,3552.988522,5255.462188,5056.230287
163.170250,3478.967927,5329.482782,4213.525239
163.170571,3404.947333,5551.544565,2757.943793
163.170892,4219.173869,7179.997637,2451.505594
163.171212,5329.482782,7994.224174,2451.505594
163.171533,6291.750507,9252.574275,2604.724693
163.171853,6587.832884,10140.821405,2911.162892
163.172174,6735.874072,10510.924376,3064.381992
163.172495,7105.977043,11103.089130,3907.087040
163.172815,6513.812290,10732.986159,4903.011187
163.173136,5551.544565,10140.821405,5515.887586
163.173457,5625.565159,9696.697840,5745.716235
163.173777,5107.421000,8808.450710,6128.763984
163.174098,4071.132681,7105.977043,5592.497135
163.174419,2738.761985,4071.132681,4443.353888
163.174739,2738.761985,2220.617826,3140.991542
163.175060,3775.050304,3256.906145,2374.896044
163.175381,4885.359217,5995.668130,689.485948
163.175701,7105.977043,9770.718434,-153.219100
163.176022,9326.594869,14063.912898,-612.876398
163.176343,10140.821405,17024.736666,-459.657299
163.176663,9844.739029,16728.654289,1378.971896
163.176984,9474.636058,13915.871710,2987.772442
163.177305,7994.224174,10362.883188,5056.230287
163.177626,6957.935855,7920.203579,6511.811733
163.177947,4959.379811,7105.977043,4979.620737
163.178268,2960.823768,7328.038826,3217.601092
163.178588,2072.576638,7179.997637,3140.991542
163.178909,2886.803174,5995.668130,3600.648841
163.179230,3997.112087,4441.235652,4060.306139
163.179551,4663.297435,5181.441594,4443.353888
163.179872,4663.297435,8290.306550,4213.525239
163.180192,4737.318029,12139.377449,3064.381992
163.180513,5403.503377,14137.933492,2068.457845
163.180834,6513.812290,14508.036463,2681.334243
163.181155,7994.224174,13989.892304,3907.087040
163.181476,6735.874072,11621.233289,4903.011187
163.181796,4441.235652,9252.574275,5592.497135
163.182117,1406.391290,6661.853478,6205.373534
163.182438,1998.556043,5699.585753,5975.544884
163.182759,3034.844362,5477.523971,5056.230287
163.183080,3923.091493,5255.462188,4366.744339
163.183401,3849.070898,5699.585753,5209.449386
163.183721,5477.523971,6735.874072,7277.907231
163.184042,6069.688724,7772.162391,8810.098227
163.184363,5477.523971,9400.615463,7431.126331
163.184684,5033.400406,10140.821405,5439.278036
163.185005,5699.585753,10732.986159,3907.087040
163.185325,5255.462188,9918.759623,4749.792088
163.185646,5551.544565,7550.100608,5898.935335
163.185967,6217.729913,7179.997637,7431.126331
163.186288,4293.194464,7624.121203,8197.221829
163.186609,1406.391290,8290.306550,6894.859482
163.186929,2368.659014,7550.100608,6435.202183
163.187250,3627.009116,5107.421000,6435.202183
163.187571,1702.473667,2590.720797,8044.002729
163.187892,3849.070898,2590.720797,8427.050478
163.188213,6735.874072,5551.544565,7890.783629
163.188534,4663.297435,9696.697840,6511.811733
163.188854,2738.761985,10214.842000,4596.572988
163.189175,5107.421000,8512.368333,3294.210641
163.189496,4589.276840,6661.853478,4903.011187
163.189817,2442.679609,3923.091493,8810.098227
163.190138,5107.421000,5625.565159,9806.022374
163.190458,5107.421000,9326.594869,7814.174080
163.190779,2664.741391,12657.521608,5056.230287
163.191100,3182.885551,11547.212695,3830.477490
163.191421,6069.688724,8512.368333,3830.477490
163.191742,3552.988522,5033.400406,6052.154434
163.192062,2664.741391,2590.720797,7354.516781
163.192383,4293.194464,2294.638420,6588.421283
163.192704,3849.070898,5107.421000,5745.716235
163.193025,2960.823768,7402.059420,5592.497135
163.193346,4959.379811,9474.636058,4443.353888
163.193666,6587.832884,11695.253884,4443.353888
163.193987,4219.173869,13101.645173,6588.421283
163.194308,5625.565159,12509.480420,7737.564530
163.194629,7254.018232,10955.047942,6971.469032
163.194950,4737.318029,7994.224174,4903.011187
163.195271,2368.659014,4441.235652,2604.724693
163.195591,3552.988522,3923.091493,1532.190996
163.195912,4589.276840,7254.018232,2604.724693
163.196233,4441.235652,9992.780217,4519.963438
163.196554,6587.832884,11029.068536,4903.011187
163.196875,8216.285956,10955.047942,5515.887586
163.197195,5551.544565,10510.924376,5975.544884
163.197516,4589.276840,10214.842000,4749.792088
163.197837,4737.318029,8956.491898,3447.429741
163.198158,5255.462188,7846.182985,4136.915689
163.198479,6291.750507,7994.224174,5362.668486
163.198799,6957.935855,9400.615463,4903.011187
163.199120,4811.338623,9326.594869,2987.772442
163.199441,3330.926739,9622.677246,2911.162892
163.199762,4589.276840,9696.697840,4366.744339
163.200083,5181.441594,7994.224174,5592.497135
163.200404,5699.585753,7254.018232,4826.401637
163.200724,5403.503377,7105.977043,3524.039291
163.201045,3997.112087,7476.080014,2068.457845
163.201366,5107.421000,9252.574275,1991.848295
163.201687,5255.462188,9400.615463,1762.019645
163.202008,4589.276840,7920.203579,1991.848295
163.202328,6439.791695,7846.182985,3370.820191
163.202649,6291.750507,8808.450710,3217.601092
163.202970,3627.009116,8808.450710,2221.676944
163.203291,2886.803174,8216.285956,1762.019645
163.203612,5107.421000,6513.812290,1685.410096
163.203932,5551.544565,5773.606348,2528.115143
163.204253,5181.441594,6957.935855,3600.648841
163.204574,4145.153275,7402.059420,1915.238745
163.204895,3330.926739,8438.347739,919.314598
163.205216,3849.070898,8512.368333,2451.505594
163.205537,4959.379811,8364.327145,2987.772442
163.205857,6439.791695,8512.368333,2068.457845
163.206178,5625.565159,9696.697840,2451.505594
163.206499,3182.885551,9178.553681,2068.457845
163.206820,2664.741391,7179.997637,2221.676944
163.207141,3775.050304,5329.482782,2681.334243
163.207461,3997.112087,4515.256246,1532.190996
163.207782,4589.276840,5995.668130,-153.219100
163.208103,4219.173869,9030.512492,-383.047749
163.208424,2886.803174,9178.553681,-1302.362347
163.208745,4663.297435,8142.265362,-459.657299
163.209065,8438.347739,8216.285956,1685.410096
163.209386,7698.141797,9252.574275,2451.505594
163.209707,6883.915261,11843.295072,2145.067394
163.210028,6291.750507,13175.665768,1378.971896
163.210349,5255.462188,10955.047942,1915.238745
163.210670,5773.606348,7105.977043,3830.477490
163.210990,6217.729913,5699.585753,4596.572988
163.211311,4959.379811,6217.729913,4136.915689
163.211632,2960.823768,7328.038826,2451.505594
163.211953,2590.720797,6957.935855,1225.752797
163.212274,4071.132681,5181.441594,1532.190996
163.212594,6069.688724,6661.853478,3217.601092
163.212915,6735.874072,10732.986159,3370.820191
163.213236,4293.194464,11325.150913,995.924147
163.213557,3849.070898,10362.883188,-689.485948
163.213878,5403.503377,8512.368333,-383.047749
163.214198,6587.832884,7698.141797,1838.629195
163.214519,6439.791695,9918.759623,2604.724693
163.214840,4367.215058,10955.047942,995.924147
163.215161,2368.659014,9548.656652,-1149.143247
163.215482,3997.112087,7179.997637,-383.047749
163.215802,5625.565159,6809.894666,1762.019645
163.216123,2516.700203,6661.853478,1608.800546
163.216444,1924.535449,7772.162391,689.485948
163.216765,3478.967927,8660.409521,766.095498
163.217086,4441.235652,8216.285956,1149.143247
163.217407,5403.503377,7698.141797,2604.724693
163.217727,6291.750507,10584.944971,2451.505594
163.218048,4737.318029,11177.109724,1685.410096
163.218369,3404.947333,9104.533087,1072.533697
163.218690,6217.729913,6439.791695,842.705048
163.219011,6587.832884,5625.565159,2221.676944
163.219331,4737.318029,6439.791695,2298.286494
163.219652,2960.823768,6735.874072,1455.581446
163.219973,4367.215058,5847.626942,-995.924147
163.220294,6217.729913,4737.318029,-1072.533697
163.220615,8142.265362,4885.359217,76.609550
163.220935,6661.853478,5477.523971,536.266849
163.221256,5847.626942,7254.018232,-383.047749
163.221577,5921.647536,7624.121203,-1532.190996
163.221898,6217.729913,6513.812290,-2604.724693
163.222219,7328.038826,7254.018232,-2068.457845
163.222540,7031.956449,8956.491898,-1225.752797
163.222860,4885.359217,8882.471304,-1302.362347
163.223181,3775.050304,7772.162391,-2604.724693
163.223502,5255.462188,7254.018232,-3753.867940
163.223823,4145.153275,6735.874072,-2451.505594
163.224144,2960.823768,7105.977043,-229.828649
163.224464,3182.885551,7698.141797,-689.485948
163.224785,3775.050304,8290.306550,-2528.115143
163.225106,3552.988522,8364.327145,-1608.800546
163.225427,4737.318029,9326.594869,-383.047749
163.225748,5033.400406,10288.862594,-1302.362347
163.226068,3182.885551,9770.718434,-1225.752797
163.226389,3034.844362,6735.874072,-2221.676944
163.226710,5995.668130,7254.018232,-1685.410096
163.227031,5847.626942,9326.594869,459.657299
163.227352,3923.091493,9548.656652,-612.876398
163.227673,4441.235652,8808.450710,-3983.696590
163.227993,5551.544565,8142.265362,-4213.525239
163.228314,6143.709319,7105.977043,-1608.800546
163.228635,8290.306550,7328.038826,-459.657299
163.228956,8142.265362,9030.512492,-2987.772442
163.229277,5477.523971,8512.368333,-4826.401637
163.229597,6957.935855,8586.388927,-4826.401637
163.229918,9918.759623,10732.986159,-3064.381992
163.230239,8068.244768,11547.212695,-612.876398
163.230560,6957.935855,11177.109724,-919.314598
163.230881,6809.894666,9400.615463,-3753.867940
163.231201,4589.276840,7772.162391,-3140.991542
163.231522,5329.482782,8216.285956,612.876398
163.231843,6735.874072,9696.697840,842.705048
163.232164,4219.173869,9400.615463,-2374.896044
163.232485,2960.823768,9400.615463,-3447.429741
163.232806,5477.523971,9178.553681,-842.705048
163.233126,5403.503377,8290.306550,1991.848295
163.233447,4737.318029,8216.285956,1991.848295
163.233768,4145.153275,8882.471304,-459.657299
163.234089,3404.947333,9770.718434,-1915.238745
163.234410,4515.256246,10214.842000,1149.143247
163.234730,5773.606348,9548.656652,3830.477490
163.235051,5403.503377,8512.368333,2604.724693
163.235372,3849.070898,7031.956449,0.000000
163.235693,2738.761985,6069.688724,-2528.115143
163.236014,4367.215058,5551.544565,-1762.019645
163.236334,6661.853478,7105.977043,1915.238745
163.236655,5773.606348,8438.347739,1762.019645
163.236976,3849.070898,6883.915261,-612.876398
163.237297,4959.379811,7179.997637,-306.438199
163.237618,6883.915261,8364.327145,1608.800546
163.237939,5773.606348,7105.977043,1532.190996
163.238259,4885.359217,4441.235652,-1378.971896
163.238580,4145.153275,2442.679609,-3830.477490
163.238901,3849.070898,3034.844362,-3370.820191
163.239222,5773.606348,6809.894666,-536.266849
163.239543,5847.626942,9178.553681,-1149.143247
163.239863,5403.503377,10066.800811,-2451.505594
163.240184,7105.977043,9548.656652,-689.485948
163.240505,6883.915261,8660.409521,2451.505594
163.240826,5847.626942,6513.812290,4749.792088
163.241147,3997.112087,5847.626942,4136.915689
163.241467,2960.823768,5033.400406,306.438199
163.241788,2220.617826,3552.988522,-1378.971896
163.242109,4219.173869,3923.091493,-536.266849
163.242430,5551.544565,6217.729913,1149.143247
163.242751,4737.318029,6883.915261,2221.676944
163.243071,3552.988522,7328.038826,459.657299
163.243392,3923.091493,8142.265362,-1149.143247
163.243713,4367.215058,8364.327145,0.000000
163.244034,5329.482782,8216.285956,919.314598
163.244355,5995.668130,7105.977043,-459.657299
163.244676,4737.318029,7254.018232,-2987.772442
163.244996,4515.256246,9104.533087,-4136.915689
163.245317,5995.668130,10214.842000,-3064.381992
163.245638,5107.421000,9696.697840,-1915.238745
163.245959,4145.153275,9104.533087,-1225.752797
163.246280,3256.906145,6809.894666,-2374.896044
163.246600,4367.215058,6513.812290,-2681.334243
163.246921,4293.194464,7994.224174,-1378.971896
163.247242,5625.565159,10140.821405,-306.438199
163.247563,6291.750507,10362.883188,-1685.410096
163.247884,6513.812290,10510.924376,-3217.601092
163.248204,7105.977043,10955.047942,-1608.800546
163.248525,7105.977043,11029.068536,-612.876398
163.248846,6513.812290,9992.780217,536.266849
163.249167,6661.853478,9770.718434,1302.362347
163.249488,6291.750507,9178.553681,0.000000
163.249809,5107.421000,8438.347739,-612.876398
163.250129,4663.297435,8660.409521,76.609550
163.250450,4811.338623,8364.327145,229.828649
163.250771,4589.276840,7402.059420,-1072.533697
163.251092,4367.215058,4959.379811,-2911.162892
163.251413,6661.853478,5921.647536,-3217.601092
163.251733,7550.100608,9474.636058,-995.924147
163.252054,6365.771101,9178.553681,-1762.019645
163.252375,6809.894666,8512.368333,-3600.648841
163.252696,7846.182985,10584.944971,-3753.867940
163.253017,6809.894666,11843.295072,-1378.971896
163.253337,7402.059420,11843.295072,383.047749
163.253658,6661.853478,10066.800811,-459.657299
163.253979,3478.967927,6735.874072,-2757.943793
163.254300,2590.720797,4441.235652,-2834.553343
163.254621,3404.947333,5477.523971,-995.924147
163.254942,2960.823768,7476.080014,612.876398
163.255262,3701.029710,8882.471304,842.705048
163.255583,4959.379811,7994.224174,-919.314598
163.255904,4219.173869,7254.018232,536.266849
163.256225,3849.070898,7105.977043,3217.601092
163.256546,3997.112087,7328.038826,2221.676944
163.256866,3627.009116,7105.977043,0.000000
163.257187,3552.988522,7402.059420,-1991.848295
163.257508,5477.523971,8142.265362,-689.485948
163.257829,7031.956449,8882.471304,1378.971896
163.258150,5033.400406,8808.450710,1991.848295
163.258470,3404.947333,7698.141797,-459.657299
163.258791,3256.906145,6143.709319,-1378.971896
163.259112,4737.318029,5773.606348,-306.438199
163.259433,5403.503377,5551.544565,1072.533697
163.259754,5107.421000,6217.729913,76.609550
163.260075,5181.441594,7328.038826,-1762.019645
163.260395,4737.318029,7105.977043,-2221.676944
163.260716,5477.523971,8512.368333,-919.314598
163.261037,5921.647536,7994.224174,-306.438199
163.261358,5181.441594,7402.059420,-612.876398
163.261679,4589.276840,6809.894666,-153.219100
163.261999,5255.462188,8660.409521,-459.657299
163.262320,6069.688724,10584.944971,766.095498
163.262641,4737.318029,10362.883188,0.000000
163.262962,3552.988522,7624.121203,-919.314598
163.263283,3478.967927,5921.647536,153.219100
163.263603,4737.318029,6661.853478,2145.067394
163.263924,4959.379811,7031.956449,2374.896044
163.264245,4367.215058,7772.162391,229.828649
163.264566,3775.050304,7402.059420,-1608.800546
163.264887,4219.173869,5995.668130,-459.657299
163.265207,4959.379811,6661.853478,1532.190996
163.265528,5699.585753,8586.388927,2298.286494
163.265849,4589.276840,9400.615463,0.000000
163.266170,4071.132681,8956.491898,-2757.943793
163.266491,4959.379811,8290.306550,-3140.991542
163.266812,7105.977043,9622.677246,0.000000
163.267132,7105.977043,10140.821405,1762.019645
163.267453,6291.750507,9992.780217,-1302.362347
163.267774,4663.297435,9548.656652,-3907.087040
163.268095,4515.256246,9030.512492,-1608.800546
163.268416,6513.812290,8068.244768,1991.848295
163.268736,8364.327145,9252.574275,3140.991542
163.269057,5181.441594,9474.636058,383.047749
163.269378,3034.844362,7550.100608,-2221.676944
163.269699,4959.379811,6735.874072,-1838.629195
163.270020,6143.709319,7550.100608,1378.971896
163.270340,5699.585753,8956.491898,3140.991542
163.270661,6143.709319,9696.697840,0.000000
163.270982,5551.544565,9548.656652,-3217.601092
163.271303,5403.503377,9844.739029,0.000000
163.271624,6661.853478,10362.883188,3447.429741
163.271945,6365.771101,10288.862594,3447.429741
163.272265,3404.947333,8734.430116,842.705048
163.272586,3404.947333,7328.038826,306.438199
163.272907,5329.482782,6809.894666,766.095498
163.273228,5107.421000,6735.874072,1455.581446
163.273549,2812.782580,6957.935855,995.924147
163.273869,2664.741391,6587.832884,-1532.190996
163.274190,3627.009116,6809.894666,-1455.581446
163.274511,4589.276840,7476.080014,1149.143247
163.274832,5255.462188,8438.347739,1915.238745
163.275153,5995.668130,9326.594869,842.705048
163.275473,3404.947333,9030.512492,-689.485948
163.275794,2516.700203,7920.203579,-1225.752797
163.276115,5329.482782,7550.100608,-1072.533697
163.276436,6439.791695,8512.368333,-689.485948
163.276757,4589.276840,8956.491898,0.000000
163.277078,3182.885551,7550.100608,-689.485948
163.277398,4071.132681,6439.791695,-459.657299
163.277719,4663.297435,7105.977043,1378.971896
163.278040,3701.029710,7846.182985,2145.067394
163.278361,2664.741391,6883.915261,995.924147
163.278682,3034.844362,6217.729913,0.000000
163.279002,4441.235652,7328.038826,459.657299
163.279323,5329.482782,7254.018232,612.876398
163.279644,4441.235652,6365.771101,383.047749
163.279965,5181.441594,6587.832884,-383.047749
163.280285,5551.544565,7994.224174,-153.219100
163.280606,4959.379811,8512.368333,-536.266849
163.280927,5773.606348,7920.203579,-229.828649
163.281248,7031.956449,8882.471304,919.314598
163.281568,5773.606348,8882.471304,1072.533697
163.281889,5921.647536,8290.306550,0.000000
163.282210,6587.832884,8956.491898,-1991.848295
163.282530,6069.688724,8216.285956,-1378.971896
163.282851,4145.153275,5773.606348,-612.876398
163.283172,3552.988522,4367.215058,-1685.410096
163.283493,5255.462188,5995.668130,-2068.457845
163.283813,6069.688724,9252.574275,0.000000
163.284134,5921.647536,11473.192101,153.219100
163.284455,6439.791695,13101.645173,-689.485948
163.284775,4737.318029,12139.377449,229.828649
163.285096,5033.400406,9252.574275,1838.629195
163.285417,6587.832884,7920.203579,2298.286494
163.285738,4885.359217,8438.347739,1608.800546
163.286058,2886.803174,8512.368333,-612.876398
163.286379,3849.070898,7994.224174,-1378.971896
163.286700,5699.585753,8808.450710,-612.876398
163.287020,4737.318029,9992.780217,3140.991542
163.287341,4959.379811,11103.089130,3830.477490
163.287662,3182.885551,8512.368333,1149.143247
163.287983,2368.659014,5921.647536,0.000000
163.288303,5847.626942,7105.977043,1149.143247
163.288624,5699.585753,9622.677246,919.314598
163.288945,3849.070898,9992.780217,-536.266849
163.289265,5255.462188,9104.533087,-1762.019645
163.289586,6661.853478,8290.306550,-1762.019645
163.289907,5847.626942,7624.121203,1378.971896
163.290228,5255.462188,8438.347739,2451.505594
163.290548,5329.482782,9696.697840,612.876398
163.290869,3923.091493,8438.347739,-536.266849
163.291190,5329.482782,7105.977043,229.828649
163.291510,7698.141797,7105.977043,1072.533697
163.291831,5329.482782,6957.935855,1991.848295
163.292152,2960.823768,6735.874072,1149.143247
163.292473,3182.885551,5625.565159,-842.705048
163.292793,3923.091493,4811.338623,-842.705048
163.293114,5921.647536,6513.812290,1685.410096
163.293435,6217.729913,7698.141797,2451.505594
163.293755,3330.926739,8068.244768,306.438199
163.294076,2738.761985,7624.121203,0.000000
163.294397,5995.668130,8808.450710,-229.828649
163.294718,6291.750507,8512.368333,536.266849
163.295038,3997.112087,7476.080014,995.924147
163.295359,3923.091493,6513.812290,-536.266849
163.295680,3849.070898,5551.544565,-1072.533697
163.296000,3701.029710,6143.709319,1532.190996
163.296321,5329.482782,7179.997637,1685.410096
163.296642,4663.297435,8290.306550,229.828649
163.296963,2590.720797,7402.059420,-612.876398
163.297283,4219.173869,6883.915261,76.609550
163.297604,5403.503377,6217.729913,76.609550
163.297925,4811.338623,7550.100608,306.438199
163.298245,3701.029710,8512.368333,-1072.533697
163.298566,3775.050304,7624.121203,-4060.306139
163.298887,4811.338623,7698.141797,-3600.648841
163.299208,7105.977043,9474.636058,306.438199
163.299528,6291.750507,10584.944971,766.095498
163.299849,5107.421000,11103.089130,-1302.362347
163.300170,4441.235652,10955.047942,-1685.410096
163.300490,4737.318029,8956.491898,-459.657299
163.300811,6439.791695,7328.038826,1762.019645
163.301132,6587.832884,7846.182985,2068.457845
163.301453,3997.112087,8290.306550,-459.657299
163.301773,2812.782580,7476.080014,-1991.848295
163.302094,5699.585753,8290.306550,0.000000
163.302415,6587.832884,8068.244768,1685.410096
163.302735,5477.523971,9178.553681,2451.505594
163.303056,5329.482782,9474.636058,0.000000
163.303377,5033.400406,9474.636058,-2987.772442
163.303698,5329.482782,10066.800811,-1915.238745
163.304018,7031.956449,10066.800811,383.047749
163.304339,6513.812290,9400.615463,-536.266849
163.304660,4885.359217,8956.491898,-2221.676944
163.304980,4367.215058,8364.327145,-2451.505594
163.305301,4515.256246,6809.894666,-2221.676944
163.305622,5699.585753,7920.203579,306.438199
163.305943,5625.565159,9474.636058,383.047749
163.306263,4589.276840,9178.553681,-1838.629195
163.306584,4811.338623,9326.594869,-2068.457845
163.306905,6291.750507,9696.697840,612.876398
163.307225,5181.441594,8216.285956,2145.067394
163.307546,4885.359217,7031.956449,1532.190996
163.307867,4589.276840,7550.100608,-383.047749
163.308188,4145.153275,8290.306550,-1149.143247
163.308508,4959.379811,8956.491898,1072.533697
163.308829,5181.441594,7994.224174,1302.362347
163.309150,3775.050304,6217.729913,0.000000
163.309470,2590.720797,5699.585753,-612.876398
163.309791,4589.276840,7402.059420,-153.219100
163.310112,5477.523971,9474.636058,689.485948
163.310433,4515.256246,9252.574275,995.924147
163.310753,4589.276840,7105.977043,-1072.533697
163.311074,4441.235652,5625.565159,-2068.457845
163.311395,4885.359217,6957.935855,919.314598
163.311715,4811.338623,7772.162391,2757.943793
163.312036,5699.585753,7550.100608,536.266849
163.312357,5477.523971,7550.100608,-2374.896044
163.312678,4737.318029,7402.059420,-1225.752797
163.312998,5033.400406,6809.894666,1455.581446
163.313319,6143.709319,6735.874072,2681.334243
163.313640,4811.338623,6883.915261,536.266849
163.313961,3034.844362,4811.338623,-2911.162892
163.314281,3849.070898,4367.215058,-3524.039291
163.314602,5773.606348,5625.565159,-842.705048
163.314923,5847.626942,9400.615463,1149.143247
163.315243,6069.688724,11769.274478,-842.705048
163.315564,5403.503377,10510.924376,-3677.258390
163.315885,5255.462188,8734.430116,-1378.971896
163.316206,6587.832884,8142.265362,3753.867940
163.316526,5847.626942,7846.182985,4290.134789
163.316847,2072.576638,5921.647536,459.657299
163.317168,2294.638420,6439.791695,-1915.238745
163.317488,5329.482782,8290.306550,-919.314598
163.317809,5847.626942,8882.471304,842.705048
163.318130,4145.153275,7254.018232,1762.019645
163.318451,3997.112087,5625.565159,0.000000
163.318771,4293.194464,6365.771101,-1838.629195
163.319092,3849.070898,8290.306550,-1455.581446
163.319413,4441.235652,8956.491898,-1991.848295
163.319733,7105.977043,9844.739029,-2681.334243
163.320054,8068.244768,11473.192101,-2374.896044
163.320375,6735.874072,11399.171507,-995.924147
163.320696,6513.812290,9844.739029,-842.705048
163.321016,6883.915261,9548.656652,-383.047749
163.321337,4811.338623,8512.368333,76.609550
163.321658,3775.050304,6957.935855,-536.266849
163.321978,5403.503377,6883.915261,-2068.457845
163.322299,6217.729913,8216.285956,-1685.410096
163.322620,6291.750507,9252.574275,76.609550
163.322941,6365.771101,9326.594869,0.000000
163.323261,4145.153275,7328.038826,-1072.533697
163.323582,3997.112087,7328.038826,-383.047749
163.323903,5773.606348,8364.327145,383.047749
163.324223,4737.318029,8734.430116,-153.219100
163.324544,3034.844362,8068.244768,-1685.410096
163.324865,6513.812290,9030.512492,-1608.800546
163.325186,7105.977043,10658.965565,-995.924147
163.325506,5403.503377,11177.109724,0.000000
163.325827,4737.318029,10362.883188,-459.657299
163.326148,4589.276840,8290.306550,-689.485948
163.326468,3849.070898,5995.668130,306.438199
163.326789,5033.400406,6365.771101,2221.676944
163.327110,5699.585753,7846.182985,2068.457845
163.327431,3923.091493,7772.162391,0.000000
163.327751,3478.967927,6365.771101,-842.705048
163.328072,4885.359217,5699.585753,-1378.971896
163.328393,5255.462188,5329.482782,-995.924147
163.328713,4441.235652,6735.874072,-612.876398
163.329034,5033.400406,8512.368333,-1378.971896
163.329355,5995.668130,9474.636058,-1532.190996
163.329676,6291.750507,10066.800811,-536.266849
163.329996,6069.688724,9178.553681,689.485948
163.330317,5181.441594,9030.512492,153.219100
163.330638,3701.029710,8438.347739,-536.266849
163.330958,2294.638420,6661.853478,-2145.067394
163.331279,4219.173869,4811.338623,-2374.896044
163.331600,6513.812290,6143.709319,-383.047749
163.331921,5403.503377,7920.203579,842.705048
163.332241,2294.638420,7698.141797,612.876398
163.332562,3108.864956,7698.141797,-229.828649
163.332883,6069.688724,8734.430116,1149.143247
163.333203,5329.482782,8216.285956,2451.505594
163.333524,4663.297435,7624.121203,1455.581446
163.333845,4959.379811,7031.956449,-919.314598
163.334166,4293.194464,6513.812290,-2068.457845
163.334486,4663.297435,7031.956449,-1608.800546
163.334807,5107.421000,8882.471304,-2451.505594
163.335128,5107.421000,9770.718434,-1991.848295
