#time,accel_x,accel_y,accel_z
508.343118,4885.359217,8142.265362,0.000000
508.343438,4959.379811,7920.203579,0.000000
508.343759,4885.359217,8290.306550,-306.438199
508.344079,4959.379811,8216.285956,-306.438199
508.344400,4959.379811,7920.203579,0.000000
508.344721,5107.421000,7920.203579,0.000000
508.345041,4959.379811,8142.265362,0.000000
508.345362,4959.379811,7994.224174,-153.219100
508.345682,5033.400406,8142.265362,0.000000
508.346003,4885.359217,8068.244768,0.000000
508.346324,4811.338623,8438.347739,-459.657299
508.346644,5033.400406,8512.368333,0.000000
508.346965,5107.421000,7994.224174,0.000000
508.347285,4885.359217,8142.265362,76.609550
508.347606,5033.400406,7994.224174,0.000000
508.347927,4885.359217,8068.244768,76.609550
508.348247,4811.338623,8068.244768,-306.438199
508.348568,4811.338623,8142.265362,-76.609550
508.348888,5329.482782,7772.162391,-383.047749
508.349209,4737.318029,8660.409521,-306.438199
508.349530,5255.462188,7328.038826,-229.828649
508.349850,5181.441594,7920.203579,-306.438199
508.350171,4885.359217,7994.224174,0.000000
508.350491,4959.379811,7994.224174,-76.609550
508.350812,4811.338623,7994.224174,0.000000
508.351133,5181.441594,8290.306550,-76.609550
508.351453,4737.318029,8216.285956,0.000000
508.351774,4959.379811,7994.224174,0.000000
508.352094,4959.379811,7846.182985,0.000000
508.352415,5329.482782,7920.203579,0.000000
508.352736,4811.338623,7994.224174,-229.828649
508.353056,4885.359217,7698.141797,-459.657299
508.353377,4885.359217,7994.224174,-153.219100
508.353697,5033.400406,7994.224174,0.000000
508.354018,4737.318029,7994.224174,0.000000
508.354339,4811.338623,8142.265362,-459.657299
508.354659,4589.276840,7476.080014,-536.266849
508.354980,4145.153275,7254.018232,-76.609550
508.355300,4219.173869,7920.203579,-153.219100
508.355621,4589.276840,9400.615463,-536.266849
508.355942,4663.297435,9992.780217,-1149.143247
508.356262,4367.215058,9918.759623,-1225.752797
508.356583,4145.153275,9548.656652,-766.095498
508.356903,3552.988522,9252.574275,-459.657299
508.357224,2812.782580,8808.450710,1225.752797
508.357545,2960.823768,9474.636058,459.657299
508.357865,2442.679609,9252.574275,153.219100
508.358186,2368.659014,8808.450710,76.609550
508.358506,2886.803174,8142.265362,0.000000
508.358827,3034.844362,8734.430116,0.000000
508.359148,3256.906145,9770.718434,612.876398
508.359468,2590.720797,8956.491898,536.266849
508.359789,2368.659014,8660.409521,229.828649
508.360109,2590.720797,9400.615463,-229.828649
508.360430,2442.679609,10362.883188,-1072.533697
508.360751,2294.638420,11325.150913,-1225.752797
508.361071,1924.535449,11843.295072,-1225.752797
508.361392,1554.432478,11547.212695,-1149.143247
508.361712,666.185348,10658.965565,-1225.752797
508.362033,0.000000,10658.965565,-1762.019645
508.362354,-740.205942,11547.212695,-1532.190996
508.362674,-1480.411884,12361.439231,-689.485948
508.362995,-1258.350101,12435.459826,689.485948
508.363315,-740.205942,11843.295072,1455.581446
508.363636,-740.205942,12287.418637,1685.410096
508.363957,-1332.370696,13545.768739,1072.533697
508.364277,-2368.659014,12139.377449,689.485948
508.364598,-2072.576638,10584.944971,-153.219100
508.364918,-1110.308913,9474.636058,0.000000
508.365239,-1036.288319,9178.553681,995.924147
508.365560,0.000000,9622.677246,1149.143247
508.365880,-148.041188,10732.986159,306.438199
508.366201,148.041188,11399.171507,-842.705048
508.366521,1332.370696,11399.171507,-1608.800546
508.366842,2294.638420,10510.924376,-1072.533697
508.367163,3108.864956,10510.924376,383.047749
508.367483,3330.926739,10881.027347,76.609550
508.367804,2516.700203,9918.759623,-1532.190996
508.368124,2294.638420,9030.512492,-2451.505594
508.368445,2368.659014,9104.533087,-1608.800546
508.368766,2516.700203,9400.615463,-689.485948
508.369086,1998.556043,9696.697840,-459.657299
508.369407,1554.432478,10362.883188,-919.314598
508.369727,1406.391290,11473.192101,-536.266849
508.370048,296.082377,11547.212695,229.828649
508.370369,0.000000,11177.109724,995.924147
508.370689,-518.144159,10214.842000,536.266849
508.371010,-666.185348,9918.759623,383.047749
508.371330,-814.226536,9918.759623,1072.533697
508.371651,-1036.288319,10732.986159,1225.752797
508.371972,-444.123565,11547.212695,1685.410096
508.372292,370.102971,11917.315666,1149.143247
508.372613,370.102971,11769.274478,306.438199
508.372933,814.226536,11251.130318,0.000000
508.373254,814.226536,11103.089130,-459.657299
508.373575,1258.350101,10214.842000,-76.609550
508.373895,1554.432478,9474.636058,0.000000
508.374216,1628.453072,8882.471304,-306.438199
508.374536,1998.556043,9178.553681,0.000000
508.374857,2516.700203,9548.656652,-306.438199
508.375178,2590.720797,10881.027347,-306.438199
508.375498,2442.679609,10881.027347,0.000000
508.375819,2960.823768,10362.883188,0.000000
508.376139,3034.844362,10066.800811,-766.095498
508.376460,3108.864956,9548.656652,-1072.533697
508.376781,2886.803174,9548.656652,-919.314598
508.377101,2146.597232,10066.800811,-1302.362347
508.377422,1628.453072,10584.944971,-995.924147
508.377742,1258.350101,11399.171507,-76.609550
508.378063,1480.411884,11843.295072,-459.657299
508.378384,148.041188,11325.150913,-1225.752797
508.378704,-740.205942,10140.821405,-1378.971896
508.379025,-1776.494261,9474.636058,-1532.190996
508.379345,-2072.576638,8882.471304,306.438199
508.379666,-1258.350101,9622.677246,1455.581446
508.379987,0.000000,11029.068536,1838.629195
508.380307,296.082377,12657.521608,1762.019645
508.380628,74.020594,14137.933492,766.095498
508.380948,666.185348,14063.912898,0.000000
508.381269,1554.432478,12287.418637,-612.876398
508.381590,1850.514855,10881.027347,-383.047749
508.381910,1480.411884,9474.636058,0.000000
508.382231,814.226536,9030.512492,-995.924147
508.382551,-740.205942,9104.533087,-1302.362347
508.382872,-1258.350101,9992.780217,-1685.410096
508.383193,-888.247130,10881.027347,-1225.752797
508.383513,148.041188,11473.192101,-383.047749
508.383834,1184.329507,12435.459826,0.000000
508.384154,1332.370696,13619.789333,76.609550
508.384475,1110.308913,13323.706956,0.000000
508.384796,222.061783,12805.562797,0.000000
508.385116,1480.411884,10658.965565,-306.438199
508.385437,1628.453072,8808.450710,-766.095498
508.385757,2146.597232,8512.368333,-612.876398
508.386078,888.247130,9548.656652,-766.095498
508.386399,370.102971,10510.924376,0.000000
508.386719,0.000000,9844.739029,459.657299
508.387040,74.020594,8734.430116,1225.752797
508.387360,0.000000,7328.038826,919.314598
508.387681,814.226536,8216.285956,919.314598
508.388002,1628.453072,10955.047942,0.000000
508.388322,518.144159,12583.501014,-1378.971896
508.388643,666.185348,12657.521608,-2298.286494
508.388963,1702.473667,13101.645173,-1838.629195
508.389284,1036.288319,13767.830521,-995.924147
508.389605,0.000000,13767.830521,-842.705048
508.389925,0.000000,12139.377449,-766.095498
508.390246,-370.102971,11029.068536,229.828649
508.390566,-222.061783,10510.924376,2145.067394
508.390887,-370.102971,9474.636058,1991.848295
508.391208,-1850.514855,9252.574275,842.705048
508.391528,-2516.700203,8660.409521,689.485948
508.391849,-2368.659014,9104.533087,766.095498
508.392169,-666.185348,9400.615463,536.266849
508.392490,1184.329507,10436.903782,536.266849
508.392811,2294.638420,12879.583391,536.266849
508.393131,2072.576638,13471.748144,-1072.533697
508.393452,1998.556043,12361.439231,-2528.115143
508.393772,1998.556043,9474.636058,-2681.334243
508.394093,2368.659014,7624.121203,-306.438199
508.394414,4071.132681,9548.656652,1455.581446
508.394734,2368.659014,11769.274478,229.828649
508.395055,1776.494261,12583.501014,-2221.676944
508.395375,2368.659014,12213.398043,-3677.258390
508.395696,2442.679609,11103.089130,-2068.457845
508.396017,1036.288319,7328.038826,-229.828649
508.396337,888.247130,5995.668130,229.828649
508.396658,1776.494261,8734.430116,229.828649
508.396978,666.185348,10732.986159,536.266849
508.397299,444.123565,11029.068536,1532.190996
508.397620,1776.494261,10066.800811,1991.848295
508.397940,3108.864956,10584.944971,2911.162892
508.398261,2072.576638,11843.295072,1685.410096
508.398581,2072.576638,10436.903782,-1532.190996
508.398902,3034.844362,8512.368333,-2757.943793
508.399223,4515.256246,6883.915261,-1072.533697
508.399543,4589.276840,4145.153275,383.047749
508.399864,5551.544565,4145.153275,306.438199
508.400184,5181.441594,7105.977043,383.047749
508.400505,5773.606348,10140.821405,383.047749
508.400826,6439.791695,10510.924376,76.609550
508.401146,8808.450710,10214.842000,-1455.581446
508.401467,8364.327145,9548.656652,-1378.971896
508.401787,7846.182985,8364.327145,-1302.362347
508.402108,5625.565159,7031.956449,-1149.143247
508.402429,3256.906145,6661.853478,-2374.896044
508.402749,3034.844362,6587.832884,-1378.971896
508.403070,3997.112087,7476.080014,842.705048
508.403390,4441.235652,9474.636058,2987.772442
508.403711,4959.379811,10658.965565,2604.724693
508.404032,4441.235652,10066.800811,919.314598
508.404352,3701.029710,7920.203579,-612.876398
508.404673,2220.617826,5551.544565,383.047749
508.404993,2368.659014,4293.194464,1532.190996
508.405314,5181.441594,5477.523971,459.657299
508.405634,6365.771101,7920.203579,-1072.533697
508.405955,6587.832884,10436.903782,-2528.115143
508.406275,6513.812290,11325.150913,-1532.190996
508.406596,5551.544565,10140.821405,229.828649
508.406916,5181.441594,8068.244768,995.924147
508.407236,6883.915261,6365.771101,306.438199
508.407557,7328.038826,6513.812290,-612.876398
508.407877,5477.523971,7772.162391,-1532.190996
508.408198,5255.462188,7179.997637,-1608.800546
508.408518,4589.276840,5921.647536,-612.876398
508.408839,5403.503377,5551.544565,689.485948
508.409159,5847.626942,6661.853478,1532.190996
508.409479,5847.626942,9326.594869,-612.876398
508.409800,5255.462188,11325.150913,-2374.896044
508.410120,5181.441594,11695.253884,-1608.800546
508.410441,5255.462188,9696.697840,153.219100
508.410761,3701.029710,7105.977043,1915.238745
508.411082,3034.844362,5847.626942,1225.752797
508.411402,2368.659014,7105.977043,-1225.752797
508.411722,1258.350101,8882.471304,-3140.991542
508.412043,2590.720797,10362.883188,-2681.334243
508.412363,4811.338623,10584.944971,-383.047749
508.412684,4071.132681,10510.924376,1225.752797
508.413004,3627.009116,9696.697840,2068.457845
508.413325,3034.844362,9326.594869,1378.971896
508.413645,2368.659014,9104.533087,1302.362347
508.413965,3923.091493,8808.450710,1302.362347
508.414286,5403.503377,8290.306550,919.314598
508.414606,4737.318029,7254.018232,-689.485948
508.414927,4515.256246,7476.080014,-612.876398
508.415247,5033.400406,8364.327145,-689.485948
508.415567,5773.606348,8290.306550,-1302.362347
508.415888,5847.626942,7476.080014,-1225.752797
508.416208,6143.709319,6809.894666,-995.924147
508.416529,6513.812290,6291.750507,0.000000
508.416849,5625.565159,7179.997637,1838.629195
508.417170,5847.626942,7994.224174,459.657299
508.417490,7031.956449,9992.780217,-2068.457845
508.417810,6513.812290,9696.697840,-3140.991542
508.418131,6735.874072,8808.450710,-2068.457845
508.418451,5995.668130,7105.977043,-536.266849
508.418772,5033.400406,5477.523971,0.000000
508.419092,4959.379811,5403.503377,-229.828649
508.419413,4885.359217,6661.853478,-919.314598
508.419733,4589.276840,7624.121203,-842.705048
508.420053,5181.441594,7698.141797,0.000000
508.420374,6661.853478,7772.162391,1149.143247
508.420694,4959.379811,7550.100608,1149.143247
508.421015,4515.256246,7920.203579,1378.971896
508.421335,5625.565159,8660.409521,0.000000
508.421656,5995.668130,8734.430116,-1915.238745
508.421976,5699.585753,8808.450710,-1378.971896
508.422296,5551.544565,8586.388927,0.000000
508.422617,4441.235652,8216.285956,612.876398
508.422937,3478.967927,7994.224174,766.095498
508.423258,4737.318029,8808.450710,536.266849
508.423578,5255.462188,9252.574275,-995.924147
508.423899,4663.297435,9252.574275,-689.485948
508.424219,3997.112087,7920.203579,-153.219100
508.424539,3256.906145,6883.915261,153.219100
508.424860,4737.318029,6439.791695,1455.581446
508.425180,4737.318029,7550.100608,919.314598
508.425501,5033.400406,9030.512492,-919.314598
508.425821,5921.647536,11621.233289,-1685.410096
508.426142,5329.482782,11843.295072,-1532.190996
508.426462,4293.194464,9548.656652,0.000000
508.426782,5181.441594,7105.977043,2068.457845
508.427103,4885.359217,6513.812290,1455.581446
508.427423,4219.173869,7254.018232,-919.314598
508.427744,4145.153275,8142.265362,-2451.505594
508.428064,4367.215058,8734.430116,-2221.676944
508.428384,4737.318029,7772.162391,229.828649
508.428705,5847.626942,7402.059420,2451.505594
508.429025,4441.235652,7772.162391,1762.019645
508.429346,4145.153275,8808.450710,-306.438199
508.429666,4367.215058,10584.944971,-1072.533697
508.429987,5107.421000,9918.759623,-459.657299
508.430307,5551.544565,7402.059420,1149.143247
508.430627,5329.482782,5625.565159,1915.238745
508.430948,4219.173869,5995.668130,766.095498
508.431268,3034.844362,6883.915261,-459.657299
508.431589,3701.029710,7624.121203,-1608.800546
508.431909,5773.606348,7328.038826,-1915.238745
508.432230,7328.038826,7476.080014,-689.485948
508.432550,6809.894666,7105.977043,842.705048
508.432870,5255.462188,7476.080014,1302.362347
508.433191,5699.585753,7994.224174,536.266849
508.433511,6661.853478,8512.368333,0.000000
508.433832,6587.832884,7772.162391,-995.924147
508.434152,7031.956449,6883.915261,-1072.533697
508.434473,6513.812290,6587.832884,153.219100
508.434793,5255.462188,6291.750507,536.266849
508.435113,5181.441594,5995.668130,153.219100
508.435434,6069.688724,6143.709319,-919.314598
508.435754,6439.791695,6809.894666,-1532.190996
508.436075,6439.791695,6513.812290,-383.047749
508.436395,6365.771101,6809.894666,153.219100
508.436716,5921.647536,6587.832884,766.095498
508.437036,5403.503377,7624.121203,536.266849
508.437356,6513.812290,8882.471304,-306.438199
508.437677,7105.977043,9770.718434,-1685.410096
508.437997,6661.853478,8882.471304,-1532.190996
508.438318,6143.709319,8142.265362,-842.705048
508.438638,4737.318029,7105.977043,76.609550
508.438958,4293.194464,6217.729913,689.485948
508.439279,5773.606348,7550.100608,229.828649
508.439599,5625.565159,8068.244768,-1149.143247
508.439920,4737.318029,7846.182985,-1455.581446
508.440240,5033.400406,7328.038826,-459.657299
508.440561,5255.462188,7402.059420,919.314598
508.440881,4885.359217,7476.080014,1838.629195
508.441201,5995.668130,7994.224174,842.705048
508.441522,6439.791695,9030.512492,-1455.581446
508.441842,5921.647536,10066.800811,-1991.848295
508.442163,5329.482782,9844.739029,-1072.533697
508.442483,5181.441594,8734.430116,229.828649
508.442804,5107.421000,7328.038826,842.705048
508.443124,4885.359217,7550.100608,459.657299
508.443444,5181.441594,8364.327145,-1685.410096
508.443765,3997.112087,8734.430116,-1991.848295
508.444085,4293.194464,8956.491898,-1455.581446
508.444406,4885.359217,8586.388927,766.095498
508.444726,4293.194464,6883.915261,1532.190996
508.445047,4145.153275,7179.997637,1149.143247
508.445367,5477.523971,9770.718434,0.000000
508.445687,3775.050304,10807.006753,-1302.362347
508.446008,3478.967927,10066.800811,-1532.190996
508.446328,4737.318029,8586.388927,-383.047749
508.446649,4367.215058,7328.038826,1149.143247
508.446969,4145.153275,7328.038826,2451.505594
508.447290,4663.297435,7772.162391,306.438199
508.447610,4071.132681,8660.409521,-1915.238745
508.447930,5033.400406,8216.285956,-1455.581446
508.448251,5699.585753,6513.812290,-612.876398
508.448571,5773.606348,5847.626942,689.485948
508.448892,5773.606348,7254.018232,2068.457845
508.449212,5551.544565,8808.450710,766.095498
508.449532,4959.379811,9252.574275,-1915.238745
508.449853,6513.812290,8660.409521,-1915.238745
508.450173,6439.791695,7624.121203,-919.314598
508.450494,6365.771101,6883.915261,612.876398
508.450814,5921.647536,6439.791695,1685.410096
508.451135,4959.379811,6661.853478,229.828649
508.451455,5403.503377,6809.894666,-689.485948
508.451775,6143.709319,7846.182985,-842.705048
508.452096,5477.523971,7328.038826,-919.314598
508.452416,5477.523971,7105.977043,-76.609550
508.452737,4811.338623,6957.935855,1072.533697
508.453057,4737.318029,7031.956449,1072.533697
508.453378,5477.523971,7328.038826,229.828649
508.453698,5995.668130,8808.450710,-919.314598
508.454018,5329.482782,10214.842000,-1302.362347
508.454339,4811.338623,9474.636058,-306.438199
508.454659,4737.318029,9326.594869,229.828649
508.454980,4441.235652,8512.368333,459.657299
508.455300,5477.523971,8660.409521,1072.533697
508.455621,5033.400406,8438.347739,689.485948
508.455941,4293.194464,7624.121203,-306.438199
508.456261,3923.091493,6587.832884,0.000000
508.456582,3923.091493,6069.688724,1149.143247
508.456902,3997.112087,6513.812290,2068.457845
508.457223,5403.503377,8216.285956,1838.629195
508.457543,5773.606348,9770.718434,-766.095498
508.457864,5625.565159,9918.759623,-2987.772442
508.458184,6069.688724,8512.368333,-2451.505594
508.458504,5921.647536,7402.059420,459.657299
508.458825,5107.421000,6809.894666,1685.410096
508.459145,5329.482782,6957.935855,153.219100
508.459466,5625.565159,7105.977043,-2451.505594
508.459786,5995.668130,8216.285956,-3600.648841
508.460106,5995.668130,8882.471304,-1991.848295
508.460427,5329.482782,7772.162391,-383.047749
508.460747,4737.318029,6365.771101,689.485948
508.461068,4811.338623,6513.812290,612.876398
508.461388,6143.709319,7476.080014,-306.438199
508.461709,5107.421000,8956.491898,-1608.800546
508.462029,4663.297435,9178.553681,-2221.676944
508.462349,5403.503377,8956.491898,-766.095498
508.462670,4959.379811,7994.224174,1302.362347
508.462990,4663.297435,7328.038826,1302.362347
508.463311,5625.565159,8216.285956,0.000000
508.463631,4071.132681,8956.491898,-1532.190996
508.463952,3478.967927,9104.533087,-2068.457845
508.464272,4663.297435,7846.182985,-306.438199
508.464592,4589.276840,7698.141797,1225.752797
508.464913,4145.153275,7772.162391,2145.067394
508.465233,4589.276840,9030.512492,919.314598
508.465554,4589.276840,10807.006753,-1378.971896
508.465874,4441.235652,11103.089130,-1608.800546
508.466195,4663.297435,9696.697840,-536.266849
508.466515,5181.441594,7624.121203,1072.533697
508.466835,4441.235652,6587.832884,1532.190996
508.467156,4071.132681,8290.306550,1302.362347
508.467476,3997.112087,9622.677246,-1378.971896
508.467797,3552.988522,9622.677246,-2604.724693
508.468117,4589.276840,8734.430116,-1378.971896
508.468438,5773.606348,8068.244768,689.485948
508.468758,4515.256246,6957.935855,1915.238745
508.469078,4367.215058,7031.956449,1455.581446
508.469399,4737.318029,8956.491898,-766.095498
508.469719,4737.318029,10288.862594,-1762.019645
508.470040,5255.462188,9326.594869,-1072.533697
508.470360,5329.482782,7402.059420,0.000000
508.470680,5921.647536,6883.915261,919.314598
508.471001,5773.606348,6883.915261,1991.848295
508.471321,5033.400406,6439.791695,0.000000
508.471642,4441.235652,5921.647536,-2451.505594
508.471962,5847.626942,7179.997637,-1378.971896
508.472283,5995.668130,7328.038826,-229.828649
508.472603,5107.421000,6513.812290,229.828649
508.472923,6217.729913,6365.771101,383.047749
508.473244,5847.626942,7772.162391,-459.657299
508.473564,4959.379811,8734.430116,-1608.800546
508.473885,4959.379811,8216.285956,-1532.190996
508.474205,5625.565159,7994.224174,-995.924147
508.474526,5107.421000,8660.409521,306.438199
508.474846,4367.215058,8660.409521,766.095498
508.475166,3108.864956,8364.327145,-1532.190996
508.475487,3701.029710,8660.409521,-1378.971896
508.475807,3997.112087,9252.574275,383.047749
508.476128,3478.967927,7994.224174,842.705048
508.476448,2812.782580,6439.791695,1225.752797
508.476769,2516.700203,7179.997637,995.924147
508.477089,2516.700203,8660.409521,1455.581446
508.477409,3923.091493,9844.739029,229.828649
508.477730,5625.565159,9770.718434,-1149.143247
508.478050,6069.688724,9696.697840,-2451.505594
508.478371,5181.441594,9104.533087,-536.266849
508.478691,4367.215058,9104.533087,306.438199
508.479012,3034.844362,8734.430116,-153.219100
508.479332,4367.215058,9844.739029,-689.485948
508.479652,5107.421000,9622.677246,-766.095498
508.479973,4145.153275,8142.265362,-1072.533697
508.480293,4959.379811,8068.244768,229.828649
508.480614,4441.235652,8512.368333,1378.971896
508.480934,3404.947333,8290.306550,536.266849
508.481254,4737.318029,7772.162391,-536.266849
508.481575,5699.585753,8734.430116,-1302.362347
508.481895,5625.565159,9474.636058,-1072.533697
508.482216,5477.523971,9326.594869,0.000000
508.482536,4737.318029,8512.368333,0.000000
508.482857,3923.091493,8142.265362,-383.047749
508.483177,4589.276840,8512.368333,0.000000
508.483497,4959.379811,8586.388927,-689.485948
508.483818,4663.297435,8512.368333,-1532.190996
508.484138,4885.359217,9104.533087,0.000000
508.484459,4293.194464,8512.368333,229.828649
508.484779,3108.864956,7105.977043,229.828649
508.485100,4293.194464,7105.977043,766.095498
508.485420,5921.647536,8734.430116,153.219100
508.485740,5329.482782,9178.553681,76.609550
508.486061,4737.318029,7846.182985,-766.095498
508.486381,4959.379811,6735.874072,0.000000
508.486702,5033.400406,6439.791695,766.095498
508.487022,4737.318029,6957.935855,1378.971896
508.487343,5403.503377,7476.080014,-766.095498
508.487663,5847.626942,8438.347739,-2298.286494
508.487983,5551.544565,8438.347739,-1225.752797
508.488304,5033.400406,7624.121203,153.219100
508.488624,5403.503377,7254.018232,1225.752797
508.488945,5255.462188,7179.997637,1225.752797
508.489265,5995.668130,8512.368333,-842.705048
508.489586,6217.729913,8734.430116,-2528.115143
508.489906,6365.771101,8068.244768,-2528.115143
508.490226,6143.709319,7179.997637,0.000000
508.490547,5329.482782,7105.977043,995.924147
508.490867,4219.173869,6957.935855,842.705048
508.491188,4663.297435,7994.224174,-383.047749
508.491508,5477.523971,8438.347739,-1149.143247
508.491828,5255.462188,9178.553681,-383.047749
508.492149,4885.359217,8586.388927,76.609550
508.492469,4071.132681,7994.224174,459.657299
508.492790,3701.029710,7994.224174,1072.533697
508.493110,4441.235652,8512.368333,689.485948
508.493431,4219.173869,9178.553681,-612.876398
508.493751,4219.173869,9030.512492,-995.924147
508.494071,4589.276840,8882.471304,-612.876398
508.494392,3627.009116,7920.203579,306.438199
508.494712,3478.967927,7254.018232,1378.971896
508.495033,5033.400406,8586.388927,1149.143247
508.495353,4071.132681,9400.615463,-229.828649
508.495674,4145.153275,9844.739029,-1072.533697
508.495994,4885.359217,9696.697840,-919.314598
508.496314,4811.338623,8882.471304,0.000000
508.496635,4515.256246,7698.141797,766.095498
508.496955,3923.091493,7994.224174,919.314598
508.497276,3775.050304,8364.327145,-612.876398
508.497596,4293.194464,9918.759623,-995.924147
508.497917,4293.194464,9918.759623,-1378.971896
508.498237,4145.153275,9400.615463,-995.924147
508.498557,3478.967927,8142.265362,919.314598
508.498878,3330.926739,8216.285956,1991.848295
508.499198,3404.947333,8290.306550,1072.533697
508.499519,3478.967927,7476.080014,0.000000
508.499839,3997.112087,7994.224174,-536.266849
508.500160,4071.132681,8290.306550,-153.219100
508.500480,4367.215058,7550.100608,1378.971896
508.500800,4811.338623,7105.977043,1302.362347
508.501121,5773.606348,7254.018232,306.438199
508.501441,5921.647536,8660.409521,-1225.752797
508.501762,6143.709319,9252.574275,-1991.848295
508.502082,6143.709319,8512.368333,-1455.581446
508.502403,6217.729913,7179.997637,0.000000
508.502723,5773.606348,6365.771101,1608.800546
508.503043,6217.729913,6217.729913,995.924147
508.503364,6069.688724,7402.059420,-383.047749
508.503684,5403.503377,7846.182985,-1915.238745
508.504005,6143.709319,7328.038826,-2068.457845
508.504325,6809.894666,6217.729913,229.828649
508.504646,5699.585753,5773.606348,1302.362347
508.504966,6365.771101,6587.832884,919.314598
508.505287,6365.771101,8216.285956,-459.657299
508.505607,5847.626942,8956.491898,-1302.362347
508.505928,5921.647536,8734.430116,-995.924147
508.506248,5995.668130,7179.997637,0.000000
508.506569,5329.482782,6291.750507,1225.752797
508.506890,5477.523971,6365.771101,1455.581446
508.507210,5403.503377,7698.141797,0.000000
508.507531,5477.523971,9030.512492,-1991.848295
508.507851,5403.503377,8364.327145,-1762.019645
508.508172,5921.647536,7698.141797,-919.314598
508.508492,5403.503377,6809.894666,1532.190996
508.508813,5403.503377,6735.874072,1532.190996
508.509134,6365.771101,7328.038826,689.485948
508.509454,6957.935855,8586.388927,-1532.190996
508.509775,5477.523971,9104.533087,-2145.067394
508.510095,6291.750507,7994.224174,-995.924147
508.510416,6735.874072,7402.059420,842.705048
508.510737,5255.462188,6957.935855,842.705048
508.511057,5107.421000,7105.977043,-229.828649
508.511378,5255.462188,7920.203579,-2145.067394
508.511698,5255.462188,9548.656652,-2068.457845
508.512019,5107.421000,9326.594869,-689.485948
508.512339,5255.462188,7772.162391,689.485948
508.512660,4589.276840,7476.080014,459.657299
508.512981,3997.112087,8512.368333,536.266849
508.513301,4441.235652,9992.780217,-612.876398
508.513622,4441.235652,10732.986159,-2068.457845
508.513942,4219.173869,10140.821405,-1072.533697
508.514263,4663.297435,9030.512492,306.438199
508.514583,3256.906145,7920.203579,1685.410096
508.514904,2368.659014,8142.265362,1915.238745
508.515225,3552.988522,9178.553681,383.047749
508.515545,3552.988522,9474.636058,-612.876398
508.515866,3478.967927,9400.615463,-689.485948
508.516186,4219.173869,8142.265362,306.438199
508.516507,4071.132681,7402.059420,1455.581446
508.516827,3997.112087,7476.080014,2145.067394
508.517148,4293.194464,7846.182985,459.657299
508.517469,4737.318029,8586.388927,-1225.752797
508.517789,5329.482782,8142.265362,-1302.362347
508.518110,6735.874072,7920.203579,-459.657299
508.518430,5699.585753,7105.977043,0.000000
508.518751,5551.544565,6957.935855,0.000000
508.519071,5477.523971,7105.977043,-612.876398
508.519392,5847.626942,7698.141797,-1302.362347
508.519713,6587.832884,7920.203579,-1378.971896
508.520033,6143.709319,7994.224174,0.000000
508.520354,5773.606348,7105.977043,536.266849
508.520674,4959.379811,6439.791695,919.314598
508.520995,5033.400406,7328.038826,459.657299
508.521315,4737.318029,8142.265362,-689.485948
508.521636,5255.462188,8512.368333,-689.485948
508.521957,5255.462188,7994.224174,0.000000
508.522277,5181.441594,7031.956449,1149.143247
508.522598,4441.235652,6217.729913,1532.190996
508.522918,3627.009116,6957.935855,842.705048
508.523239,3997.112087,7402.059420,76.609550
508.523559,4959.379811,8364.327145,0.000000
508.523880,6069.688724,8438.347739,-306.438199
508.524201,6587.832884,7550.100608,153.219100
508.524521,5403.503377,7846.182985,306.438199
508.524842,4959.379811,8142.265362,0.000000
508.525162,5255.462188,8364.327145,-842.705048
508.525483,5995.668130,8290.306550,-919.314598
508.525803,6439.791695,7550.100608,-306.438199
508.526124,5921.647536,7476.080014,-459.657299
508.526445,5551.544565,7994.224174,306.438199
508.526765,4145.153275,8364.327145,306.438199
508.527086,4959.379811,8216.285956,0.000000
508.527406,6735.874072,6809.894666,-536.266849
508.527727,7179.997637,6735.874072,0.000000
508.528047,6439.791695,6365.771101,459.657299
508.528368,5699.585753,6513.812290,306.438199
508.528689,4737.318029,6957.935855,-766.095498
508.529009,5921.647536,7920.203579,-842.705048
508.529330,7328.038826,8882.471304,-1225.752797
508.529650,7476.080014,7920.203579,-1608.800546
508.529971,6587.832884,8364.327145,-1532.190996
508.530291,5625.565159,7846.182985,-383.047749
508.530612,3404.947333,7105.977043,0.000000
508.530933,4441.235652,6439.791695,0.000000
508.531253,5995.668130,7920.203579,-383.047749
508.531574,5699.585753,9474.636058,-1072.533697
508.531894,4737.318029,9548.656652,-1302.362347
508.532215,4589.276840,10066.800811,-76.609550
508.532535,3997.112087,8364.327145,842.705048
508.532856,3108.864956,6661.853478,842.705048
508.533177,4737.318029,7328.038826,612.876398
508.533497,4441.235652,9104.533087,-919.314598
508.533818,3256.906145,10066.800811,-1685.410096
508.534138,4071.132681,9918.759623,-612.876398
508.534459,4737.318029,8808.450710,0.000000
508.534779,4589.276840,7994.224174,1302.362347
508.535100,4737.318029,8216.285956,1302.362347
508.535421,5107.421000,9030.512492,-612.876398
508.535741,4663.297435,8512.368333,-1608.800546
508.536062,5403.503377,7920.203579,-842.705048
508.536382,5847.626942,7772.162391,459.657299
508.536703,5329.482782,7846.182985,995.924147
508.537023,6069.688724,8808.450710,153.219100
508.537344,6069.688724,9178.553681,-1608.800546
508.537665,5625.565159,8882.471304,-1455.581446
508.537985,5995.668130,7772.162391,-306.438199
508.538306,5477.523971,7179.997637,536.266849
508.538626,4367.215058,6809.894666,1532.190996
508.538947,4219.173869,6809.894666,1302.362347
508.539268,5625.565159,7920.203579,0.000000
508.539588,5255.462188,8586.388927,-612.876398
508.539909,4219.173869,8142.265362,-383.047749
508.540229,4441.235652,7105.977043,0.000000
508.540550,4441.235652,6217.729913,1762.019645
508.540870,4219.173869,6439.791695,1915.238745
508.541191,5329.482782,7105.977043,-229.828649
508.541512,6513.812290,8290.306550,-2451.505594
508.541832,5477.523971,8956.491898,-1915.238745
508.542153,6069.688724,8068.244768,-383.047749
508.542473,6291.750507,6735.874072,383.047749
508.542794,5773.606348,6809.894666,1149.143247
508.543114,4811.338623,7624.121203,0.000000
508.543435,5477.523971,8290.306550,-2068.457845
508.543756,5773.606348,7994.224174,-2068.457845
508.544076,5773.606348,7920.203579,-612.876398
508.544397,5773.606348,7254.018232,1685.410096
508.544717,4737.318029,6957.935855,1608.800546
508.545038,4515.256246,6809.894666,612.876398
508.545358,4959.379811,8216.285956,-766.095498
508.545679,4441.235652,9030.512492,-1762.019645
508.546000,4145.153275,8290.306550,-1838.629195
508.546320,5107.421000,7920.203579,229.828649
508.546641,4589.276840,7402.059420,1455.581446
508.546961,3997.112087,7550.100608,995.924147
508.547282,4441.235652,8290.306550,-689.485948
508.547602,4293.194464,9696.697840,-2451.505594
508.547923,4293.194464,9548.656652,-1838.629195
508.548244,4589.276840,8438.347739,-229.828649
508.548564,5181.441594,7402.059420,0.000000
508.548885,5181.441594,7550.100608,459.657299
508.549205,5107.421000,9770.718434,-153.219100
508.549526,4885.359217,10436.903782,-2145.067394
508.549846,4589.276840,9770.718434,-1991.848295
508.550167,4737.318029,8290.306550,-536.266849
508.550488,4663.297435,7550.100608,1455.581446
508.550808,3552.988522,7254.018232,2145.067394
508.551129,4219.173869,8216.285956,306.438199
508.551449,4515.256246,9844.739029,-1608.800546
508.551770,4219.173869,10066.800811,-1838.629195
508.552090,5181.441594,9844.739029,-306.438199
508.552411,4885.359217,8290.306550,842.705048
508.552732,3775.050304,7105.977043,1455.581446
508.553052,4071.132681,7772.162391,1072.533697
508.553373,4515.256246,9030.512492,-1149.143247
508.553693,4145.153275,9474.636058,-2221.676944
508.554014,5181.441594,9474.636058,-1532.190996
508.554334,5921.647536,8364.327145,76.609550
508.554655,4737.318029,8216.285956,536.266849
508.554976,5403.503377,7254.018232,842.705048
508.555296,5329.482782,8068.244768,76.609550
508.555617,4959.379811,7994.224174,-1149.143247
508.555937,5551.544565,7846.182985,-612.876398
508.556258,5551.544565,7402.059420,-536.266849
508.556578,4737.318029,6809.894666,153.219100
508.556899,5551.544565,7328.038826,995.924147
508.557220,6513.812290,7846.182985,0.000000
508.557540,6143.709319,7550.100608,-2068.457845
508.557861,6217.729913,6735.874072,-2068.457845
508.558181,5847.626942,7476.080014,-1072.533697
508.558502,4737.318029,6809.894666,536.266849
508.558822,5033.400406,6735.874072,1302.362347
508.559143,5773.606348,7105.977043,76.609550
508.559464,6291.750507,7994.224174,-612.876398
508.559784,5477.523971,9326.594869,-306.438199
508.560105,4737.318029,8808.450710,-459.657299
508.560425,4071.132681,7179.997637,-229.828649
508.560746,4515.256246,6217.729913,1225.752797
508.561066,4663.297435,6957.935855,1302.362347
508.561387,4663.297435,9178.553681,-153.219100
508.561708,3552.988522,10066.800811,-995.924147
508.562028,3552.988522,9844.739029,-1378.971896
508.562349,3849.070898,8808.450710,306.438199
508.562669,3182.885551,7624.121203,2221.676944
508.562990,3182.885551,7846.182985,1225.752797
508.563310,3552.988522,9252.574275,-306.438199
508.563631,3256.906145,9992.780217,-1455.581446
508.563952,3775.050304,9178.553681,-536.266849
508.564272,4589.276840,8660.409521,1302.362347
508.564593,3552.988522,7698.141797,1608.800546
508.564913,3182.885551,7550.100608,689.485948
508.565234,4293.194464,9030.512492,-229.828649
508.565554,4811.338623,9474.636058,-1302.362347
508.565875,5329.482782,8808.450710,-1225.752797
508.566196,7105.977043,8290.306550,-459.657299
508.566516,6143.709319,8290.306550,-306.438199
508.566837,4663.297435,7846.182985,306.438199
508.567157,5551.544565,7550.100608,0.000000
508.567478,6069.688724,8068.244768,-919.314598
508.567798,5329.482782,7772.162391,-842.705048
508.568119,6365.771101,7550.100608,-306.438199
508.568440,6069.688724,7476.080014,-306.438199
508.568760,5033.400406,7179.997637,-383.047749
508.569081,5033.400406,7328.038826,0.000000
508.569401,5625.565159,7920.203579,0.000000
508.569722,5033.400406,7772.162391,153.219100
508.570043,5625.565159,7772.162391,229.828649
508.570363,4811.338623,7920.203579,-766.095498
508.570684,3034.844362,7105.977043,-1532.190996
508.571004,3775.050304,7698.141797,-76.609550
508.571325,4959.379811,8882.471304,153.219100
508.571645,4737.318029,9030.512492,-459.657299
508.571966,4145.153275,8808.450710,-536.266849
508.572287,4071.132681,9104.533087,-995.924147
508.572607,3182.885551,8142.265362,0.000000
508.572928,3256.906145,7698.141797,229.828649
508.573248,5625.565159,8660.409521,-229.828649
508.573569,6143.709319,9844.739029,-1149.143247
508.573889,4663.297435,10214.842000,-842.705048
508.574210,4811.338623,8734.430116,0.000000
508.574531,4737.318029,7624.121203,383.047749
508.574851,4293.194464,6809.894666,1225.752797
508.575172,5181.441594,6809.894666,689.485948
508.575492,5995.668130,7846.182985,-995.924147
508.575813,4737.318029,8882.471304,-1378.971896
508.576133,4293.194464,9400.615463,-306.438199
508.576454,5625.565159,8586.388927,229.828649
508.576775,5551.544565,7476.080014,1225.752797
508.577095,4737.318029,7772.162391,919.314598
508.577416,5773.606348,8808.450710,-1149.143247
508.577736,5255.462188,9400.615463,-1915.238745
508.578057,4145.153275,8882.471304,-689.485948
508.578377,5181.441594,7846.182985,536.266849
508.578698,5181.441594,6883.915261,1225.752797
508.579019,4811.338623,7105.977043,153.219100
508.579339,4885.359217,8142.265362,-919.314598
508.579660,4515.256246,8956.491898,-995.924147
508.579980,4441.235652,8808.450710,0.000000
508.580301,5107.421000,7624.121203,1455.581446
508.580621,4885.359217,6735.874072,995.924147
508.580942,5255.462188,6809.894666,306.438199
508.581263,5255.462188,8956.491898,-383.047749
508.581583,4441.235652,9696.697840,-1302.362347
508.581904,4737.318029,8512.368333,-766.095498
508.582224,6735.874072,7105.977043,459.657299
508.582545,5921.647536,6735.874072,919.314598
508.582865,4293.194464,7105.977043,383.047749
508.583186,4441.235652,8142.265362,-919.314598
508.583507,4885.359217,9104.533087,-1608.800546
508.583827,5107.421000,8956.491898,0.000000
508.584148,6291.750507,8068.244768,1302.362347
508.584468,5847.626942,7476.080014,1455.581446
508.584789,3997.112087,7328.038826,612.876398
508.585109,4367.215058,8142.265362,-1225.752797
508.585430,4885.359217,8216.285956,-1378.971896
508.585751,5107.421000,7994.224174,-919.314598
508.586071,5995.668130,8512.368333,612.876398
508.586392,5329.482782,8956.491898,689.485948
508.586712,3849.070898,7772.162391,153.219100
508.587033,4219.173869,7772.162391,0.000000
508.587353,5403.503377,7624.121203,-459.657299
508.587674,5107.421000,7624.121203,-383.047749
508.587995,5181.441594,7846.182985,0.000000
508.588315,5625.565159,7994.224174,0.000000
508.588636,4589.276840,7550.100608,153.219100
508.588956,4811.338623,7328.038826,842.705048
508.589277,5329.482782,7846.182985,0.000000
508.589597,5699.585753,8216.285956,-1532.190996
508.589918,5921.647536,8364.327145,-689.485948
508.590239,5477.523971,8142.265362,0.000000
508.590559,5625.565159,7402.059420,0.000000
508.590880,5551.544565,7402.059420,76.609550
508.591200,5699.585753,7698.141797,-919.314598
508.591521,5255.462188,8438.347739,-919.314598
508.591841,4885.359217,9474.636058,76.609550
508.592162,4737.318029,9326.594869,229.828649
508.592483,4589.276840,7624.121203,459.657299
508.592803,5255.462188,6883.915261,306.438199
508.593124,4737.318029,7624.121203,0.000000
508.593444,4663.297435,8586.388927,-1225.752797
508.593765,4589.276840,8956.491898,-842.705048
508.594085,4441.235652,8512.368333,0.000000
508.594406,4515.256246,7846.182985,995.924147
508.594727,4441.235652,8808.450710,1302.362347
508.595047,3997.112087,8216.285956,-306.438199
508.595368,5033.400406,8808.450710,-1455.581446
508.595688,5255.462188,8882.471304,-612.876398
508.596009,4737.318029,7698.141797,306.438199
508.596329,5699.585753,7031.956449,766.095498
508.596650,5255.462188,7476.080014,153.219100
508.596971,4145.153275,8290.306550,153.219100
508.597291,4811.338623,9030.512492,-536.266849
508.597612,5551.544565,8586.388927,-1225.752797
508.597932,6513.812290,7031.956449,153.219100
508.598253,6809.894666,6143.709319,995.924147
508.598573,5921.647536,6809.894666,612.876398
508.598894,5033.400406,6661.853478,-612.876398
508.599215,5995.668130,7328.038826,-1608.800546
508.599535,7031.956449,8364.327145,-1225.752797
508.599856,7179.997637,7698.141797,-383.047749
508.600176,6513.812290,7402.059420,1072.533697
508.600497,5625.565159,7624.121203,0.000000
508.600818,3997.112087,7328.038826,-995.924147
508.601138,5255.462188,7698.141797,-1072.533697
508.601459,6143.709319,8068.244768,-383.047749
508.601779,6513.812290,8882.471304,306.438199
508.602100,5477.523971,8438.347739,306.438199
508.602420,3552.988522,7328.038826,-76.609550
508.602741,3849.070898,6883.915261,306.438199
508.603062,4589.276840,7624.121203,1072.533697
508.603382,4959.379811,8142.265362,76.609550
508.603703,6365.771101,8068.244768,-612.876398
508.604023,5625.565159,8142.265362,-229.828649
508.604344,4811.338623,7476.080014,459.657299
508.604664,4959.379811,7624.121203,919.314598
508.604985,5033.400406,7550.100608,153.219100
508.605305,5847.626942,8290.306550,-1225.752797
508.605626,6809.894666,9104.533087,-1455.581446
508.605946,6365.771101,8734.430116,-612.876398
508.606267,5403.503377,8290.306550,0.000000
508.606587,4589.276840,8290.306550,1455.581446
508.606908,4737.318029,7550.100608,459.657299
508.607228,5551.544565,7772.162391,-306.438199
508.607549,5033.400406,7772.162391,0.000000
508.607869,4515.256246,8290.306550,-689.485948
508.608190,4071.132681,7920.203579,153.219100
508.608510,3923.091493,7624.121203,459.657299
508.608831,4293.194464,7105.977043,229.828649
508.609151,5255.462188,8290.306550,306.438199
508.609472,5107.421000,9696.697840,-1072.533697
508.609792,4145.153275,9696.697840,-995.924147
508.610113,3775.050304,8808.450710,-612.876398
508.610433,4219.173869,8660.409521,459.657299
508.610754,3849.070898,7772.162391,306.438199
508.611074,3701.029710,7105.977043,-612.876398
508.611395,4663.297435,8364.327145,-1149.143247
508.611715,3997.112087,9326.594869,-1072.533697
508.612036,3997.112087,8512.368333,-306.438199
508.612356,5773.606348,7994.224174,229.828649
508.612677,5329.482782,7846.182985,383.047749
508.612998,5181.441594,8216.285956,306.438199
508.613318,5625.565159,8512.368333,0.000000
508.613639,5921.647536,9104.533087,-689.485948
508.613959,5625.565159,8290.306550,306.438199
508.614280,5699.585753,7105.977043,995.924147
508.614600,5625.565159,6513.812290,689.485948
508.614921,4663.297435,6809.894666,0.000000
508.615241,5255.462188,7550.100608,-612.876398
508.615562,5551.544565,7698.141797,-2298.286494
508.615882,6069.688724,7846.182985,-995.924147
508.616203,6513.812290,7624.121203,766.095498
508.616523,5551.544565,6217.729913,842.705048
508.616844,4811.338623,6661.853478,842.705048
508.617164,5847.626942,8660.409521,-153.219100
508.617485,5403.503377,9474.636058,-1838.629195
508.617805,6883.915261,8512.368333,-2068.457845
508.618126,7624.121203,7476.080014,-306.438199
508.618446,5921.647536,6735.874072,229.828649
508.618767,5255.462188,5773.606348,919.314598
508.619087,5033.400406,6735.874072,0.000000
508.619408,5329.482782,7624.121203,-919.314598
508.619728,5921.647536,8438.347739,-842.705048
508.620049,6143.709319,7994.224174,-383.047749
508.620369,5477.523971,7550.100608,-536.266849
508.620690,5107.421000,7994.224174,766.095498
508.621010,4441.235652,7846.182985,995.924147
508.621331,4737.318029,7994.224174,-459.657299
508.621651,4589.276840,8290.306550,-1072.533697
508.621972,4515.256246,8734.430116,-536.266849
508.622292,3775.050304,9548.656652,383.047749
508.622613,3552.988522,9030.512492,306.438199
508.622933,4737.318029,8660.409521,-459.657299
508.623254,5329.482782,8364.327145,-842.705048
508.623574,4145.153275,8142.265362,-612.876398
508.623895,4071.132681,8142.265362,0.000000
508.624215,3627.009116,8290.306550,689.485948
508.624536,3404.947333,7994.224174,766.095498
508.624856,4441.235652,8216.285956,919.314598
508.625177,5033.400406,9104.533087,-229.828649
508.625498,5181.441594,9844.739029,-1225.752797
508.625818,4293.194464,9992.780217,-1608.800546
508.626139,4219.173869,8438.347739,-612.876398
508.626459,4219.173869,7550.100608,1072.533697
508.626780,3923.091493,7994.224174,1685.410096
508.627100,4441.235652,8512.368333,306.438199
508.627421,4589.276840,8882.471304,-1455.581446
508.627741,4737.318029,9844.739029,-1455.581446
508.628062,4737.318029,8734.430116,-383.047749
508.628382,4885.359217,7328.038826,689.485948
508.628703,4959.379811,6661.853478,1302.362347
508.629023,5403.503377,7254.018232,919.314598
508.629344,5181.441594,8808.450710,-76.609550
508.629664,5403.503377,8882.471304,-1378.971896
508.629985,4959.379811,8364.327145,-1532.190996
508.630305,5107.421000,7328.038826,0.000000
508.630626,5625.565159,7624.121203,1302.362347
508.630946,4811.338623,7105.977043,689.485948
508.631267,4737.318029,7402.059420,-1149.143247
508.631587,5107.421000,7624.121203,-1532.190996
508.631908,4515.256246,8142.265362,-766.095498
508.632228,5329.482782,7846.182985,842.705048
508.632549,5403.503377,7772.162391,1225.752797
508.632869,4959.379811,7920.203579,536.266849
508.633190,5181.441594,8512.368333,-306.438199
508.633510,4885.359217,8438.347739,-1225.752797
508.633831,4515.256246,8068.244768,-612.876398
508.634151,5255.462188,8142.265362,153.219100
508.634472,4959.379811,7031.956449,1149.143247
508.634792,4811.338623,6365.771101,383.047749
508.635113,5033.400406,6439.791695,229.828649
508.635433,5699.585753,7846.182985,-919.314598
508.635754,5477.523971,7772.162391,-1455.581446
508.636074,5477.523971,7846.182985,-919.314598
508.636395,6217.729913,7550.100608,0.000000
508.636715,5773.606348,7402.059420,459.657299
508.637036,6069.688724,7772.162391,76.609550
508.637356,5551.544565,9474.636058,-1532.190996
508.637677,4441.235652,9548.656652,-2221.676944
508.637997,4737.318029,8808.450710,-1302.362347
508.638318,5551.544565,7550.100608,459.657299
508.638639,4293.194464,7476.080014,1149.143247
508.638959,3849.070898,7994.224174,766.095498
508.639280,3627.009116,8586.388927,-1378.971896
508.639600,3627.009116,8734.430116,-2374.896044
508.639921,5033.400406,8586.388927,153.219100
508.640241,5181.441594,7698.141797,919.314598
508.640562,3849.070898,7254.018232,612.876398
508.640882,4515.256246,8808.450710,689.485948
508.641203,4071.132681,10658.965565,-766.095498
508.641523,4367.215058,10288.862594,-1838.629195
508.641844,5773.606348,9400.615463,-766.095498
508.642164,5107.421000,8882.471304,-459.657299
508.642485,3997.112087,8216.285956,0.000000
508.642805,3997.112087,7846.182985,306.438199
508.643126,4219.173869,8364.327145,-536.266849
508.643446,4737.318029,8956.491898,-919.314598
508.643767,5181.441594,9474.636058,-76.609550
508.644087,5255.462188,8808.450710,-842.705048
508.644408,4219.173869,8956.491898,536.266849
508.644728,4589.276840,7624.121203,995.924147
508.645049,5107.421000,7698.141797,536.266849
508.645369,5403.503377,8882.471304,-229.828649
508.645690,4515.256246,9696.697840,-536.266849
508.646010,4219.173869,9326.594869,-919.314598
508.646331,4367.215058,8068.244768,0.000000
508.646651,4145.153275,7402.059420,306.438199
508.646972,4441.235652,6661.853478,612.876398
508.647292,4663.297435,7105.977043,-229.828649
508.647613,4441.235652,8660.409521,-995.924147
508.647933,4811.338623,8956.491898,-842.705048
508.648254,5033.400406,8438.347739,0.000000
508.648574,5033.400406,7550.100608,612.876398
508.648895,4811.338623,7328.038826,919.314598
508.649215,5255.462188,7920.203579,-153.219100
508.649536,5625.565159,8290.306550,-612.876398
508.649856,5033.400406,8068.244768,-1302.362347
508.650177,5329.482782,7920.203579,-306.438199
508.650497,4737.318029,7254.018232,536.266849
508.650818,4885.359217,7254.018232,766.095498
508.651139,5921.647536,6809.894666,536.266849
508.651459,5477.523971,6809.894666,-383.047749
508.651780,4811.338623,7179.997637,-612.876398
508.652100,5699.585753,8068.244768,-383.047749
508.652421,4737.318029,7550.100608,76.609550
508.652741,5625.565159,7402.059420,536.266849
508.653062,6957.935855,7179.997637,459.657299
508.653382,5699.585753,8290.306550,-383.047749
508.653703,4737.318029,9030.512492,-842.705048
508.654023,4737.318029,9770.718434,-229.828649
508.654344,4589.276840,9030.512492,0.000000
508.654664,4589.276840,7624.121203,536.266849
508.654985,4663.297435,7328.038826,0.000000
508.655305,4145.153275,7920.203579,-1838.629195
508.655626,3256.906145,9474.636058,-995.924147
508.655946,3775.050304,9548.656652,76.609550
508.656267,4737.318029,8512.368333,536.266849
508.656587,4293.194464,7476.080014,842.705048
508.656908,3701.029710,8364.327145,229.828649
508.657228,4219.173869,9474.636058,229.828649
508.657549,3997.112087,9844.739029,-842.705048
508.657869,4737.318029,9622.677246,-689.485948
508.658190,5329.482782,8068.244768,-229.828649
508.658510,5107.421000,7328.038826,-306.438199
508.658831,4219.173869,7402.059420,536.266849
508.659151,3627.009116,7476.080014,-459.657299
508.659472,5625.565159,7920.203579,-1532.190996
508.659792,5921.647536,7920.203579,-1149.143247
508.660113,6513.812290,7476.080014,0.000000
508.660433,6587.832884,7846.182985,0.000000
508.660754,5181.441594,7254.018232,-306.438199
508.661074,5403.503377,8290.306550,-1378.971896
508.661395,5255.462188,8660.409521,-2068.457845
508.661715,4959.379811,8586.388927,-1225.752797
508.662036,6513.812290,8290.306550,459.657299
508.662356,6217.729913,7698.141797,842.705048
508.662677,4219.173869,7846.182985,0.000000
508.662997,4663.297435,8142.265362,-1302.362347
508.663318,4737.318029,8512.368333,-2068.457845
508.663638,4737.318029,8512.368333,-383.047749
508.663959,5551.544565,7402.059420,1072.533697
508.664280,5477.523971,7476.080014,1225.752797
508.664600,4071.132681,7920.203579,459.657299
508.664921,3849.070898,7994.224174,229.828649
508.665241,4145.153275,8216.285956,-1225.752797
508.665562,4811.338623,8364.327145,-995.924147
508.665882,5477.523971,9474.636058,766.095498
508.666203,5847.626942,10066.800811,459.657299
508.666523,4293.194464,8808.450710,-306.438199
508.666844,4663.297435,7772.162391,0.000000
508.667164,5033.400406,7846.182985,-306.438199
508.667485,4811.338623,7476.080014,-383.047749
508.667805,4959.379811,8216.285956,229.828649
508.668126,5551.544565,7772.162391,0.000000
508.668446,5773.606348,7031.956449,459.657299
508.668767,6439.791695,7105.977043,766.095498
508.669087,5477.523971,7254.018232,-153.219100
508.669408,5181.441594,7994.224174,-1991.848295
508.669728,5773.606348,8586.388927,-995.924147
508.670049,5773.606348,7328.038826,153.219100
508.670369,5847.626942,6291.750507,1532.190996
508.670690,6069.688724,6069.688724,383.047749
508.671010,5477.523971,7476.080014,-1532.190996
508.671331,4959.379811,8512.368333,-2145.067394
508.671651,5477.523971,8364.327145,-1762.019645
508.671972,5995.668130,7254.018232,-459.657299
508.672292,5921.647536,6513.812290,842.705048
508.672613,4737.318029,6735.874072,1225.752797
508.672933,3923.091493,7698.141797,0.000000
508.673254,3997.112087,8734.430116,-1532.190996
508.673574,5255.462188,9178.553681,-1302.362347
508.673895,5699.585753,8216.285956,-229.828649
508.674215,5255.462188,8216.285956,1149.143247
508.674536,3997.112087,8586.388927,1762.019645
508.674856,3108.864956,8882.471304,612.876398
508.675177,3923.091493,8660.409521,-536.266849
508.675497,4737.318029,8290.306550,-536.266849
508.675818,4441.235652,7920.203579,153.219100
508.676138,4441.235652,8290.306550,1225.752797
508.676459,4071.132681,8512.368333,766.095498
508.676779,3701.029710,7846.182985,612.876398
508.677100,5107.421000,7772.162391,-306.438199
508.677421,5625.565159,9400.615463,-1378.971896
508.677741,4737.318029,8882.471304,-1378.971896
508.678062,5477.523971,8808.450710,0.000000
508.678382,5773.606348,8586.388927,306.438199
508.678703,4885.359217,7994.224174,0.000000
508.679023,4737.318029,7772.162391,-842.705048
508.679344,5255.462188,8068.244768,-2298.286494
508.679664,4737.318029,8438.347739,-1915.238745
508.679985,5181.441594,7994.224174,0.000000
508.680305,5625.565159,7328.038826,612.876398
508.680626,4663.297435,6735.874072,383.047749
508.680946,4515.256246,7105.977043,459.657299
508.681267,4737.318029,8142.265362,-612.876398
508.681587,4959.379811,9030.512492,-1302.362347
508.681908,5255.462188,9178.553681,-1072.533697
508.682228,5995.668130,8216.285956,0.000000
508.682549,5107.421000,7550.100608,0.000000
508.682869,4811.338623,8216.285956,306.438199
508.683190,5181.441594,8290.306550,0.000000
508.683510,4959.379811,8438.347739,-1532.190996
508.683831,5477.523971,7772.162391,-919.314598
508.684151,4959.379811,7328.038826,536.266849
508.684472,5403.503377,6957.935855,1072.533697
508.684792,5625.565159,7328.038826,1838.629195
508.685113,5625.565159,8512.368333,689.485948
508.685433,5921.647536,8808.450710,-1762.019645
508.685754,5847.626942,8290.306550,-1532.190996
508.686074,5921.647536,7328.038826,0.000000
508.686395,6365.771101,7031.956449,919.314598
508.686715,5995.668130,6513.812290,383.047749
508.687036,5551.544565,6957.935855,-919.314598
508.687356,6513.812290,7920.203579,-1838.629195
508.687677,5847.626942,8142.265362,-1225.752797
508.687997,6587.832884,7846.182985,-306.438199
508.688318,6957.935855,6883.915261,1378.971896
508.688638,5403.503377,6143.709319,689.485948
508.688959,5477.523971,6291.750507,0.000000
508.689279,6661.853478,8216.285956,-995.924147
508.689600,6217.729913,9252.574275,-2145.067394
508.689921,5625.565159,8364.327145,-1608.800546
508.690241,7179.997637,7846.182985,-306.438199
508.690562,5329.482782,7698.141797,612.876398
508.690882,3775.050304,7402.059420,76.609550
508.691203,4737.318029,7994.224174,-383.047749
508.691523,4145.153275,8364.327145,-1225.752797
508.691844,3775.050304,8734.430116,0.000000
508.692164,4663.297435,8882.471304,766.095498
508.692485,4441.235652,8734.430116,76.609550
508.692805,3330.926739,8438.347739,689.485948
508.693126,3552.988522,8512.368333,1378.971896
508.693446,4071.132681,8882.471304,-229.828649
508.693767,3701.029710,8586.388927,-383.047749
508.694087,3849.070898,8734.430116,-383.047749
508.694408,4367.215058,9104.533087,76.609550
508.694728,3108.864956,8956.491898,459.657299
508.695049,4367.215058,8660.409521,-153.219100
508.695369,5033.400406,8290.306550,-1302.362347
508.695690,4515.256246,9104.533087,-1072.533697
508.696010,4515.256246,9030.512492,612.876398
508.696331,4441.235652,8882.471304,153.219100
508.696651,3256.906145,7994.224174,0.000000
508.696972,4367.215058,7920.203579,306.438199
508.697292,5773.606348,7772.162391,0.000000
508.697613,5477.523971,8882.471304,0.000000
508.697933,4663.297435,8808.450710,-153.219100
508.698254,4737.318029,8068.244768,-1149.143247
508.698574,4589.276840,7698.141797,-383.047749
508.698895,4589.276840,7105.977043,306.438199
508.699215,6365.771101,7105.977043,76.609550
508.699536,6439.791695,7846.182985,-995.924147
508.699856,5255.462188,8142.265362,-1072.533697
508.700177,5625.565159,7846.182985,-306.438199
508.700497,5551.544565,6735.874072,0.000000
508.700818,5773.606348,6143.709319,76.609550
508.701138,6513.812290,6217.729913,0.000000
508.701459,7772.162391,8290.306550,-1149.143247
508.701779,6217.729913,7624.121203,-1532.190996
508.702100,5921.647536,6809.894666,-1149.143247
508.702420,6957.935855,7846.182985,383.047749
508.702741,6143.709319,7179.997637,536.266849
508.703062,5181.441594,6439.791695,-536.266849
508.703382,7698.141797,7105.977043,-536.266849
508.703703,5847.626942,7328.038826,-1149.143247
508.704023,5329.482782,7179.997637,-612.876398
508.704344,5921.647536,7179.997637,0.000000
508.704664,4663.297435,7476.080014,0.000000
508.704985,4959.379811,8660.409521,306.438199
508.705305,6291.750507,9474.636058,0.000000
508.705626,5107.421000,9474.636058,-1302.362347
508.705946,4145.153275,9622.677246,-842.705048
508.706267,3701.029710,9178.553681,919.314598
508.706587,3552.988522,8512.368333,689.485948
508.706908,3627.009116,8438.347739,1072.533697
508.707228,3923.091493,8734.430116,-229.828649
508.707549,3108.864956,9474.636058,-1608.800546
508.707869,3330.926739,9548.656652,459.657299
508.708190,4737.318029,9104.533087,1608.800546
508.708511,4885.359217,7179.997637,1532.190996
508.708831,5181.441594,6439.791695,1302.362347
508.709152,5625.565159,8438.347739,0.000000
508.709472,4663.297435,9918.759623,-1378.971896
508.709793,4589.276840,9696.697840,-1915.238745
508.710113,6587.832884,8882.471304,0.000000
508.710434,6661.853478,7476.080014,842.705048
508.710755,5773.606348,7105.977043,919.314598
508.711075,5329.482782,7698.141797,-459.657299
508.711396,4145.153275,8068.244768,-2451.505594
508.711716,4293.194464,7772.162391,-1838.629195
508.712037,5625.565159,6883.915261,229.828649
508.712357,6217.729913,6883.915261,612.876398
508.712678,5181.441594,7105.977043,229.828649
508.712998,3849.070898,9104.533087,-842.705048
508.713319,4145.153275,9474.636058,-1838.629195
508.713640,3923.091493,8808.450710,-1225.752797
508.713960,5107.421000,8068.244768,842.705048
508.714281,4959.379811,7920.203579,1378.971896
508.714601,3552.988522,7550.100608,1149.143247
508.714922,2886.803174,7772.162391,0.000000
508.715242,4145.153275,8512.368333,-766.095498
508.715563,4737.318029,7920.203579,-689.485948
508.715884,4441.235652,7698.141797,-153.219100
508.716204,4589.276840,7328.038826,536.266849
508.716525,4663.297435,8364.327145,1072.533697
508.716845,3627.009116,8438.347739,842.705048
508.717166,4737.318029,8142.265362,-536.266849
508.717486,6365.771101,8734.430116,-1149.143247
508.717807,4885.359217,9252.574275,-995.924147
508.718127,4663.297435,9030.512492,0.000000
508.718448,4959.379811,8216.285956,1225.752797
508.718769,4441.235652,6957.935855,1072.533697
508.719089,5773.606348,7105.977043,536.266849
508.719410,5403.503377,7550.100608,-1838.629195
508.719730,4589.276840,7920.203579,-2834.553343
508.720051,5329.482782,8512.368333,-689.485948
508.720371,5921.647536,8512.368333,612.876398
508.720692,5403.503377,7550.100608,919.314598
508.721013,5255.462188,7846.182985,-153.219100
508.721333,6069.688724,9400.615463,-1915.238745
508.721654,4737.318029,9548.656652,-2068.457845
508.721974,4663.297435,8364.327145,-919.314598
508.722295,7328.038826,7772.162391,0.000000
508.722615,5847.626942,7402.059420,1072.533697
508.722936,4589.276840,7624.121203,536.266849
508.723257,4737.318029,8364.327145,-1455.581446
508.723577,4219.173869,8512.368333,-1685.410096
508.723898,5033.400406,7994.224174,229.828649
508.724218,5551.544565,6587.832884,1608.800546
508.724539,5033.400406,6513.812290,842.705048
508.724859,3923.091493,8216.285956,153.219100
508.725180,4367.215058,9622.677246,-1149.143247
508.725500,4367.215058,9474.636058,-2298.286494
508.725821,4737.318029,8068.244768,-1225.752797
508.726142,5847.626942,8068.244768,459.657299
508.726462,5107.421000,7994.224174,842.705048
508.726783,3256.906145,8290.306550,-153.219100
508.727103,3923.091493,8290.306550,-1149.143247
508.727424,4737.318029,8808.450710,-2068.457845
508.727744,5403.503377,8290.306550,-1072.533697
508.728065,5551.544565,8216.285956,0.000000
508.728386,5403.503377,7476.080014,153.219100
508.728706,4885.359217,7624.121203,229.828649
508.729027,4885.359217,7698.141797,0.000000
508.729347,5107.421000,7624.121203,-842.705048
508.729668,5181.441594,7105.977043,-536.266849
508.729988,5181.441594,7994.224174,0.000000
508.730309,6217.729913,9400.615463,383.047749
508.730629,4515.256246,8882.471304,153.219100
508.730950,5107.421000,8216.285956,-612.876398
508.731271,6513.812290,7772.162391,-1225.752797
508.731591,4663.297435,7328.038826,-766.095498
508.731912,4367.215058,7624.121203,383.047749
508.732232,4959.379811,7994.224174,919.314598
508.732553,3849.070898,8586.388927,153.219100
508.732873,4367.215058,8512.368333,612.876398
508.733194,5625.565159,9474.636058,76.609550
508.733515,5033.400406,9844.739029,-842.705048
508.733835,3701.029710,9918.759623,76.609550
508.734156,3997.112087,8290.306550,842.705048
508.734476,3997.112087,7105.977043,1455.581446
508.734797,4145.153275,7179.997637,1991.848295
508.735117,4219.173869,7698.141797,766.095498
508.735438,4441.235652,9030.512492,-995.924147
508.735758,4367.215058,9474.636058,-766.095498
508.736079,4737.318029,9770.718434,459.657299
508.736400,5033.400406,7476.080014,766.095498
508.736720,4589.276840,6143.709319,1685.410096
508.737041,4737.318029,6809.894666,689.485948
508.737361,4663.297435,8364.327145,-383.047749
508.737682,4959.379811,9030.512492,-1149.143247
508.738002,5329.482782,8364.327145,-306.438199
508.738323,6587.832884,8216.285956,842.705048
508.738644,6217.729913,6957.935855,1455.581446
508.738964,5699.585753,5995.668130,76.609550
508.739285,5033.400406,6365.771101,-919.314598
508.739605,5329.482782,7476.080014,-1149.143247
508.739926,5329.482782,7328.038826,459.657299
508.740246,5921.647536,6957.935855,459.657299
508.740567,6439.791695,6957.935855,306.438199
508.740887,5329.482782,7476.080014,0.000000
508.741208,5625.565159,8290.306550,-766.095498
508.741529,5329.482782,8512.368333,-1149.143247
508.741849,4885.359217,8068.244768,-612.876398
508.742170,5625.565159,7772.162391,383.047749
508.742490,5033.400406,7550.100608,459.657299
508.742811,3627.009116,7105.977043,0.000000
508.743131,4441.235652,7920.203579,-766.095498
508.743452,4811.338623,8364.327145,-842.705048
508.743773,4515.256246,8734.430116,229.828649
508.744093,4885.359217,8438.347739,842.705048
508.744414,4071.132681,8660.409521,0.000000
508.744734,3552.988522,7846.182985,153.219100
508.745055,4441.235652,7920.203579,153.219100
508.745375,5181.441594,8808.450710,-919.314598
508.745696,5403.503377,9178.553681,-1149.143247
508.746017,5181.441594,9622.677246,-612.876398
508.746337,5403.503377,9326.594869,-536.266849
508.746658,4885.359217,7920.203579,0.000000
508.746978,5551.544565,7550.100608,-459.657299
508.747299,4885.359217,7550.100608,-995.924147
508.747619,5625.565159,8734.430116,-842.705048
508.747940,5847.626942,9030.512492,0.000000
508.748260,5329.482782,8290.306550,0.000000
508.748581,5107.421000,7105.977043,0.000000
508.748902,6143.709319,8364.327145,153.219100
508.749222,5995.668130,9400.615463,-689.485948
508.749543,5625.565159,9252.574275,-1608.800546
508.749863,5625.565159,8586.388927,-995.924147
508.750184,5107.421000,7772.162391,-306.438199
508.750504,4293.194464,7254.018232,612.876398
508.750825,3923.091493,7624.121203,1072.533697
508.751146,4293.194464,9104.533087,-612.876398
508.751466,4885.359217,9770.718434,-1455.581446
508.751787,4663.297435,9326.594869,-995.924147
508.752107,4811.338623,8512.368333,0.000000
508.752428,4145.153275,8142.265362,1378.971896
508.752748,3627.009116,8438.347739,1225.752797
508.753069,4589.276840,8808.450710,76.609550
508.753389,4811.338623,9326.594869,-1072.533697
508.753710,4219.173869,8808.450710,-612.876398
508.754031,4663.297435,7994.224174,842.705048
508.754351,4737.318029,7920.203579,1072.533697
508.754672,3775.050304,7105.977043,459.657299
508.754992,4367.215058,6439.791695,0.000000
508.755313,5255.462188,7179.997637,0.000000
508.755633,5255.462188,7920.203579,536.266849
508.755954,4885.359217,8142.265362,766.095498
508.756275,5921.647536,7254.018232,306.438199
508.756595,6365.771101,6587.832884,153.219100
508.756916,6735.874072,6291.750507,76.609550
508.757236,7476.080014,6883.915261,-612.876398
508.757557,6291.750507,7328.038826,-1838.629195
508.757877,5773.606348,6809.894666,-1685.410096
508.758198,6587.832884,6439.791695,-229.828649
508.758518,7105.977043,6217.729913,919.314598
508.758839,6587.832884,6735.874072,612.876398
508.759160,6809.894666,7402.059420,-842.705048
508.759480,5995.668130,8364.327145,-2298.286494
508.759801,4885.359217,8364.327145,-536.266849
508.760121,5255.462188,7105.977043,919.314598
508.760442,5625.565159,5921.647536,1532.190996
508.760762,4811.338623,6291.750507,1608.800546
508.761083,4589.276840,7846.182985,766.095498
508.761404,3404.947333,9474.636058,-1149.143247
508.761724,3034.844362,9030.512492,-1608.800546
508.762045,5181.441594,8438.347739,153.219100
508.762365,5477.523971,7994.224174,1762.019645
508.762686,4071.132681,6513.812290,1302.362347
508.763006,4367.215058,6291.750507,0.000000
508.763327,4293.194464,9992.780217,-1838.629195
508.763647,3256.906145,10807.006753,-1149.143247
508.763968,5847.626942,9918.759623,153.219100
508.764289,7402.059420,8142.265362,536.266849
508.764609,5255.462188,7550.100608,76.609550
508.764930,4737.318029,7772.162391,-459.657299
508.765250,4885.359217,9030.512492,-1149.143247
508.765571,4441.235652,8660.409521,-1302.362347
508.765891,5847.626942,8364.327145,229.828649
508.766212,6587.832884,8364.327145,383.047749
508.766533,4663.297435,7328.038826,-842.705048
508.766853,3330.926739,7994.224174,-689.485948
508.767174,4737.318029,8660.409521,-995.924147
508.767494,5255.462188,8068.244768,-1762.019645
508.767815,5477.523971,7698.141797,-459.657299
508.768135,5477.523971,7402.059420,-459.657299
508.768456,4145.153275,8364.327145,-612.876398
508.768777,3552.988522,9252.574275,76.609550
508.769097,4811.338623,9474.636058,-689.485948
508.769418,6661.853478,8734.430116,-919.314598
508.769738,6143.709319,8290.306550,-689.485948
508.770059,5551.544565,8808.450710,0.000000
508.770379,3627.009116,8216.285956,0.000000
508.770700,3552.988522,7624.121203,459.657299
508.771020,4885.359217,6735.874072,0.000000
508.771341,5625.565159,7105.977043,-306.438199
508.771662,5329.482782,8882.471304,153.219100
508.771982,4515.256246,9548.656652,229.828649
508.772303,4219.173869,9252.574275,612.876398
508.772623,4441.235652,7550.100608,383.047749
508.772944,5255.462188,6217.729913,919.314598
508.773264,6143.709319,7402.059420,0.000000
508.773585,5403.503377,8660.409521,-306.438199
508.773906,4293.194464,9178.553681,-153.219100
508.774226,4737.318029,8142.265362,-536.266849
508.774547,4663.297435,7105.977043,-536.266849
508.774867,5107.421000,6883.915261,-153.219100
508.775188,5921.647536,7328.038826,-306.438199
508.775508,5847.626942,8216.285956,-995.924147
508.775829,4589.276840,8956.491898,229.828649
508.776149,5033.400406,7254.018232,229.828649
508.776470,5477.523971,6217.729913,76.609550
508.776791,5107.421000,6735.874072,229.828649
508.777111,6365.771101,7920.203579,459.657299
508.777432,6439.791695,8882.471304,-766.095498
508.777752,5403.503377,7772.162391,-1685.410096
508.778073,5403.503377,6587.832884,-229.828649
508.778393,5773.606348,6439.791695,995.924147
508.778714,5329.482782,6365.771101,1072.533697
508.779035,5329.482782,6883.915261,76.609550
508.779355,6143.709319,8142.265362,-1455.581446
508.779676,5551.544565,7994.224174,-1455.581446
508.779996,5477.523971,7846.182985,229.828649
508.780317,5847.626942,7179.997637,1608.800546
508.780637,5403.503377,7031.956449,306.438199
508.780958,4959.379811,7328.038826,-306.438199
508.781278,5181.441594,8216.285956,-1532.190996
508.781599,4811.338623,8734.430116,-1378.971896
508.781920,5255.462188,8586.388927,306.438199
508.782240,4737.318029,8734.430116,1072.533697
508.782561,4219.173869,8216.285956,-76.609550
508.782881,3849.070898,7772.162391,-536.266849
508.783202,3997.112087,8586.388927,-842.705048
508.783522,3701.029710,8586.388927,-612.876398
508.783843,3478.967927,9474.636058,0.000000
508.784164,4737.318029,8956.491898,1072.533697
508.784484,4219.173869,8808.450710,766.095498
508.784805,3552.988522,8660.409521,383.047749
508.785125,4219.173869,8734.430116,-766.095498
508.785446,5625.565159,9474.636058,-1225.752797
508.785766,4441.235652,8586.388927,-612.876398
508.786087,4589.276840,7550.100608,153.219100
508.786407,5107.421000,7476.080014,153.219100
508.786728,4663.297435,7994.224174,0.000000
508.787049,3849.070898,8142.265362,-459.657299
508.787369,6069.688724,8438.347739,-1455.581446
508.787690,5921.647536,8882.471304,-1685.410096
508.788010,4737.318029,8216.285956,-383.047749
508.788331,5551.544565,7105.977043,229.828649
508.788651,5477.523971,7328.038826,1072.533697
508.788972,5329.482782,7994.224174,306.438199
508.789293,5551.544565,9474.636058,-1072.533697
508.789613,4367.215058,8734.430116,-2757.943793
508.789934,4515.256246,7550.100608,-1762.019645
508.790254,5921.647536,7476.080014,1685.410096
508.790575,5033.400406,6735.874072,1225.752797
508.790895,4737.318029,7105.977043,-459.657299
508.791216,4885.359217,8216.285956,-2221.676944
508.791537,4589.276840,9696.697840,-2834.553343
508.791857,4811.338623,9252.574275,76.609550
508.792178,6143.709319,7698.141797,2068.457845
508.792498,6069.688724,6957.935855,1762.019645
508.792819,4441.235652,7179.997637,76.609550
508.793139,4367.215058,8586.388927,-1608.800546
508.793460,5107.421000,9548.656652,-1455.581446
508.793780,4811.338623,9252.574275,-383.047749
508.794101,5625.565159,7846.182985,1149.143247
508.794422,5329.482782,6365.771101,1608.800546
508.794742,4293.194464,6735.874072,1302.362347
508.795063,3701.029710,8438.347739,76.609550
508.795383,3849.070898,9178.553681,-1608.800546
508.795704,4811.338623,9326.594869,-1455.581446
508.796024,5995.668130,8142.265362,459.657299
508.796345,5995.668130,7105.977043,1455.581446
508.796666,4737.318029,7550.100608,1455.581446
508.796986,4441.235652,8216.285956,229.828649
508.797307,4367.215058,8734.430116,-919.314598
508.797627,4885.359217,7920.203579,-1532.190996
508.797948,5847.626942,7846.182985,0.000000
508.798268,5847.626942,8068.244768,766.095498
508.798589,4441.235652,7179.997637,459.657299
508.798909,4293.194464,7031.956449,0.000000
508.799230,5033.400406,7550.100608,-995.924147
508.799551,5181.441594,7624.121203,-995.924147
508.799871,5181.441594,7920.203579,-306.438199
508.800192,5773.606348,8216.285956,0.000000
508.800512,4737.318029,8068.244768,689.485948
508.800833,4959.379811,7698.141797,459.657299
508.801153,6439.791695,7994.224174,-766.095498
508.801474,5477.523971,9104.533087,-1838.629195
508.801795,4885.359217,9030.512492,-612.876398
508.802115,4663.297435,8290.306550,766.095498
508.802436,4145.153275,7698.141797,1455.581446
508.802756,3552.988522,7402.059420,1762.019645
508.803077,3552.988522,7994.224174,-229.828649
508.803397,4441.235652,9030.512492,-1302.362347
508.803718,4663.297435,9474.636058,-766.095498
508.804038,4885.359217,8956.491898,1072.533697
508.804359,4737.318029,7772.162391,995.924147
508.804680,3849.070898,7476.080014,536.266849
508.805000,4811.338623,8068.244768,536.266849
508.805321,6069.688724,9992.780217,-153.219100
508.805641,5847.626942,10140.821405,-1149.143247
508.805962,4885.359217,9548.656652,-1225.752797
508.806283,5255.462188,8364.327145,-153.219100
508.806603,4367.215058,7031.956449,842.705048
508.806924,4737.318029,6661.853478,766.095498
508.807245,5181.441594,6661.853478,-766.095498
508.807565,4811.338623,7550.100608,-1608.800546
508.807886,5107.421000,8660.409521,-383.047749
508.808207,5255.462188,8216.285956,536.266849
508.808527,5255.462188,7402.059420,612.876398
508.808848,6809.894666,7624.121203,536.266849
508.809169,6661.853478,7402.059420,-766.095498
508.809489,5181.441594,7328.038826,-1991.848295
508.809810,5551.544565,7772.162391,-1685.410096
508.810131,5773.606348,8586.388927,-612.876398
508.810451,4737.318029,8364.327145,-153.219100
508.810772,5625.565159,7624.121203,-229.828649
508.811093,5847.626942,7254.018232,-536.266849
508.811414,4219.173869,8216.285956,-1915.238745
508.811734,3552.988522,8438.347739,-306.438199
508.812055,4737.318029,8290.306550,1149.143247
508.812376,4589.276840,8068.244768,1072.533697
508.812696,3849.070898,7846.182985,1455.581446
508.813017,4145.153275,8438.347739,0.000000
508.813338,3552.988522,9104.533087,-1762.019645
508.813658,3256.906145,9844.739029,-306.438199
508.813979,4441.235652,9400.615463,1225.752797
508.814300,5699.585753,8068.244768,1685.410096
508.814620,4145.153275,7031.956449,459.657299
508.814941,3478.967927,7550.100608,-689.485948
508.815262,4145.153275,9030.512492,-842.705048
508.815582,4367.215058,9548.656652,-689.485948
508.815903,5625.565159,9030.512492,229.828649
508.816224,6809.894666,7994.224174,229.828649
508.816544,5477.523971,7179.997637,383.047749
508.816865,4737.318029,8438.347739,459.657299
508.817186,4441.235652,9474.636058,-383.047749
508.817506,4663.297435,8586.388927,-1149.143247
508.817827,5181.441594,7179.997637,229.828649
508.818148,6217.729913,7105.977043,1608.800546
508.818468,4441.235652,7846.182985,1302.362347
508.818789,2738.761985,7920.203579,229.828649
508.819110,3775.050304,8290.306550,-1378.971896
508.819431,5181.441594,7994.224174,-1608.800546
508.819751,5477.523971,7994.224174,76.609550
508.820072,6069.688724,7254.018232,1455.581446
508.820393,4737.318029,7550.100608,153.219100
508.820713,3478.967927,7624.121203,-229.828649
508.821034,4219.173869,8512.368333,-842.705048
508.821355,5329.482782,8882.471304,-1455.581446
508.821675,5033.400406,9400.615463,-1225.752797
508.821996,4885.359217,9326.594869,0.000000
508.822317,4663.297435,7994.224174,536.266849
508.822637,3849.070898,7179.997637,536.266849
508.822958,3404.947333,7031.956449,229.828649
508.823279,4367.215058,7105.977043,-1225.752797
508.823599,5329.482782,8364.327145,-689.485948
508.823920,5255.462188,8956.491898,153.219100
508.824241,5329.482782,8808.450710,536.266849
508.824561,5625.565159,7476.080014,383.047749
508.824882,5921.647536,7179.997637,-229.828649
508.825203,5773.606348,7994.224174,-995.924147
508.825523,5477.523971,8290.306550,-995.924147
508.825844,5255.462188,7772.162391,-383.047749
508.826165,5625.565159,8068.244768,153.219100
508.826485,5329.482782,7920.203579,842.705048
508.826806,5773.606348,8216.285956,0.000000
508.827127,6365.771101,7920.203579,-995.924147
508.827448,6365.771101,7846.182985,-1608.800546
508.827768,5255.462188,7105.977043,-995.924147
508.828089,5551.544565,6069.688724,76.609550
508.828410,5625.565159,6513.812290,536.266849
508.828730,5625.565159,7846.182985,459.657299
508.829051,5625.565159,9104.533087,-689.485948
508.829372,5995.668130,9696.697840,-2604.724693
508.829692,5773.606348,9326.594869,-1915.238745
508.830013,5255.462188,7994.224174,383.047749
508.830334,5551.544565,7254.018232,1455.581446
508.830654,4737.318029,6661.853478,842.705048
508.830975,4219.173869,7031.956449,-459.657299
508.831296,4737.318029,7920.203579,-1149.143247
508.831616,4737.318029,8142.265362,-1378.971896
508.831937,5477.523971,8364.327145,0.000000
508.832258,5921.647536,7550.100608,689.485948
508.832578,4367.215058,7105.977043,153.219100
508.832899,4589.276840,6883.915261,-306.438199
508.833220,5107.421000,8586.388927,-689.485948
508.833540,4663.297435,9770.718434,-919.314598
508.833861,5403.503377,9696.697840,-459.657299
508.834182,6365.771101,9178.553681,0.000000
508.834502,4737.318029,8734.430116,0.000000
508.834823,4145.153275,7698.141797,919.314598
508.835144,4737.318029,7328.038826,0.000000
508.835464,4145.153275,7476.080014,-766.095498
508.835785,3552.988522,7772.162391,0.000000
508.836106,3997.112087,7550.100608,153.219100
508.836427,4515.256246,7698.141797,153.219100
508.836747,4367.215058,8290.306550,919.314598
508.837068,5181.441594,8068.244768,153.219100
508.837389,5255.462188,8734.430116,-1149.143247
508.837709,4663.297435,9030.512492,-1302.362347
508.838030,4441.235652,9252.574275,-459.657299
508.838351,5107.421000,8734.430116,459.657299
508.838671,4219.173869,8142.265362,612.876398
508.838992,4515.256246,8364.327145,-536.266849
508.839313,4589.276840,8956.491898,-1455.581446
508.839633,4071.132681,8882.471304,-1225.752797
508.839954,4293.194464,8216.285956,153.219100
508.840275,4441.235652,7328.038826,1838.629195
508.840595,3627.009116,7105.977043,766.095498
508.840916,3849.070898,7179.997637,0.000000
508.841237,4441.235652,8660.409521,-766.095498
508.841557,4737.318029,10288.862594,-689.485948
508.841878,5255.462188,9844.739029,229.828649
508.842199,5329.482782,8586.388927,612.876398
508.842519,4811.338623,7550.100608,919.314598
508.842840,4959.379811,7550.100608,995.924147
508.843161,4589.276840,7254.018232,-383.047749
508.843481,5107.421000,7402.059420,-1608.800546
508.843802,6143.709319,6957.935855,-995.924147
508.844123,5921.647536,6957.935855,-153.219100
508.844444,5625.565159,6735.874072,0.000000
508.844764,6217.729913,8216.285956,306.438199
508.845085,6365.771101,8956.491898,-459.657299
508.845406,6513.812290,8364.327145,-1225.752797
508.845726,6143.709319,7920.203579,-383.047749
508.846047,6513.812290,7328.038826,459.657299
508.846368,5403.503377,7254.018232,1225.752797
508.846688,5625.565159,7698.141797,842.705048
508.847009,5477.523971,7994.224174,-1302.362347
508.847330,5699.585753,8216.285956,-2145.067394
508.847650,5625.565159,7550.100608,-1072.533697
508.847971,5551.544565,7254.018232,153.219100
508.848292,4885.359217,6809.894666,1149.143247
508.848612,4367.215058,6291.750507,919.314598
508.848933,4145.153275,7105.977043,-766.095498
508.849254,4885.359217,8290.306550,-1302.362347
508.849574,4959.379811,9696.697840,-919.314598
508.849895,5995.668130,9918.759623,0.000000
508.850216,6439.791695,9326.594869,-306.438199
508.850536,5403.503377,8290.306550,76.609550
508.850857,4959.379811,6735.874072,-229.828649
508.851178,5181.441594,7105.977043,-689.485948
508.851498,4811.338623,7254.018232,-1302.362347
508.851819,5107.421000,7698.141797,-612.876398
508.852140,5995.668130,7994.224174,76.609550
508.852461,5625.565159,7772.162391,306.438199
508.852781,5625.565159,7920.203579,0.000000
508.853102,6365.771101,8290.306550,-383.047749
508.853423,5847.626942,9326.594869,-1302.362347
508.853743,4811.338623,9696.697840,-995.924147
508.854064,4959.379811,8808.450710,-306.438199
508.854385,5329.482782,7846.182985,689.485948
508.854705,4663.297435,8216.285956,1378.971896
508.855026,4145.153275,8512.368333,153.219100
508.855347,3923.091493,9400.615463,-2221.676944
508.855667,3701.029710,9252.574275,-2068.457845
508.855988,4811.338623,8808.450710,229.828649
508.856309,5181.441594,7031.956449,1762.019645
508.856629,3478.967927,6217.729913,1455.581446
508.856950,3627.009116,8216.285956,919.314598
508.857271,4219.173869,9844.739029,-536.266849
508.857591,3552.988522,9474.636058,-1302.362347
508.857912,5995.668130,8956.491898,-536.266849
508.858233,6587.832884,8808.450710,612.876398
508.858553,4071.132681,7772.162391,0.000000
508.858874,3478.967927,6365.771101,-76.609550
508.859195,4959.379811,7254.018232,-919.314598
508.859515,4885.359217,7328.038826,-612.876398
508.859836,5255.462188,7772.162391,689.485948
508.860157,5921.647536,7105.977043,0.000000
508.860478,5033.400406,7698.141797,-766.095498
508.860798,4885.359217,7772.162391,229.828649
508.861119,6365.771101,7105.977043,-229.828649
508.861440,6217.729913,7402.059420,-1455.581446
508.861760,5847.626942,7476.080014,-612.876398
508.862081,4737.318029,8142.265362,-306.438199
508.862402,4145.153275,8142.265362,-383.047749
508.862722,4071.132681,7772.162391,-306.438199
508.863043,5625.565159,8142.265362,153.219100
508.863364,5699.585753,8512.368333,-766.095498
508.863684,4515.256246,8364.327145,-919.314598
508.864005,4219.173869,8364.327145,-306.438199
508.864326,3552.988522,7920.203579,536.266849
508.864646,2886.803174,7846.182985,1455.581446
508.864967,4145.153275,7550.100608,1455.581446
508.865288,5255.462188,9178.553681,-153.219100
508.865608,4441.235652,9696.697840,-766.095498
508.865929,4293.194464,9548.656652,-612.876398
508.866250,4219.173869,8956.491898,0.000000
508.866570,4441.235652,7624.121203,919.314598
508.866891,4515.256246,6957.935855,1225.752797
508.867212,5033.400406,7402.059420,76.609550
508.867532,5107.421000,9252.574275,-689.485948
508.867853,4959.379811,10288.862594,153.219100
508.868174,4959.379811,8586.388927,383.047749
508.868494,6217.729913,6735.874072,306.438199
508.868815,7105.977043,5773.606348,383.047749
508.869136,6587.832884,7476.080014,-689.485948
508.869457,6069.688724,8438.347739,-1608.800546
508.869777,5699.585753,9178.553681,-1685.410096
508.870098,5921.647536,8512.368333,-612.876398
508.870419,6735.874072,7254.018232,766.095498
508.870739,6439.791695,6809.894666,459.657299
508.871060,5329.482782,6957.935855,-1762.019645
508.871381,4589.276840,7328.038826,-2374.896044
508.871701,4145.153275,7994.224174,-1838.629195
508.872022,5033.400406,7550.100608,383.047749
508.872343,5773.606348,7105.977043,1378.971896
508.872663,4737.318029,7550.100608,383.047749
508.872984,3849.070898,9030.512492,-919.314598
508.873305,3552.988522,9992.780217,-1455.581446
508.873625,4219.173869,8882.471304,-842.705048
508.873946,4885.359217,7698.141797,229.828649
508.874267,5625.565159,8290.306550,1532.190996
508.874587,3849.070898,9178.553681,995.924147
508.874908,2220.617826,8660.409521,-1225.752797
508.875229,3108.864956,8882.471304,-1762.019645
508.875549,3997.112087,8290.306550,-306.438199
508.875870,4367.215058,8956.491898,1838.629195
508.876191,4737.318029,8290.306550,2451.505594
508.876511,4589.276840,8142.265362,689.485948
508.876832,3849.070898,8438.347739,-1149.143247
508.877153,4663.297435,8882.471304,-1455.581446
508.877474,5995.668130,9178.553681,-612.876398
508.877794,5921.647536,7994.224174,76.609550
508.878115,6883.915261,7328.038826,459.657299
508.878436,6291.750507,7624.121203,1072.533697
508.878756,4589.276840,7402.059420,-229.828649
508.879077,4885.359217,8068.244768,-1225.752797
508.879398,5551.544565,8586.388927,-1838.629195
508.879718,6587.832884,8364.327145,-995.924147
508.880039,6809.894666,8068.244768,306.438199
508.880360,5551.544565,7254.018232,612.876398
508.880680,5181.441594,7328.038826,459.657299
508.881001,3997.112087,7624.121203,-383.047749
508.881322,4145.153275,7846.182985,-1685.410096
508.881642,5773.606348,8438.347739,-689.485948
508.881963,6143.709319,8586.388927,536.266849
508.882284,4737.318029,9104.533087,153.219100
508.882604,4219.173869,8290.306550,0.000000
508.882925,4145.153275,7698.141797,-459.657299
508.883246,4071.132681,7328.038826,76.609550
508.883566,3997.112087,7179.997637,383.047749
508.883887,4737.318029,8586.388927,766.095498
508.884208,3849.070898,8660.409521,1072.533697
508.884528,3404.947333,7994.224174,1149.143247
508.884849,4737.318029,7698.141797,383.047749
508.885170,5477.523971,7254.018232,-1685.410096
508.885491,4959.379811,7920.203579,-995.924147
508.885811,5181.441594,8142.265362,0.000000
508.886132,5181.441594,8142.265362,306.438199
508.886453,5255.462188,7920.203579,766.095498
508.886773,5625.565159,7624.121203,-306.438199
508.887094,6439.791695,7772.162391,-1838.629195
508.887415,5847.626942,7846.182985,-2068.457845
508.887735,5551.544565,7920.203579,-1608.800546
508.888056,5921.647536,7550.100608,153.219100
508.888377,5625.565159,6513.812290,766.095498
508.888697,5625.565159,6883.915261,995.924147
508.889018,5847.626942,8142.265362,-306.438199
508.889339,5403.503377,9252.574275,-1532.190996
508.889659,5255.462188,8808.450710,-1302.362347
508.889980,5699.585753,8142.265362,0.000000
508.890301,5329.482782,8216.285956,1072.533697
508.890621,4293.194464,8364.327145,1072.533697
508.890942,3627.009116,8364.327145,-536.266849
508.891263,4811.338623,8808.450710,-1149.143247
508.891583,4663.297435,8956.491898,-153.219100
508.891904,4367.215058,8956.491898,1149.143247
508.892225,4515.256246,8290.306550,1455.581446
508.892545,3775.050304,8216.285956,459.657299
508.892866,3552.988522,8364.327145,0.000000
508.893187,4959.379811,8882.471304,-229.828649
508.893508,4515.256246,9252.574275,-689.485948
508.893828,4367.215058,9252.574275,-612.876398
508.894149,4885.359217,8364.327145,995.924147
508.894470,4737.318029,8364.327145,1838.629195
508.894790,4219.173869,8068.244768,306.438199
508.895111,4219.173869,8290.306550,-612.876398
508.895432,3923.091493,8512.368333,-1838.629195
508.895752,4441.235652,8364.327145,-842.705048
508.896073,4811.338623,8216.285956,1072.533697
508.896394,5107.421000,7698.141797,766.095498
508.896714,4367.215058,7105.977043,0.000000
508.897035,4293.194464,7920.203579,-689.485948
508.897356,5255.462188,8808.450710,-842.705048
508.897676,5107.421000,8956.491898,-229.828649
508.897997,5699.585753,8142.265362,0.000000
508.898318,5477.523971,7994.224174,-383.047749
508.898638,4885.359217,7105.977043,-229.828649
508.898959,4959.379811,7476.080014,-153.219100
508.899280,5625.565159,8142.265362,-1455.581446
508.899600,4885.359217,7698.141797,-1455.581446
508.899921,5477.523971,7994.224174,0.000000
508.900242,5477.523971,7772.162391,612.876398
508.900562,4811.338623,7179.997637,1072.533697
508.900883,5477.523971,6661.853478,612.876398
508.901204,5625.565159,7624.121203,-1225.752797
508.901524,5181.441594,7920.203579,-1532.190996
508.901845,5255.462188,8808.450710,-153.219100
508.902166,5329.482782,8882.471304,766.095498
508.902487,5107.421000,7846.182985,995.924147
508.902807,4589.276840,7254.018232,0.000000
508.903128,4737.318029,7402.059420,-536.266849
508.903449,4737.318029,8216.285956,-995.924147
508.903769,4737.318029,8068.244768,-229.828649
508.904090,4737.318029,8438.347739,536.266849
508.904411,5181.441594,8290.306550,536.266849
508.904731,4811.338623,7698.141797,459.657299
508.905052,5033.400406,8142.265362,-383.047749
508.905373,5773.606348,8956.491898,-689.485948
508.905693,5773.606348,8808.450710,-919.314598
508.906014,5255.462188,7772.162391,612.876398
508.906335,5255.462188,7994.224174,1532.190996
508.906655,4737.318029,8364.327145,536.266849
508.906976,4367.215058,7772.162391,-536.266849
508.907297,5847.626942,7105.977043,-229.828649
508.907617,6587.832884,7624.121203,-612.876398
508.907938,5403.503377,7920.203579,459.657299
508.908259,4737.318029,7105.977043,995.924147
508.908579,4885.359217,7105.977043,153.219100
508.908900,5773.606348,7402.059420,0.000000
508.909221,6217.729913,8586.388927,-689.485948
508.909542,5847.626942,8808.450710,-1838.629195
508.909862,5255.462188,8660.409521,-1762.019645
508.910183,5699.585753,8290.306550,229.828649
508.910504,5921.647536,7254.018232,1455.581446
508.910824,4959.379811,7550.100608,536.266849
508.911145,4071.132681,8142.265362,-1685.410096
508.911466,4293.194464,8512.368333,-2374.896044
508.911787,4367.215058,9030.512492,-153.219100
508.912107,4367.215058,8290.306550,1608.800546
508.912428,5181.441594,7476.080014,1455.581446
508.912749,4219.173869,6587.832884,0.000000
508.913069,3701.029710,8290.306550,-1455.581446
508.913390,4071.132681,9918.759623,-1225.752797
508.913711,4367.215058,9992.780217,-919.314598
508.914031,4441.235652,8882.471304,536.266849
508.914352,4811.338623,7994.224174,1302.362347
508.914673,4145.153275,7550.100608,919.314598
508.914994,3478.967927,8290.306550,153.219100
508.915314,3997.112087,8290.306550,-1302.362347
508.915635,4441.235652,8734.430116,-1762.019645
508.915956,5107.421000,7920.203579,-383.047749
508.916276,5551.544565,8438.347739,1378.971896
508.916597,5403.503377,8142.265362,1685.410096
508.916918,4663.297435,7031.956449,0.000000
508.917239,5847.626942,6957.935855,-1225.752797
508.917559,5699.585753,7624.121203,-1225.752797
508.917880,5625.565159,8216.285956,-459.657299
508.918201,6513.812290,8586.388927,229.828649
508.918521,6513.812290,7179.997637,-306.438199
508.918842,6217.729913,6513.812290,-153.219100
508.919163,6587.832884,7105.977043,-383.047749
508.919484,5551.544565,7772.162391,-2298.286494
508.919804,4959.379811,7698.141797,-1915.238745
508.920125,5107.421000,8068.244768,0.000000
508.920446,6217.729913,7846.182985,1225.752797
508.920766,6217.729913,7698.141797,1378.971896
508.921087,5699.585753,7994.224174,0.000000
508.921408,4589.276840,8734.430116,-2374.896044
508.921728,3997.112087,8882.471304,-1532.190996
508.922049,4663.297435,8438.347739,1072.533697
508.922370,4811.338623,7550.100608,1838.629195
508.922691,4219.173869,6809.894666,1302.362347
508.923011,3997.112087,8512.368333,0.000000
508.923332,3775.050304,8882.471304,-1149.143247
508.923653,3997.112087,9326.594869,-459.657299
508.923973,5107.421000,8660.409521,842.705048
508.924294,5329.482782,7179.997637,919.314598
508.924615,4811.338623,6883.915261,383.047749
508.924936,4737.318029,8216.285956,76.609550
508.925256,4885.359217,8734.430116,-919.314598
508.925577,4737.318029,9400.615463,-1532.190996
508.925898,6217.729913,8438.347739,-1072.533697
508.926218,6365.771101,8142.265362,153.219100
508.926539,5921.647536,7476.080014,536.266849
508.926860,5181.441594,6809.894666,153.219100
508.927180,5921.647536,7031.956449,-1532.190996
508.927501,5773.606348,7698.141797,-1455.581446
508.927822,5773.606348,7698.141797,-153.219100
508.928143,6217.729913,7328.038826,459.657299
508.928463,6069.688724,7031.956449,153.219100
508.928784,4811.338623,7031.956449,0.000000
508.929105,4811.338623,7920.203579,-536.266849
508.929425,5625.565159,8438.347739,-1378.971896
508.929746,5847.626942,9030.512492,-1072.533697
508.930067,5107.421000,8290.306550,-229.828649
508.930388,4367.215058,7624.121203,153.219100
508.930708,4071.132681,8364.327145,1455.581446
508.931029,4071.132681,8808.450710,459.657299
508.931350,4293.194464,8216.285956,-766.095498
508.931670,5773.606348,7476.080014,-919.314598
508.931991,5329.482782,7920.203579,229.828649
508.932312,4589.276840,7920.203579,1302.362347
508.932632,3701.029710,7772.162391,919.314598
508.932953,4071.132681,7105.977043,-153.219100
508.933274,5551.544565,8808.450710,-766.095498
508.933595,5699.585753,10066.800811,-383.047749
508.933915,4441.235652,9622.677246,-459.657299
508.934236,4367.215058,8734.430116,-689.485948
508.934557,4737.318029,7846.182985,306.438199
508.934877,4663.297435,7402.059420,766.095498
508.935198,4959.379811,7550.100608,459.657299
508.935519,4885.359217,8660.409521,-1378.971896
508.935840,4145.153275,9474.636058,-1532.190996
508.936160,4663.297435,8956.491898,153.219100
508.936481,5847.626942,7698.141797,919.314598
508.936802,6069.688724,7105.977043,536.266849
508.937122,5995.668130,7328.038826,-919.314598
508.937443,5033.400406,8364.327145,-1455.581446
508.937764,5033.400406,8808.450710,-1378.971896
508.938085,4737.318029,8734.430116,76.609550
508.938405,5181.441594,7105.977043,766.095498
508.938726,5477.523971,7105.977043,766.095498
508.939047,5477.523971,8068.244768,612.876398
508.939367,4441.235652,9030.512492,-153.219100
508.939688,3701.029710,8142.265362,-995.924147
508.940009,4367.215058,7476.080014,-153.219100
508.940329,5181.441594,7698.141797,842.705048
508.940650,4737.318029,7624.121203,1302.362347
508.940971,5107.421000,7476.080014,-383.047749
508.941292,5181.441594,8290.306550,-1378.971896
508.941612,4145.153275,9030.512492,-842.705048
508.941933,4441.235652,8586.388927,689.485948
508.942254,5033.400406,8142.265362,919.314598
508.942574,4737.318029,7254.018232,153.219100
508.942895,4145.153275,7105.977043,-689.485948
508.943216,4219.173869,7624.121203,-1225.752797
508.943537,4737.318029,7846.182985,-995.924147
508.943857,5033.400406,8734.430116,383.047749
508.944178,5847.626942,8808.450710,536.266849
508.944499,5181.441594,8438.347739,-153.219100
508.944819,4737.318029,7846.182985,-536.266849
508.945140,5329.482782,7698.141797,-842.705048
508.945461,5699.585753,8364.327145,-689.485948
508.945781,5403.503377,8734.430116,-153.219100
508.946102,5551.544565,8808.450710,0.000000
508.946423,5181.441594,7550.100608,306.438199
508.946744,4663.297435,6957.935855,383.047749
508.947064,4959.379811,7254.018232,0.000000
508.947385,5107.421000,7550.100608,-612.876398
508.947706,5477.523971,7920.203579,-536.266849
508.948026,6069.688724,7624.121203,76.609550
508.948347,5847.626942,7328.038826,0.000000
508.948668,5255.462188,7254.018232,0.000000
508.948989,5699.585753,7698.141797,-612.876398
508.949309,5625.565159,8364.327145,-1915.238745
508.949630,5921.647536,8512.368333,-1378.971896
508.949951,6735.874072,8216.285956,0.000000
508.950271,5699.585753,7846.182985,383.047749
508.950592,5255.462188,7179.997637,0.000000
508.950913,4367.215058,7105.977043,-842.705048
508.951234,4367.215058,7920.203579,-1532.190996
508.951554,5329.482782,9400.615463,-919.314598
508.951875,4959.379811,9696.697840,306.438199
508.952196,4293.194464,8438.347739,995.924147
508.952516,4885.359217,7846.182985,689.485948
508.952837,3478.967927,7624.121203,383.047749
508.953158,3256.906145,7920.203579,-689.485948
508.953478,3404.947333,9104.533087,-612.876398
508.953799,5033.400406,9696.697840,153.219100
508.954120,4219.173869,8660.409521,842.705048
508.954441,4589.276840,8438.347739,1225.752797
508.954761,4663.297435,8068.244768,-153.219100
508.955082,4367.215058,8216.285956,-1302.362347
508.955403,4441.235652,7920.203579,-766.095498
508.955723,6513.812290,8364.327145,-536.266849
508.956044,6069.688724,7920.203579,383.047749
508.956365,5773.606348,7328.038826,612.876398
508.956686,5995.668130,7698.141797,-76.609550
508.957006,4811.338623,7994.224174,-459.657299
508.957327,4885.359217,8512.368333,-766.095498
508.957648,5699.585753,8808.450710,-766.095498
508.957968,4885.359217,7550.100608,-689.485948
508.958289,5181.441594,7624.121203,842.705048
508.958610,5033.400406,7179.997637,842.705048
508.958930,4219.173869,7254.018232,-459.657299
508.959251,4737.318029,7476.080014,-919.314598
508.959572,4737.318029,8364.327145,-1225.752797
508.959893,4515.256246,9400.615463,-153.219100
508.960213,4071.132681,8734.430116,1225.752797
508.960534,4071.132681,7994.224174,995.924147
508.960855,4737.318029,7550.100608,0.000000
508.961175,3997.112087,8290.306550,-383.047749
508.961496,2960.823768,8734.430116,-1378.971896
508.961817,3701.029710,9252.574275,-536.266849
508.962138,4145.153275,9326.594869,766.095498
508.962458,3552.988522,8660.409521,1225.752797
508.962779,4219.173869,7624.121203,612.876398
508.963100,4589.276840,7994.224174,0.000000
508.963420,4293.194464,9326.594869,-536.266849
508.963741,4589.276840,8660.409521,76.609550
508.964062,5107.421000,8364.327145,229.828649
508.964382,5773.606348,7254.018232,1149.143247
508.964703,5773.606348,7254.018232,919.314598
508.965024,5921.647536,7920.203579,0.000000
508.965345,5255.462188,9030.512492,-1915.238745
508.965665,5847.626942,8956.491898,-1225.752797
508.965986,6217.729913,8364.327145,0.000000
508.966307,6143.709319,7105.977043,995.924147
508.966627,5921.647536,5921.647536,766.095498
508.966948,5921.647536,6143.709319,0.000000
508.967269,5773.606348,7402.059420,-842.705048
508.967590,5699.585753,8068.244768,-1838.629195
508.967910,5773.606348,8142.265362,-1302.362347
508.968231,6513.812290,7105.977043,0.000000
508.968552,6217.729913,6883.915261,153.219100
508.968872,5699.585753,7476.080014,229.828649
508.969193,5255.462188,8364.327145,-1378.971896
508.969514,4737.318029,8290.306550,-2451.505594
508.969835,4737.318029,7550.100608,-536.266849
508.970155,5477.523971,7772.162391,995.924147
508.970476,4145.153275,8290.306550,1149.143247
508.970797,3552.988522,7994.224174,-153.219100
508.971117,3997.112087,7994.224174,-842.705048
508.971438,4219.173869,8734.430116,-1302.362347
508.971759,3997.112087,8290.306550,76.609550
508.972079,4589.276840,7994.224174,689.485948
508.972400,4071.132681,7698.141797,383.047749
508.972721,3552.988522,8438.347739,229.828649
508.973042,4293.194464,9178.553681,-612.876398
508.973362,5255.462188,9622.677246,-995.924147
508.973683,4885.359217,10066.800811,-995.924147
508.974004,4885.359217,9400.615463,76.609550
508.974324,4885.359217,8216.285956,459.657299
508.974645,5773.606348,8216.285956,842.705048
508.974966,5107.421000,8364.327145,459.657299
508.975287,5033.400406,7772.162391,-1225.752797
508.975607,5847.626942,8956.491898,-1455.581446
508.975928,5255.462188,9252.574275,0.000000
508.976249,5033.400406,8290.306550,842.705048
508.976569,5847.626942,7031.956449,1225.752797
508.976890,5477.523971,7105.977043,766.095498
508.977211,5255.462188,8068.244768,-76.609550
508.977531,4959.379811,9104.533087,-536.266849
508.977852,5107.421000,8438.347739,-459.657299
508.978173,5847.626942,7846.182985,153.219100
508.978494,5625.565159,7179.997637,842.705048
508.978814,4737.318029,6735.874072,-153.219100
508.979135,4737.318029,7328.038826,-766.095498
508.979456,4959.379811,8512.368333,-689.485948
508.979776,3849.070898,8216.285956,-1225.752797
508.980097,5403.503377,7179.997637,0.000000
508.980418,5847.626942,7179.997637,1072.533697
508.980739,4737.318029,7624.121203,612.876398
508.981059,3775.050304,7550.100608,0.000000
508.981380,3775.050304,8068.244768,-1072.533697
508.981701,4145.153275,8216.285956,-383.047749
508.982021,4663.297435,8512.368333,1685.410096
508.982342,4219.173869,8142.265362,995.924147
508.982663,3627.009116,7624.121203,-459.657299
508.982983,3849.070898,7846.182985,-1072.533697
508.983304,4663.297435,8290.306550,-229.828649
508.983625,4515.256246,7994.224174,0.000000
508.983946,5329.482782,7920.203579,306.438199
508.984266,5329.482782,8216.285956,-383.047749
508.984587,4145.153275,7846.182985,-306.438199
508.984908,4515.256246,7328.038826,0.000000
508.985228,6291.750507,8364.327145,-383.047749
508.985549,6735.874072,8734.430116,0.000000
508.985870,5995.668130,8808.450710,0.000000
508.986191,5625.565159,8290.306550,76.609550
508.986511,4885.359217,7846.182985,-153.219100
508.986832,4071.132681,7105.977043,459.657299
508.987153,5181.441594,6661.853478,383.047749
508.987473,6365.771101,7772.162391,-383.047749
508.987794,5551.544565,9104.533087,-229.828649
508.988115,4811.338623,8734.430116,-153.219100
508.988436,5847.626942,8290.306550,0.000000
508.988756,5403.503377,7772.162391,536.266849
508.989077,5181.441594,7328.038826,0.000000
508.989398,5773.606348,8290.306550,-766.095498
508.989718,4885.359217,9178.553681,-1072.533697
508.990039,4293.194464,9030.512492,919.314598
508.990360,4737.318029,7624.121203,459.657299
508.990680,5477.523971,6587.832884,0.000000
508.991001,4663.297435,6883.915261,-1072.533697
508.991322,4515.256246,7550.100608,-1378.971896
508.991643,5329.482782,8364.327145,-919.314598
508.991963,5255.462188,8142.265362,383.047749
508.992284,5329.482782,8216.285956,1225.752797
508.992605,5255.462188,7994.224174,0.000000
508.992925,4367.215058,7920.203579,-1455.581446
508.993246,4145.153275,8808.450710,-1149.143247
508.993567,4441.235652,9474.636058,-612.876398
508.993888,5625.565159,8512.368333,-153.219100
508.994208,4737.318029,7402.059420,306.438199
508.994529,3997.112087,7624.121203,-229.828649
508.994850,3849.070898,7994.224174,-612.876398
508.995170,3997.112087,8290.306550,-306.438199
508.995491,4589.276840,8438.347739,-459.657299
508.995812,5551.544565,8586.388927,76.609550
508.996132,4589.276840,8068.244768,76.609550
508.996453,4959.379811,7920.203579,842.705048
508.996774,4737.318029,7179.997637,153.219100
508.997095,5625.565159,7476.080014,-842.705048
508.997415,5551.544565,7994.224174,-1532.190996
508.997736,5181.441594,8586.388927,-1149.143247
508.998057,5033.400406,8586.388927,306.438199
508.998377,5329.482782,7994.224174,1225.752797
508.998698,5699.585753,7772.162391,995.924147
508.999019,5921.647536,8068.244768,-536.266849
508.999340,4959.379811,8808.450710,-1762.019645
508.999660,4737.318029,8956.491898,-1072.533697
508.999981,5403.503377,7698.141797,689.485948
509.000302,5699.585753,7772.162391,1532.190996
509.000622,5181.441594,7698.141797,1532.190996
509.000943,4145.153275,7698.141797,-306.438199
509.001264,4293.194464,8734.430116,-1532.190996
509.001585,4071.132681,9030.512492,-766.095498
509.001905,4515.256246,8660.409521,995.924147
509.002226,5403.503377,8290.306550,1378.971896
509.002547,4663.297435,7994.224174,766.095498
509.002867,4293.194464,7624.121203,0.000000
509.003188,4737.318029,7846.182985,-612.876398
509.003509,3923.091493,7254.018232,-306.438199
509.003829,4589.276840,7994.224174,536.266849
509.004150,5033.400406,8512.368333,842.705048
509.004471,4515.256246,7772.162391,0.000000
509.004792,5699.585753,7254.018232,-536.266849
509.005112,6735.874072,7772.162391,-689.485948
509.005433,5255.462188,8142.265362,-919.314598
509.005754,4737.318029,7179.997637,0.000000
509.006074,5995.668130,7254.018232,766.095498
509.006395,6143.709319,6809.894666,1149.143247
509.006716,5625.565159,6587.832884,689.485948
509.007037,5625.565159,6883.915261,-1302.362347
509.007357,5625.565159,7624.121203,-2604.724693
509.007678,4959.379811,7846.182985,-1225.752797
509.008003,6143.709319,7328.038826,383.047749
509.008324,6957.935855,6809.894666,306.438199
509.008644,5477.523971,7105.977043,-229.828649
509.008965,4737.318029,8216.285956,-1149.143247
509.009286,5033.400406,8882.471304,-2221.676944
509.009606,5033.400406,8808.450710,-1072.533697
509.009927,5921.647536,8956.491898,383.047749
509.010248,5477.523971,8068.244768,306.438199
509.010568,4367.215058,7772.162391,-229.828649
509.010889,3775.050304,8068.244768,-459.657299
509.011210,3701.029710,8512.368333,-842.705048
509.011531,3775.050304,8290.306550,-229.828649
509.011851,4663.297435,8290.306550,612.876398
509.012172,4441.235652,9400.615463,1378.971896
509.012493,3701.029710,9548.656652,459.657299
509.012813,3256.906145,9326.594869,-842.705048
509.013134,3923.091493,8882.471304,0.000000
509.013455,4885.359217,9104.533087,0.000000
509.013775,4811.338623,9104.533087,766.095498
509.014096,5033.400406,9178.553681,306.438199
509.014417,4885.359217,8142.265362,-536.266849
509.014737,4885.359217,7846.182985,-689.485948
509.015058,4737.318029,7105.977043,-306.438199
509.015379,5625.565159,8068.244768,-459.657299
509.015699,5773.606348,8660.409521,-612.876398
509.016020,5625.565159,7772.162391,0.000000
509.016341,6957.935855,7920.203579,383.047749
509.016661,6587.832884,7698.141797,-383.047749
509.016982,5255.462188,7550.100608,-1455.581446
509.017303,6291.750507,7550.100608,-1532.190996
509.017623,5995.668130,8068.244768,-689.485948
509.017944,5107.421000,8142.265362,766.095498
509.018265,5551.544565,7328.038826,1149.143247
509.018585,4515.256246,7624.121203,-689.485948
509.018906,3997.112087,7105.977043,-1532.190996
509.019227,4959.379811,8216.285956,-689.485948
509.019547,5403.503377,8364.327145,0.000000
509.019868,4663.297435,7698.141797,153.219100
509.020189,4589.276840,7402.059420,612.876398
509.020509,3552.988522,7328.038826,76.609550
509.020830,3330.926739,7179.997637,0.000000
509.021151,4663.297435,8586.388927,-383.047749
509.021471,5625.565159,8956.491898,-536.266849
509.021792,4737.318029,8142.265362,-229.828649
509.022113,3923.091493,7328.038826,536.266849
509.022433,4367.215058,7698.141797,689.485948
509.022754,4071.132681,7624.121203,0.000000
509.023075,4219.173869,7772.162391,-995.924147
509.023395,6143.709319,8068.244768,-1685.410096
509.023716,5773.606348,8660.409521,-919.314598
509.024037,5773.606348,8438.347739,842.705048
509.024357,6069.688724,7402.059420,1149.143247
509.024678,4959.379811,7476.080014,-689.485948
509.024999,5181.441594,7328.038826,-995.924147
509.025319,6365.771101,7920.203579,-842.705048
509.025640,5847.626942,8142.265362,-1072.533697
509.025961,5329.482782,8364.327145,459.657299
509.026281,5107.421000,8068.244768,689.485948
509.026602,4811.338623,8068.244768,0.000000
509.026923,4811.338623,8142.265362,-153.219100
509.027243,4885.359217,8512.368333,-689.485948
509.027564,4441.235652,9400.615463,-1072.533697
509.027885,4145.153275,8956.491898,0.000000
509.028205,4589.276840,8734.430116,1455.581446
509.028526,6069.688724,7994.224174,1608.800546
509.028847,5551.544565,7105.977043,459.657299
509.029167,4959.379811,7550.100608,-1302.362347
509.029488,4737.318029,9622.677246,-1149.143247
509.029809,4663.297435,9326.594869,0.000000
509.030129,5033.400406,7772.162391,1149.143247
509.030450,7031.956449,6587.832884,689.485948
509.030771,5921.647536,7402.059420,-689.485948
509.031091,3923.091493,7920.203579,-1455.581446
509.031412,3997.112087,7846.182985,-1685.410096
509.031733,5329.482782,7994.224174,-919.314598
509.032053,5995.668130,6883.915261,612.876398
509.032374,6513.812290,7402.059420,1455.581446
509.032695,5255.462188,7550.100608,-766.095498
509.033015,3849.070898,8290.306550,-1991.848295
509.033336,4515.256246,9178.553681,-1608.800546
509.033657,5329.482782,8586.388927,-766.095498
509.033977,5255.462188,8586.388927,766.095498
509.034298,5181.441594,8660.409521,1225.752797
509.034619,4145.153275,8512.368333,-383.047749
509.034939,3182.885551,7846.182985,-1072.533697
509.035260,3775.050304,7920.203579,-1302.362347
509.035581,5033.400406,7846.182985,-153.219100
509.035901,4737.318029,8660.409521,536.266849
509.036222,3552.988522,8734.430116,1532.190996
509.036543,4071.132681,8142.265362,689.485948
509.036863,4589.276840,7550.100608,0.000000
509.037184,4441.235652,7328.038826,-536.266849
509.037505,4737.318029,7994.224174,-919.314598
509.037825,5847.626942,9326.594869,-306.438199
509.038146,5625.565159,9252.574275,842.705048
509.038467,5107.421000,8142.265362,766.095498
509.038787,5773.606348,7402.059420,306.438199
509.039108,5699.585753,7772.162391,-689.485948
509.039429,5033.400406,8512.368333,-1455.581446
509.039749,5921.647536,7772.162391,-612.876398
509.040070,6217.729913,7105.977043,383.047749
509.040391,4959.379811,7105.977043,536.266849
509.040711,4293.194464,6513.812290,0.000000
509.041032,5033.400406,7328.038826,-1455.581446
509.041353,5773.606348,8956.491898,-1991.848295
509.041673,5551.544565,9918.759623,-1685.410096
509.041994,5699.585753,9326.594869,-766.095498
509.042315,5847.626942,8216.285956,689.485948
509.042635,4441.235652,8364.327145,919.314598
509.042956,3923.091493,8586.388927,306.438199
509.043277,4515.256246,8586.388927,-1149.143247
509.043597,4145.153275,8808.450710,-1608.800546
509.043918,4071.132681,8882.471304,153.219100
509.044239,4441.235652,8956.491898,2451.505594
509.044559,4071.132681,8290.306550,1608.800546
509.044880,3256.906145,7846.182985,0.000000
509.045201,3923.091493,8142.265362,-536.266849
509.045521,3997.112087,8512.368333,-995.924147
509.045842,4145.153275,9030.512492,383.047749
509.046163,4811.338623,8734.430116,1762.019645
509.046483,5255.462188,8142.265362,1532.190996
509.046804,4959.379811,7920.203579,0.000000
509.047125,4737.318029,8438.347739,-1072.533697
509.047445,5551.544565,7476.080014,-1762.019645
509.047766,5329.482782,7105.977043,-1072.533697
509.048087,7031.956449,7031.956449,229.828649
509.048407,7031.956449,7105.977043,612.876398
509.048728,6143.709319,7105.977043,0.000000
509.049049,6291.750507,7550.100608,-1225.752797
509.049369,6587.832884,8660.409521,-1608.800546
509.049690,6069.688724,8586.388927,-766.095498
509.050011,5995.668130,8438.347739,536.266849
509.050331,5847.626942,7254.018232,383.047749
509.050652,5477.523971,6809.894666,-153.219100
509.050973,4367.215058,7105.977043,0.000000
509.051293,4515.256246,7254.018232,-536.266849
509.051614,4145.153275,7550.100608,-1149.143247
509.051935,3627.009116,8142.265362,-306.438199
509.052255,4885.359217,8586.388927,1072.533697
509.052576,4737.318029,7772.162391,919.314598
509.052897,4145.153275,6735.874072,229.828649
509.053217,4737.318029,7624.121203,-689.485948
509.053538,4737.318029,9770.718434,-536.266849
509.053859,4071.132681,9918.759623,0.000000
509.054179,5033.400406,9178.553681,229.828649
509.054500,7105.977043,8364.327145,229.828649
509.054821,4811.338623,7402.059420,-536.266849
509.055141,4071.132681,7031.956449,-919.314598
509.055462,4441.235652,7476.080014,-842.705048
509.055783,5033.400406,8216.285956,0.000000
509.056104,5107.421000,8142.265362,1608.800546
509.056424,5699.585753,8216.285956,612.876398
509.056745,4811.338623,7550.100608,-1762.019645
509.057066,4589.276840,8512.368333,-1915.238745
509.057386,5477.523971,9400.615463,-1149.143247
509.057707,6069.688724,8660.409521,-689.485948
509.058028,6143.709319,8290.306550,612.876398
509.058348,5477.523971,9030.512492,229.828649
509.058669,3404.947333,9474.636058,-842.705048
509.058990,3256.906145,8808.450710,-689.485948
509.059310,5329.482782,8660.409521,-919.314598
509.059631,5847.626942,8142.265362,-383.047749
509.059952,4811.338623,7698.141797,689.485948
509.060272,3923.091493,8216.285956,1072.533697
509.060593,2516.700203,8068.244768,-383.047749
509.060914,3034.844362,8216.285956,-536.266849
509.061234,4589.276840,8586.388927,-612.876398
509.061555,5329.482782,8734.430116,-612.876398
509.061876,5477.523971,9474.636058,689.485948
509.062196,4441.235652,10362.883188,1455.581446
509.062517,3330.926739,9474.636058,153.219100
509.062838,3701.029710,8216.285956,-995.924147
509.063158,4515.256246,7994.224174,-919.314598
509.063479,4737.318029,8068.244768,-766.095498
509.063800,4737.318029,7698.141797,536.266849
509.064120,5255.462188,7772.162391,1685.410096
509.064441,4959.379811,7698.141797,1072.533697
509.064762,4441.235652,7254.018232,536.266849
509.065082,5625.565159,7328.038826,-919.314598
509.065403,6513.812290,7624.121203,-1378.971896
509.065724,5847.626942,8068.244768,-612.876398
509.066044,6291.750507,7476.080014,153.219100
509.066365,6291.750507,7254.018232,842.705048
509.066686,4663.297435,7698.141797,-229.828649
509.067006,4293.194464,7698.141797,-1455.581446
509.067327,5551.544565,8216.285956,-1685.410096
509.067648,5995.668130,8956.491898,-689.485948
509.067968,5255.462188,8512.368333,1149.143247
509.068289,5403.503377,7105.977043,1149.143247
509.068610,4959.379811,6217.729913,153.219100
509.068930,4071.132681,6587.832884,153.219100
509.069251,4811.338623,8068.244768,-76.609550
509.069572,4885.359217,9252.574275,-1149.143247
509.069892,5107.421000,8586.388927,-229.828649
509.070213,5847.626942,7772.162391,1072.533697
509.070534,6143.709319,6883.915261,1608.800546
509.070854,5033.400406,7179.997637,76.609550
509.071175,4663.297435,7105.977043,-1455.581446
509.071496,4145.153275,7476.080014,-2298.286494
509.071816,5033.400406,8216.285956,-612.876398
509.072137,6587.832884,8660.409521,1532.190996
509.072458,6365.771101,7994.224174,1532.190996
509.072778,5847.626942,8216.285956,0.000000
509.073099,5255.462188,7994.224174,-2221.676944
509.073420,5033.400406,7698.141797,-2451.505594
509.073740,5477.523971,7254.018232,306.438199
509.074061,6069.688724,7105.977043,1685.410096
509.074382,5773.606348,8290.306550,1532.190996
509.074702,4959.379811,8586.388927,689.485948
509.075023,4885.359217,8734.430116,-1149.143247
509.075344,5181.441594,8438.347739,-1915.238745
509.075664,5477.523971,7328.038826,-229.828649
509.075985,4737.318029,7031.956449,1302.362347
509.076306,4589.276840,6957.935855,1532.190996
509.076626,4441.235652,8438.347739,459.657299
509.076947,4071.132681,9326.594869,-612.876398
509.077268,4515.256246,9104.533087,-1915.238745
509.077588,6217.729913,9844.739029,-995.924147
509.077909,5477.523971,9474.636058,536.266849
509.078230,3256.906145,8290.306550,995.924147
509.078550,3256.906145,6957.935855,0.000000
509.078871,3849.070898,7328.038826,-919.314598
509.079192,4145.153275,8364.327145,-1072.533697
509.079512,5033.400406,9474.636058,-383.047749
509.079833,5255.462188,9104.533087,-1072.533697
509.080154,5255.462188,7994.224174,0.000000
509.080474,5625.565159,7624.121203,1532.190996
509.080795,4737.318029,7105.977043,612.876398
509.081116,5477.523971,7328.038826,-919.314598
509.081436,5403.503377,8586.388927,-2528.115143
509.081757,5773.606348,9844.739029,-2068.457845
509.082078,5403.503377,9104.533087,229.828649
509.082398,5551.544565,8734.430116,842.705048
509.082719,5107.421000,8438.347739,0.000000
509.083040,4293.194464,7624.121203,-766.095498
509.083360,4145.153275,7254.018232,-1532.190996
509.083681,4145.153275,8586.388927,-995.924147
509.084002,4441.235652,8364.327145,1685.410096
509.084322,4293.194464,7994.224174,2221.676944
509.084643,4145.153275,7402.059420,1225.752797
509.084964,4441.235652,8290.306550,306.438199
509.085284,4959.379811,9326.594869,-383.047749
509.085605,4515.256246,8364.327145,-842.705048
509.085926,4959.379811,7772.162391,-229.828649
509.086246,5551.544565,7550.100608,766.095498
509.086567,4811.338623,7105.977043,995.924147
509.086888,4737.318029,7105.977043,-229.828649
509.087208,5403.503377,7698.141797,-689.485948
509.087529,4737.318029,8290.306550,-919.314598
509.087850,4737.318029,7624.121203,-229.828649
509.088170,6069.688724,6957.935855,0.000000
509.088491,6809.894666,6365.771101,229.828649
509.088812,5625.565159,6217.729913,-229.828649
509.089132,5995.668130,7031.956449,-766.095498
509.089453,6513.812290,8438.347739,-1302.362347
509.089774,5033.400406,8438.347739,-536.266849
509.090094,5995.668130,7994.224174,0.000000
509.090415,7179.997637,7698.141797,76.609550
509.090736,5255.462188,7550.100608,0.000000
509.091056,4959.379811,7402.059420,-995.924147
509.091377,5033.400406,6883.915261,-1838.629195
509.091698,4737.318029,7846.182985,-995.924147
509.092018,4367.215058,9030.512492,1225.752797
509.092339,3923.091493,8956.491898,1149.143247
509.092660,4145.153275,8364.327145,0.000000
509.092980,4959.379811,8808.450710,76.609550
509.093301,4811.338623,8734.430116,612.876398
509.093622,4737.318029,9400.615463,0.000000
509.093942,3849.070898,9252.574275,689.485948
509.094263,3701.029710,9548.656652,842.705048
509.094584,3478.967927,8882.471304,919.314598
509.094904,3849.070898,7476.080014,689.485948
509.095225,4811.338623,8290.306550,229.828649
509.095546,5107.421000,8586.388927,0.000000
509.095866,4441.235652,8290.306550,-459.657299
509.096187,5107.421000,8290.306550,383.047749
509.096508,5255.462188,8660.409521,0.000000
509.096828,5181.441594,7624.121203,-306.438199
509.097149,6143.709319,7550.100608,-919.314598
509.097470,6513.812290,8364.327145,-1072.533697
509.097790,5773.606348,8586.388927,-459.657299
509.098111,5773.606348,7994.224174,689.485948
509.098432,5847.626942,7402.059420,-383.047749
509.098752,6143.709319,7105.977043,-995.924147
509.099073,6069.688724,7105.977043,-995.924147
509.099394,5625.565159,6439.791695,-1608.800546
509.099714,5181.441594,6661.853478,-1378.971896
509.100035,5847.626942,7846.182985,306.438199
509.100356,4885.359217,7994.224174,689.485948
509.100677,4811.338623,7254.018232,-536.266849
509.100997,6513.812290,7476.080014,-842.705048
509.101318,5107.421000,8364.327145,-1991.848295
509.101639,4145.153275,7846.182985,-1225.752797
509.101959,4959.379811,7994.224174,689.485948
509.102280,5551.544565,8290.306550,1225.752797
509.102601,4293.194464,8142.265362,919.314598
509.102921,4293.194464,8290.306550,0.000000
509.103242,3849.070898,7994.224174,-1608.800546
509.103563,4219.173869,8882.471304,0.000000
509.103883,4589.276840,8216.285956,1455.581446
509.104204,5551.544565,7402.059420,842.705048
509.104525,5699.585753,7328.038826,-306.438199
509.104845,4885.359217,7994.224174,-995.924147
509.105166,4737.318029,8956.491898,-1302.362347
509.105487,5403.503377,8734.430116,-612.876398
509.105807,6439.791695,8512.368333,306.438199
509.106128,8364.327145,8808.450710,1532.190996
509.106449,8142.265362,7698.141797,1225.752797
509.106769,6735.874072,6513.812290,-612.876398
509.107090,7179.997637,5033.400406,-1915.238745
509.107410,8290.306550,4145.153275,-1302.362347
509.107731,8586.388927,3997.112087,0.000000
509.108052,9844.739029,4441.235652,842.705048
509.108372,11029.068536,5773.606348,766.095498
509.108693,10584.944971,6735.874072,-612.876398
509.109013,9030.512492,5625.565159,-1991.848295
509.109334,9622.677246,4737.318029,-2374.896044
509.109654,11029.068536,4885.359217,-689.485948
509.109975,10510.924376,6365.771101,995.924147
509.110296,9622.677246,6661.853478,383.047749
509.110616,8734.430116,6069.688724,-1149.143247
509.110937,7402.059420,5773.606348,-1455.581446
509.111257,6957.935855,4885.359217,-612.876398
509.111578,7031.956449,4959.379811,306.438199
509.111899,7105.977043,4959.379811,306.438199
509.112219,7550.100608,6069.688724,842.705048
509.112540,7105.977043,6957.935855,1378.971896
509.112860,6143.709319,7105.977043,76.609550
509.113181,6365.771101,6883.915261,-536.266849
509.113501,7772.162391,7402.059420,-459.657299
509.113822,7994.224174,7846.182985,536.266849
509.114143,8068.244768,7031.956449,1149.143247
509.114463,9030.512492,6587.832884,459.657299
509.114784,8290.306550,5773.606348,153.219100
509.115104,8364.327145,5033.400406,-229.828649
509.115425,10214.842000,4589.276840,153.219100
509.115745,11325.150913,3775.050304,-229.828649
509.116066,11547.212695,3997.112087,459.657299
509.116387,11917.315666,4145.153275,842.705048
509.116707,11177.109724,4589.276840,306.438199
509.117028,10955.047942,4885.359217,-383.047749
509.117348,11547.212695,4367.215058,-1149.143247
509.117669,10288.862594,3552.988522,-1838.629195
509.117989,10732.986159,3775.050304,-1455.581446
509.118310,10881.027347,5477.523971,-383.047749
509.118631,10658.965565,8216.285956,-383.047749
509.118951,10140.821405,9400.615463,-1072.533697
509.119272,9400.615463,8290.306550,-1302.362347
509.119592,7994.224174,5995.668130,-612.876398
509.119913,6513.812290,3701.029710,1915.238745
509.120233,5699.585753,2442.679609,2451.505594
509.120554,6957.935855,3256.906145,842.705048
509.120875,8068.244768,4441.235652,-536.266849
509.121195,9104.533087,6439.791695,-766.095498
509.121516,9548.656652,7476.080014,-306.438199
509.121836,9474.636058,7105.977043,612.876398
509.122157,9474.636058,5995.668130,1455.581446
509.122478,9326.594869,4663.297435,1455.581446
509.122798,9474.636058,3849.070898,0.000000
509.123119,9474.636058,3775.050304,-1149.143247
509.123439,9992.780217,4219.173869,-1532.190996
509.123760,10732.986159,6143.709319,-995.924147
509.124080,11029.068536,6661.853478,-1455.581446
509.124401,11029.068536,7105.977043,-1608.800546
509.124722,10955.047942,7105.977043,-919.314598
509.125042,9400.615463,5033.400406,383.047749
509.125363,8512.368333,3775.050304,1762.019645
509.125683,7624.121203,3997.112087,1455.581446
509.126004,6809.894666,4885.359217,0.000000
509.126324,7031.956449,6587.832884,-1532.190996
509.126645,7846.182985,6957.935855,-1685.410096
509.126966,9104.533087,7105.977043,-1072.533697
509.127286,8882.471304,7328.038826,-306.438199
509.127607,8734.430116,6957.935855,0.000000
509.127927,7254.018232,5995.668130,536.266849
509.128248,7179.997637,5033.400406,1149.143247
509.128568,7994.224174,5329.482782,2221.676944
509.128889,8586.388927,5921.647536,1072.533697
509.129210,8734.430116,6439.791695,-689.485948
509.129530,9918.759623,6513.812290,-2221.676944
509.129851,9918.759623,5847.626942,-2068.457845
509.130171,9400.615463,4441.235652,-766.095498
509.130492,9622.677246,3923.091493,689.485948
509.130812,9622.677246,4959.379811,1685.410096
509.131133,8882.471304,6439.791695,1378.971896
509.131454,9178.553681,6957.935855,153.219100
509.131774,10510.924376,5921.647536,-842.705048
509.132095,10510.924376,5551.544565,-459.657299
509.132415,9474.636058,5995.668130,153.219100
509.132736,8808.450710,6365.771101,-536.266849
509.133057,8586.388927,6143.709319,-842.705048
509.133377,8364.327145,5551.544565,-306.438199
509.133698,8660.409521,4737.318029,153.219100
509.134018,8364.327145,4071.132681,1302.362347
509.134339,7624.121203,3552.988522,995.924147
509.134659,8438.347739,3552.988522,612.876398
509.134980,9474.636058,3701.029710,76.609550
509.135301,10436.903782,3923.091493,-766.095498
509.135621,10584.944971,5033.400406,-766.095498
509.135942,10584.944971,6217.729913,-1608.800546
509.136262,11103.089130,7105.977043,-1378.971896
509.136583,11695.253884,7328.038826,-1378.971896
509.136903,11251.130318,6513.812290,-689.485948
509.137224,10436.903782,5329.482782,-383.047749
509.137545,9178.553681,4441.235652,536.266849
509.137865,9178.553681,3923.091493,1302.362347
509.138186,9400.615463,4219.173869,2221.676944
509.138506,9030.512492,4145.153275,1685.410096
509.138827,8956.491898,4663.297435,612.876398
509.139147,8512.368333,4071.132681,0.000000
509.139468,8216.285956,3997.112087,-153.219100
509.139789,9252.574275,4293.194464,-612.876398
509.140109,9548.656652,5551.544565,-1302.362347
509.140430,10584.944971,7179.997637,-1991.848295
509.140750,10955.047942,8142.265362,-1685.410096
509.141071,10955.047942,8290.306550,-612.876398
509.141391,9992.780217,7994.224174,383.047749
509.141712,9992.780217,6513.812290,766.095498
509.142033,8956.491898,5181.441594,689.485948
509.142353,8512.368333,3923.091493,689.485948
509.142674,8364.327145,2812.782580,766.095498
509.142994,8734.430116,2220.617826,842.705048
509.143315,9252.574275,2590.720797,612.876398
509.143635,9400.615463,4885.359217,0.000000
509.143956,9770.718434,7698.141797,-459.657299
509.144277,9770.718434,9178.553681,612.876398
509.144597,9178.553681,8882.471304,919.314598
509.144918,8512.368333,7994.224174,1378.971896
509.145238,7179.997637,8216.285956,842.705048
509.145559,5847.626942,7772.162391,229.828649
509.145880,5033.400406,7105.977043,-919.314598
509.146200,5107.421000,6143.709319,-919.314598
509.146521,5551.544565,5625.565159,0.000000
509.146841,5255.462188,6365.771101,995.924147
509.147162,4663.297435,7920.203579,1455.581446
509.147482,4885.359217,9770.718434,2068.457845
509.147803,6365.771101,9992.780217,2681.334243
509.148124,6957.935855,9548.656652,3600.648841
509.148444,6957.935855,8512.368333,4290.134789
509.148765,5995.668130,7698.141797,3064.381992
509.149085,5329.482782,7994.224174,2298.286494
509.149406,6365.771101,7920.203579,2068.457845
509.149726,6439.791695,8808.450710,2757.943793
509.150047,7402.059420,8734.430116,3294.210641
509.150368,6883.915261,8586.388927,3830.477490
509.150688,5773.606348,8512.368333,4596.572988
509.151009,6365.771101,7624.121203,5286.058936
509.151329,6587.832884,7179.997637,4366.744339
509.151650,7328.038826,6883.915261,4519.963438
509.151970,7328.038826,7624.121203,4826.401637
509.152291,7476.080014,8290.306550,5132.839837
509.152612,7920.203579,9104.533087,5745.716235
509.152932,7031.956449,9400.615463,6894.859482
509.153253,6735.874072,8586.388927,7124.688131
509.153573,6957.935855,7994.224174,7124.688131
509.153894,6513.812290,6957.935855,5822.325785
509.154214,6069.688724,5699.585753,6588.421283
509.154535,5699.585753,4737.318029,7124.688131
509.154856,5921.647536,5625.565159,7201.297681
509.155176,6217.729913,7254.018232,7201.297681
509.155497,5847.626942,8438.347739,6205.373534
509.155817,5773.606348,8290.306550,6588.421283
509.156138,5551.544565,8216.285956,7277.907231
509.156459,5181.441594,7105.977043,8044.002729
509.156779,4589.276840,6143.709319,8503.660028
509.157100,3923.091493,5255.462188,8044.002729
509.157420,3034.844362,5921.647536,7201.297681
509.157741,2220.617826,5403.503377,6205.373534
509.158061,2664.741391,5625.565159,5975.544884
509.158382,3256.906145,5847.626942,6128.763984
509.158703,3552.988522,6439.791695,6665.030833
509.159023,4219.173869,7179.997637,6741.640382
509.159344,3552.988522,7550.100608,6358.592633
509.159664,3775.050304,7476.080014,6588.421283
509.159985,3997.112087,7846.182985,6818.249932
509.160305,3701.029710,7550.100608,6358.592633
509.160626,3997.112087,6809.894666,5439.278036
509.160947,3701.029710,5995.668130,4749.792088
509.161267,3552.988522,5255.462188,4903.011187
509.161588,3330.926739,4589.276840,4749.792088
509.161908,2516.700203,4293.194464,3907.087040
509.162229,2812.782580,4367.215058,2451.505594
509.162549,4441.235652,5773.606348,2528.115143
509.162870,5551.544565,7624.121203,3524.039291
509.163191,6291.750507,9104.533087,3294.210641
509.163511,6809.894666,10732.986159,3907.087040
509.163832,7105.977043,11473.192101,3140.991542
509.164152,7179.997637,11029.068536,3983.696590
509.164473,6883.915261,9696.697840,5669.106685
509.164793,5625.565159,9400.615463,5669.106685
509.165114,4885.359217,9252.574275,5592.497135
509.165435,4367.215058,8068.244768,6358.592633
509.165755,3256.906145,5995.668130,4749.792088
509.166076,2442.679609,3182.885551,3217.601092
509.166396,3256.906145,1924.535449,1762.019645
509.166717,4737.318029,3478.967927,919.314598
509.167038,6291.750507,7772.162391,0.000000
509.167358,8438.347739,12583.501014,-995.924147
