#time,accel_x,accel_y,accel_z
86.077143,3256.906145,11103.089130,2911.162892
86.077464,3701.029710,8290.306550,4366.744339
86.077785,4145.153275,5995.668130,4366.744339
86.078105,3404.947333,5995.668130,3983.696590
86.078426,1628.453072,7402.059420,1838.629195
86.078747,2368.659014,8364.327145,-383.047749
86.079068,3256.906145,9252.574275,-689.485948
86.079389,3108.864956,9474.636058,1072.533697
86.079709,3478.967927,8808.450710,3064.381992
86.080030,4219.173869,9326.594869,3370.820191
86.080351,2960.823768,11843.295072,2528.115143
86.080672,1850.514855,12953.603985,2145.067394
86.080992,2294.638420,11547.212695,1455.581446
86.081313,3552.988522,8586.388927,766.095498
86.081634,2812.782580,6661.853478,2374.896044
86.081955,2590.720797,7105.977043,3370.820191
86.082276,962.267725,8290.306550,1685.410096
86.082596,222.061783,10140.821405,153.219100
86.082917,0.000000,10881.027347,306.438199
86.083238,-592.164754,9770.718434,612.876398
86.083559,148.041188,9104.533087,2068.457845
86.083879,1850.514855,10807.006753,3677.258390
86.084200,814.226536,13471.748144,2145.067394
86.084521,148.041188,14508.036463,0.000000
86.084842,0.000000,14211.954086,-1378.971896
86.085163,0.000000,13101.645173,-766.095498
86.085483,0.000000,11843.295072,1378.971896
86.085804,148.041188,9918.759623,2374.896044
86.086125,370.102971,10584.944971,2528.115143
86.086446,-1554.432478,11769.274478,2221.676944
86.086766,-2220.617826,11473.192101,0.000000
86.087087,-2442.679609,9992.780217,-383.047749
86.087408,-2146.597232,9178.553681,1302.362347
86.087729,-814.226536,9622.677246,2298.286494
86.088050,0.000000,11325.150913,2298.286494
86.088370,296.082377,14137.933492,995.924147
86.088691,-148.041188,15618.345376,0.000000
86.089012,0.000000,13915.871710,-919.314598
86.089333,1184.329507,11547.212695,-919.314598
86.089653,518.144159,9474.636058,-612.876398
86.089974,296.082377,8364.327145,0.000000
86.090295,518.144159,9696.697840,766.095498
86.090616,-518.144159,11843.295072,383.047749
86.090937,-1554.432478,13397.727550,-1149.143247
86.091257,-370.102971,13249.686362,-1072.533697
86.091578,444.123565,11547.212695,0.000000
86.091899,0.000000,10362.883188,1455.581446
86.092220,-222.061783,9178.553681,2298.286494
86.092540,-370.102971,8882.471304,1915.238745
86.092861,0.000000,10140.821405,995.924147
86.093182,592.164754,10955.047942,76.609550
86.093503,1258.350101,10510.924376,-1225.752797
86.093824,2368.659014,9844.739029,-2528.115143
86.094144,2664.741391,9622.677246,-1378.971896
86.094465,2886.803174,10140.821405,842.705048
86.094786,2738.761985,10214.842000,1302.362347
86.095107,2146.597232,9474.636058,-766.095498
86.095427,2590.720797,9474.636058,-2221.676944
86.095748,3404.947333,9104.533087,-1378.971896
86.096069,3701.029710,9178.553681,-306.438199
86.096390,4441.235652,8290.306550,536.266849
86.096711,5329.482782,8290.306550,383.047749
86.097031,5551.544565,9030.512492,-76.609550
86.097352,4663.297435,9104.533087,-919.314598
86.097673,4145.153275,8438.347739,-1225.752797
86.097994,5033.400406,7402.059420,-612.876398
86.098314,5255.462188,7254.018232,1302.362347
86.098635,5551.544565,8068.244768,1838.629195
86.098956,4737.318029,9622.677246,153.219100
86.099277,3775.050304,10362.883188,-2374.896044
86.099598,2146.597232,9474.636058,-2528.115143
86.099918,2516.700203,7328.038826,-2221.676944
86.100239,3108.864956,6291.750507,0.000000
86.100560,3552.988522,8290.306550,1302.362347
86.100881,3775.050304,11473.192101,1149.143247
86.101201,3330.926739,13027.624579,229.828649
86.101522,3256.906145,12139.377449,-383.047749
86.101843,4219.173869,10066.800811,766.095498
86.102164,4441.235652,8290.306550,919.314598
86.102485,3404.947333,7920.203579,919.314598
86.102805,2960.823768,8438.347739,306.438199
86.103126,3849.070898,8290.306550,0.000000
86.103447,4293.194464,7476.080014,-536.266849
86.103768,3775.050304,5551.544565,-1378.971896
86.104089,3775.050304,4737.318029,-1608.800546
86.104409,3997.112087,5847.626942,-306.438199
86.104730,5477.523971,7550.100608,76.609550
86.105051,6513.812290,9326.594869,-842.705048
86.105372,6661.853478,10881.027347,-2451.505594
86.105692,6513.812290,11399.171507,-3447.429741
86.106013,6291.750507,11399.171507,-2987.772442
86.106334,5551.544565,9622.677246,-1685.410096
86.106655,5403.503377,8438.347739,-612.876398
86.106976,4811.338623,8290.306550,-383.047749
86.107296,4219.173869,9326.594869,153.219100
86.107617,3182.885551,8068.244768,612.876398
86.107938,2294.638420,6809.894666,0.000000
86.108259,2220.617826,5033.400406,-229.828649
86.108579,2664.741391,4515.256246,1532.190996
86.108900,3923.091493,6143.709319,2604.724693
86.109221,3923.091493,7994.224174,2451.505594
86.109542,4737.318029,9548.656652,919.314598
86.109863,5625.565159,10436.903782,-1225.752797
86.110183,5847.626942,10140.821405,-1915.238745
86.110504,5921.647536,10066.800811,-383.047749
86.110825,6735.874072,9770.718434,-995.924147
86.111146,7031.956449,9178.553681,-1991.848295
86.111466,7105.977043,8142.265362,-1838.629195
86.111787,5847.626942,6587.832884,-1838.629195
86.112108,5033.400406,5403.503377,-2451.505594
86.112429,3775.050304,4145.153275,-1838.629195
86.112750,5033.400406,3701.029710,0.000000
86.113070,6439.791695,4663.297435,1532.190996
86.113391,6587.832884,7179.997637,995.924147
86.113712,6217.729913,9252.574275,-1225.752797
86.114033,5551.544565,10510.924376,-3217.601092
86.114353,5107.421000,10658.965565,-2528.115143
86.114674,5477.523971,9918.759623,-1149.143247
86.114995,5699.585753,8956.491898,-689.485948
86.115316,5107.421000,9252.574275,-919.314598
86.115637,2886.803174,10510.924376,-1455.581446
86.115957,1332.370696,10066.800811,-1302.362347
86.116278,1184.329507,8438.347739,-842.705048
86.116599,1406.391290,6661.853478,306.438199
86.116920,1998.556043,6143.709319,1225.752797
86.117240,2812.782580,6217.729913,689.485948
86.117561,3404.947333,7920.203579,766.095498
86.117882,3627.009116,10140.821405,0.000000
86.118203,4515.256246,11325.150913,-1149.143247
86.118524,5551.544565,11399.171507,-1072.533697
86.118844,6957.935855,9770.718434,-995.924147
86.119165,7772.162391,9326.594869,-766.095498
86.119486,7402.059420,8808.450710,-1149.143247
86.119807,6439.791695,7550.100608,-2298.286494
86.120127,5699.585753,7105.977043,-2068.457845
86.120448,5403.503377,5773.606348,-1532.190996
86.120769,5033.400406,4441.235652,-1378.971896
86.121090,5181.441594,3849.070898,-1685.410096
86.121411,6957.935855,5551.544565,-1762.019645
86.121731,6587.832884,8734.430116,-1225.752797
86.122052,5551.544565,11399.171507,-2221.676944
86.122373,5551.544565,12657.521608,-3370.820191
86.122694,6143.709319,12509.480420,-2757.943793
86.123014,4737.318029,11621.233289,-1762.019645
86.123335,3108.864956,10658.965565,-1225.752797
86.123656,2368.659014,8660.409521,-1455.581446
86.123977,2072.576638,8586.388927,306.438199
86.124298,518.144159,8438.347739,2528.115143
86.124618,-1184.329507,8216.285956,1762.019645
86.124939,0.000000,7994.224174,536.266849
86.125260,1258.350101,8660.409521,1072.533697
86.125581,1110.308913,8142.265362,1072.533697
86.125901,2812.782580,8586.388927,842.705048
86.126222,4219.173869,10066.800811,459.657299
86.126543,4441.235652,11917.315666,153.219100
86.126864,4885.359217,11843.295072,-612.876398
86.127185,5477.523971,10214.842000,-2528.115143
86.127505,6957.935855,8142.265362,-3140.991542
86.127826,6291.750507,5995.668130,-919.314598
86.128147,8290.306550,5107.421000,1608.800546
86.128468,5847.626942,5329.482782,459.657299
86.128789,6291.750507,6365.771101,-612.876398
86.129109,6957.935855,5995.668130,-1608.800546
86.129430,8364.327145,4515.256246,-2528.115143
86.129751,8586.388927,2368.659014,-1608.800546
86.130072,9918.759623,3330.926739,459.657299
86.130392,10288.862594,6587.832884,306.438199
86.130713,9474.636058,10288.862594,-1455.581446
86.131034,8216.285956,10807.006753,-2911.162892
86.131355,7994.224174,8660.409521,-4443.353888
86.131676,7328.038826,5107.421000,-2221.676944
86.131996,6217.729913,2072.576638,1302.362347
86.132317,5625.565159,3552.988522,2911.162892
86.132638,3034.844362,5995.668130,2221.676944
86.132959,2220.617826,9252.574275,0.000000
86.133279,3849.070898,9474.636058,-919.314598
86.133600,4811.338623,9104.533087,-383.047749
86.133921,2812.782580,6957.935855,766.095498
86.134242,4367.215058,6439.791695,1762.019645
86.134563,5477.523971,8808.450710,2145.067394
86.134883,4737.318029,11843.295072,919.314598
86.135204,4219.173869,11695.253884,-919.314598
86.135525,4811.338623,10066.800811,-3140.991542
86.135846,3775.050304,6809.894666,-2145.067394
86.136166,3775.050304,4737.318029,1532.190996
86.136487,6069.688724,5625.565159,4366.744339
86.136808,3108.864956,7698.141797,1378.971896
86.137129,3330.926739,10066.800811,-919.314598
86.137450,5181.441594,10214.842000,-2451.505594
86.137770,5181.441594,8068.244768,-2604.724693
86.138091,5551.544565,5921.647536,-383.047749
86.138412,8364.327145,7328.038826,1455.581446
86.138733,7476.080014,11029.068536,-383.047749
86.139053,5773.606348,13397.727550,-2528.115143
86.139374,5403.503377,11769.274478,-4290.134789
86.139695,5995.668130,8068.244768,-4903.011187
86.140016,4145.153275,4293.194464,-1378.971896
86.140337,2960.823768,3034.844362,2451.505594
86.140657,2960.823768,5181.441594,2834.553343
86.140978,1406.391290,9326.594869,1072.533697
86.141299,2664.741391,12287.418637,536.266849
86.141620,3552.988522,11843.295072,-1072.533697
86.141940,2442.679609,8364.327145,-1532.190996
86.142261,2516.700203,6587.832884,0.000000
86.142582,4663.297435,7254.018232,2374.896044
86.142903,4441.235652,10881.027347,1225.752797
86.143224,4367.215058,12287.418637,-1685.410096
86.143544,4367.215058,10510.924376,-3524.039291
86.143865,5477.523971,7698.141797,-2451.505594
86.144186,3997.112087,4737.318029,919.314598
86.144507,5699.585753,4145.153275,3830.477490
86.144827,4589.276840,6439.791695,2681.334243
86.145148,4885.359217,9252.574275,766.095498
86.145469,5477.523971,9770.718434,-1378.971896
86.145790,7105.977043,7402.059420,-3064.381992
86.146111,6883.915261,3701.029710,-1915.238745
86.146431,9326.594869,4293.194464,1378.971896
86.146752,9400.615463,8438.347739,1608.800546
86.147073,8734.430116,11325.150913,-1225.752797
86.147394,8512.368333,11547.212695,-3064.381992
86.147715,8586.388927,7920.203579,-3217.601092
86.148035,7698.141797,3627.009116,153.219100
86.148356,7994.224174,2442.679609,3830.477490
86.148677,5329.482782,3775.050304,2604.724693
86.148998,4367.215058,7698.141797,459.657299
86.149318,5551.544565,9400.615463,153.219100
86.149639,7105.977043,9252.574275,229.828649
86.149960,4885.359217,6291.750507,-536.266849
86.150281,5921.647536,5699.585753,689.485948
86.150602,7550.100608,7624.121203,2604.724693
86.150922,5847.626942,10955.047942,1838.629195
86.151243,5033.400406,10955.047942,1225.752797
86.151564,5995.668130,8882.471304,-1072.533697
86.151885,5477.523971,5773.606348,-1532.190996
86.152205,4367.215058,4737.318029,2528.115143
86.152526,4737.318029,5329.482782,4136.915689
86.152847,2886.803174,7624.121203,1455.581446
86.153168,3256.906145,9992.780217,612.876398
86.153489,4145.153275,9992.780217,612.876398
86.153809,2590.720797,7624.121203,-919.314598
86.154130,3034.844362,5403.503377,-306.438199
86.154451,5699.585753,6957.935855,2068.457845
86.154772,6365.771101,10881.027347,1991.848295
86.155092,5033.400406,12805.562797,689.485948
86.155413,4441.235652,11547.212695,-2451.505594
86.155734,5181.441594,8586.388927,-3524.039291
86.156055,4737.318029,5033.400406,76.609550
86.156376,5403.503377,3997.112087,3064.381992
86.156696,3108.864956,5477.523971,1915.238745
86.157017,2812.782580,8956.491898,-306.438199
86.157338,3552.988522,10436.903782,-153.219100
86.157659,3849.070898,9030.512492,0.000000
86.157979,3330.926739,6439.791695,-229.828649
86.158300,4441.235652,6365.771101,689.485948
86.158621,5477.523971,9770.718434,1378.971896
86.158942,5403.503377,12435.459826,689.485948
86.159263,4145.153275,11843.295072,-612.876398
86.159583,4811.338623,9474.636058,-1991.848295
86.159904,5551.544565,6513.812290,-1149.143247
86.160225,5033.400406,5329.482782,1072.533697
86.160546,4663.297435,5921.647536,2221.676944
86.160866,3256.906145,7846.182985,1149.143247
86.161187,3923.091493,9622.677246,153.219100
86.161508,4441.235652,9252.574275,689.485948
86.161829,4219.173869,7476.080014,76.609550
86.162150,4219.173869,6069.688724,-229.828649
86.162470,6365.771101,7476.080014,1378.971896
86.162791,6365.771101,10658.965565,536.266849
86.163112,5477.523971,11917.315666,-229.828649
86.163433,5773.606348,10955.047942,-1302.362347
86.163753,7328.038826,7846.182985,-2298.286494
86.164074,6291.750507,5255.462188,76.609550
86.164395,6217.729913,4515.256246,2451.505594
86.164716,5033.400406,5921.647536,1532.190996
86.165037,5847.626942,7846.182985,0.000000
86.165357,5625.565159,8586.388927,0.000000
86.165678,5995.668130,6439.791695,-1225.752797
86.165999,6513.812290,4219.173869,-689.485948
86.166320,7698.141797,5033.400406,1149.143247
86.166641,7550.100608,8512.368333,1302.362347
86.166961,6661.853478,10436.903782,-153.219100
86.167282,6587.832884,9770.718434,-1838.629195
86.167603,7920.203579,8142.265362,-2374.896044
86.167924,7328.038826,5847.626942,-459.657299
86.168244,6439.791695,4737.318029,2298.286494
86.168565,4071.132681,5551.544565,1072.533697
86.168886,3923.091493,7772.162391,0.000000
86.169207,4293.194464,8734.430116,306.438199
86.169528,5033.400406,7624.121203,612.876398
86.169848,4293.194464,5699.585753,536.266849
86.170169,4293.194464,6069.688724,766.095498
86.170490,4737.318029,9252.574275,1302.362347
86.170811,4293.194464,11547.212695,229.828649
86.171131,4515.256246,11621.233289,-383.047749
86.171452,5403.503377,9918.759623,-1455.581446
86.171773,5329.482782,8216.285956,-1302.362347
86.172094,3923.091493,6809.894666,766.095498
86.172415,3182.885551,6957.935855,1532.190996
86.172735,2368.659014,8438.347739,612.876398
86.173056,2960.823768,9696.697840,536.266849
86.173377,3627.009116,9400.615463,766.095498
86.173698,2960.823768,7624.121203,-689.485948
86.174018,3256.906145,6735.874072,-689.485948
86.174339,4737.318029,8586.388927,689.485948
86.174660,4959.379811,11399.171507,1838.629195
86.174981,4589.276840,12287.418637,229.828649
86.175302,4959.379811,11917.315666,-995.924147
86.175622,5403.503377,9844.739029,-1685.410096
86.175943,4515.256246,6883.915261,-1072.533697
86.176264,4663.297435,5329.482782,1302.362347
86.176585,3997.112087,5847.626942,1685.410096
86.176905,3182.885551,7994.224174,842.705048
86.177226,3849.070898,9326.594869,459.657299
86.177547,4737.318029,8364.327145,-612.876398
86.177868,3552.988522,6735.874072,-766.095498
86.178189,4589.276840,6661.853478,689.485948
86.178509,5773.606348,8290.306550,1762.019645
86.178830,5477.523971,10807.006753,689.485948
86.179151,5033.400406,11399.171507,-383.047749
86.179472,5773.606348,9844.739029,-1685.410096
86.179792,5921.647536,6735.874072,-2145.067394
86.180113,4959.379811,4811.338623,229.828649
86.180434,6069.688724,4885.359217,1762.019645
86.180755,4145.153275,6439.791695,536.266849
86.181076,4441.235652,7920.203579,153.219100
86.181396,5107.421000,8660.409521,0.000000
86.181717,4737.318029,7550.100608,-612.876398
86.182038,4145.153275,5551.544565,-76.609550
86.182359,6439.791695,6513.812290,1149.143247
86.182680,6217.729913,9474.636058,612.876398
86.183000,5107.421000,11029.068536,-306.438199
86.183321,5699.585753,10658.965565,-1302.362347
86.183642,6735.874072,9104.533087,-2451.505594
86.183963,5699.585753,6587.832884,-995.924147
86.184283,6069.688724,4737.318029,1762.019645
86.184604,4367.215058,5403.503377,842.705048
86.184925,4441.235652,8068.244768,0.000000
86.185246,4589.276840,9622.677246,0.000000
86.185567,4737.318029,8734.430116,-995.924147
86.185887,4515.256246,6291.750507,-1302.362347
86.186208,4959.379811,5995.668130,0.000000
86.186529,5551.544565,9178.553681,1072.533697
86.186850,4737.318029,11843.295072,153.219100
86.187170,4811.338623,11843.295072,-1455.581446
86.187491,5329.482782,10140.821405,-2145.067394
86.187812,5847.626942,7328.038826,-1685.410096
86.188133,4959.379811,5625.565159,229.828649
86.188454,3775.050304,5921.647536,383.047749
86.188774,2664.741391,7994.224174,-842.705048
86.189095,3627.009116,9474.636058,-842.705048
86.189416,4293.194464,9252.574275,-1532.190996
86.189737,3849.070898,7328.038826,-1455.581446
86.190057,4145.153275,7105.977043,0.000000
86.190378,4959.379811,8882.471304,919.314598
86.190699,3997.112087,11621.233289,459.657299
86.191020,3775.050304,12287.418637,-536.266849
86.191341,4811.338623,11547.212695,-1685.410096
86.191661,5551.544565,9474.636058,-1685.410096
86.191982,4589.276840,6439.791695,-689.485948
86.192303,4663.297435,5921.647536,536.266849
86.192624,3330.926739,6291.750507,-306.438199
86.192944,2960.823768,8290.306550,-612.876398
86.193265,3849.070898,9400.615463,0.000000
86.193586,4515.256246,8364.327145,-842.705048
86.193907,4515.256246,6957.935855,-919.314598
86.194228,5181.441594,7328.038826,0.000000
86.194548,5403.503377,9696.697840,76.609550
86.194869,4737.318029,11843.295072,-383.047749
86.195190,5255.462188,11843.295072,-1532.190996
86.195511,6291.750507,9474.636058,-2451.505594
86.195831,6143.709319,7031.956449,-1685.410096
86.196152,5107.421000,5625.565159,229.828649
86.196473,4071.132681,6143.709319,76.609550
86.196794,3997.112087,7328.038826,-306.438199
86.197115,4737.318029,8290.306550,0.000000
86.197435,4885.359217,7920.203579,-76.609550
86.197756,4367.215058,7031.956449,-536.266849
86.198077,4589.276840,6957.935855,0.000000
86.198398,4811.338623,8808.450710,842.705048
86.198718,5181.441594,10881.027347,995.924147
86.199039,4885.359217,10732.986159,-306.438199
86.199360,5255.462188,9400.615463,-1762.019645
86.199681,5699.585753,7846.182985,-1302.362347
86.200002,5477.523971,6883.915261,612.876398
86.200322,4441.235652,6735.874072,229.828649
86.200643,4589.276840,6587.832884,-842.705048
86.200964,4885.359217,7179.997637,-612.876398
86.201285,5477.523971,7550.100608,459.657299
86.201606,4737.318029,6069.688724,0.000000
86.201926,4737.318029,4293.194464,0.000000
86.202247,6365.771101,6291.750507,766.095498
86.202568,6735.874072,8808.450710,459.657299
86.202889,5773.606348,9918.759623,-612.876398
86.203209,7920.203579,9548.656652,-2068.457845
86.203530,8068.244768,8216.285956,-2298.286494
86.203851,7031.956449,7105.977043,-1991.848295
86.204172,5625.565159,5921.647536,-1302.362347
86.204493,4959.379811,6291.750507,-1532.190996
86.204813,4589.276840,7031.956449,-306.438199
86.205134,5181.441594,8142.265362,612.876398
86.205455,3997.112087,7254.018232,-842.705048
86.205776,3330.926739,7031.956449,-1991.848295
86.206096,4145.153275,8290.306550,-383.047749
86.206417,4589.276840,10066.800811,459.657299
86.206738,4071.132681,10288.862594,842.705048
86.207059,4737.318029,10584.944971,-766.095498
86.207380,4441.235652,9548.656652,-995.924147
86.207700,4441.235652,8956.491898,-153.219100
86.208021,3552.988522,9030.512492,-229.828649
86.208342,3256.906145,7624.121203,-766.095498
86.208663,4145.153275,7624.121203,-612.876398
86.208983,4589.276840,7772.162391,0.000000
86.209304,3478.967927,7105.977043,-459.657299
86.209625,3997.112087,6957.935855,-612.876398
86.209946,5403.503377,8216.285956,-229.828649
86.210267,5921.647536,9104.533087,-229.828649
86.210587,6143.709319,10288.862594,-153.219100
86.210908,6809.894666,10584.944971,-1302.362347
86.211229,6809.894666,10214.842000,-1991.848295
86.211550,6143.709319,9178.553681,-2145.067394
86.211870,5773.606348,7994.224174,-1072.533697
86.212191,4737.318029,7031.956449,-1991.848295
86.212512,4589.276840,7179.997637,-1072.533697
86.212833,4589.276840,7994.224174,383.047749
86.213154,3256.906145,8290.306550,153.219100
86.213474,2960.823768,7476.080014,-612.876398
86.213795,3330.926739,7105.977043,-306.438199
86.214116,3849.070898,7624.121203,459.657299
86.214437,4367.215058,9326.594869,995.924147
86.214757,4589.276840,10807.006753,153.219100
86.215078,5181.441594,11769.274478,-766.095498
86.215399,5181.441594,10140.821405,-689.485948
86.215720,5847.626942,8660.409521,229.828649
86.216041,4737.318029,7328.038826,612.876398
86.216361,4367.215058,7402.059420,459.657299
86.216682,4145.153275,6513.812290,536.266849
86.217003,4293.194464,6513.812290,536.266849
86.217324,4515.256246,5773.606348,229.828649
86.217644,4885.359217,5477.523971,612.876398
86.217965,5847.626942,6439.791695,995.924147
86.218286,5847.626942,7698.141797,1072.533697
86.218607,6143.709319,8956.491898,229.828649
86.218928,7105.977043,9400.615463,-1072.533697
86.219248,8216.285956,8660.409521,-1225.752797
86.219569,8216.285956,7254.018232,-612.876398
86.219890,6513.812290,6365.771101,-766.095498
86.220211,5699.585753,5995.668130,-995.924147
86.220532,5181.441594,6661.853478,-842.705048
86.220852,4959.379811,7031.956449,-153.219100
86.221173,4515.256246,6439.791695,0.000000
86.221494,4737.318029,6291.750507,76.609550
86.221815,4737.318029,6291.750507,229.828649
86.222135,4367.215058,6957.935855,766.095498
86.222456,4219.173869,8586.388927,1455.581446
86.222777,5033.400406,10288.862594,0.000000
86.223098,5329.482782,10584.944971,-612.876398
86.223418,5773.606348,9918.759623,-536.266849
86.223739,5625.565159,8068.244768,0.000000
86.224060,4441.235652,7105.977043,76.609550
86.224381,4367.215058,7328.038826,153.219100
86.224701,4145.153275,7179.997637,536.266849
86.225022,4071.132681,7402.059420,76.609550
86.225343,4441.235652,6957.935855,0.000000
86.225664,5255.462188,6735.874072,0.000000
86.225985,5773.606348,7179.997637,612.876398
86.226305,5699.585753,8068.244768,842.705048
86.226626,5699.585753,8364.327145,0.000000
86.226947,7105.977043,9844.739029,-1378.971896
86.227268,7698.141797,10362.883188,-1762.019645
86.227588,6883.915261,9474.636058,-1762.019645
86.227909,6143.709319,7994.224174,-2298.286494
86.228230,6069.688724,7550.100608,-1455.581446
86.228551,5033.400406,7031.956449,536.266849
86.228871,4515.256246,7031.956449,766.095498
86.229192,4441.235652,7105.977043,536.266849
86.229513,3997.112087,7254.018232,0.000000
86.229834,3849.070898,7846.182985,0.000000
86.230155,4663.297435,8438.347739,153.219100
86.230475,5329.482782,9326.594869,76.609550
86.230796,6291.750507,10658.965565,229.828649
86.231117,5625.565159,11251.130318,76.609550
86.231438,5329.482782,9474.636058,-612.876398
86.231758,5033.400406,8660.409521,-306.438199
86.232079,4663.297435,8216.285956,76.609550
86.232400,4441.235652,8068.244768,536.266849
86.232721,4071.132681,6957.935855,536.266849
86.233041,3701.029710,6883.915261,842.705048
86.233362,4219.173869,6809.894666,919.314598
86.233683,3849.070898,6513.812290,995.924147
86.234004,4663.297435,6957.935855,1302.362347
86.234324,5181.441594,7402.059420,689.485948
86.234645,6291.750507,9474.636058,229.828649
86.234966,7698.141797,10807.006753,-766.095498
86.235287,8142.265362,10214.842000,-1762.019645
86.235608,7550.100608,8808.450710,-1532.190996
86.235928,7179.997637,7254.018232,-536.266849
86.236249,4959.379811,5995.668130,0.000000
86.236570,4293.194464,5403.503377,689.485948
86.236891,4515.256246,5995.668130,1072.533697
86.237211,4441.235652,7772.162391,459.657299
86.237532,3849.070898,7254.018232,0.000000
86.237853,4663.297435,6809.894666,0.000000
86.238174,4589.276840,7550.100608,459.657299
86.238494,4293.194464,9178.553681,1302.362347
86.238815,4663.297435,10584.944971,919.314598
86.239136,5033.400406,10584.944971,-612.876398
86.239457,5033.400406,8882.471304,-383.047749
86.239778,5773.606348,7994.224174,536.266849
86.240098,4737.318029,7105.977043,1302.362347
86.240419,3330.926739,6809.894666,766.095498
86.240740,3478.967927,7031.956449,383.047749
86.241061,3256.906145,6735.874072,153.219100
86.241381,3552.988522,5847.626942,306.438199
86.241702,4811.338623,6069.688724,1455.581446
86.242023,5477.523971,6735.874072,1608.800546
86.242344,5551.544565,7994.224174,1455.581446
86.242664,6143.709319,9918.759623,153.219100
86.242985,7105.977043,10955.047942,-1838.629195
86.243306,8364.327145,9918.759623,-2374.896044
86.243627,7402.059420,7476.080014,-1608.800546
86.243948,7179.997637,5995.668130,-995.924147
86.244268,5847.626942,5847.626942,-229.828649
86.244589,4885.359217,6809.894666,459.657299
86.244910,4145.153275,8068.244768,612.876398
86.245231,3997.112087,7920.203579,-383.047749
86.245551,3478.967927,7105.977043,-229.828649
86.245872,4441.235652,6809.894666,306.438199
86.246193,4885.359217,7624.121203,612.876398
86.246514,4959.379811,10288.862594,229.828649
86.246834,4811.338623,11177.109724,-383.047749
86.247155,5773.606348,11399.171507,-1532.190996
86.247476,5847.626942,9252.574275,-383.047749
86.247797,5255.462188,6809.894666,919.314598
86.248117,5181.441594,6439.791695,1378.971896
86.248438,3997.112087,6809.894666,0.000000
86.248759,3701.029710,7328.038826,-153.219100
86.249080,4441.235652,7402.059420,0.000000
86.249401,4959.379811,7031.956449,229.828649
86.249721,4885.359217,6439.791695,-76.609550
86.250042,5847.626942,7105.977043,689.485948
86.250363,6513.812290,9252.574275,766.095498
86.250684,6587.832884,11103.089130,-306.438199
86.251004,7476.080014,11769.274478,-1608.800546
86.251325,7994.224174,10362.883188,-2221.676944
86.251646,7328.038826,7698.141797,-2451.505594
86.251967,6143.709319,5181.441594,-229.828649
86.252287,5995.668130,5329.482782,1302.362347
86.252608,4145.153275,6735.874072,1685.410096
86.252929,4071.132681,8068.244768,383.047749
86.253250,3849.070898,8290.306550,383.047749
86.253571,2738.761985,7105.977043,-306.438199
86.253891,3330.926739,6661.853478,0.000000
86.254212,4811.338623,7772.162391,1149.143247
86.254533,5033.400406,10510.924376,766.095498
86.254854,4145.153275,12361.439231,-229.828649
86.255174,4959.379811,12287.418637,-1302.362347
86.255495,5403.503377,10362.883188,-1302.362347
86.255816,4145.153275,7105.977043,0.000000
86.256137,4663.297435,5773.606348,1072.533697
86.256457,3627.009116,5921.647536,1532.190996
86.256778,2664.741391,7328.038826,153.219100
86.257099,3330.926739,8068.244768,383.047749
86.257420,4737.318029,7920.203579,0.000000
86.257740,3701.029710,6809.894666,306.438199
86.258061,4663.297435,6809.894666,1072.533697
86.258382,5921.647536,7698.141797,1455.581446
86.258703,5773.606348,10288.862594,153.219100
86.259024,5995.668130,11103.089130,-383.047749
86.259344,6439.791695,10362.883188,-2221.676944
86.259665,6291.750507,7994.224174,-3447.429741
86.259986,4737.318029,4737.318029,-1608.800546
86.260307,6291.750507,4441.235652,1455.581446
86.260627,4737.318029,6143.709319,2374.896044
86.260948,3182.885551,9178.553681,229.828649
86.261269,3552.988522,9918.759623,-1225.752797
86.261590,4367.215058,8660.409521,-1608.800546
86.261910,3701.029710,7105.977043,-1149.143247
86.262231,4737.318029,6513.812290,1455.581446
86.262552,4811.338623,8438.347739,919.314598
86.262873,3775.050304,11473.192101,76.609550
86.263194,3627.009116,11917.315666,-383.047749
86.263514,4737.318029,9622.677246,-1532.190996
86.263835,4737.318029,6217.729913,-1378.971896
86.264156,4219.173869,4885.359217,1225.752797
86.264477,4589.276840,6217.729913,2451.505594
86.264797,3627.009116,8438.347739,459.657299
86.265118,4071.132681,9474.636058,-612.876398
86.265439,5625.565159,9178.553681,-995.924147
86.265760,5107.421000,7254.018232,-689.485948
86.266080,4811.338623,6069.688724,536.266849
86.266401,6513.812290,7328.038826,1685.410096
86.266722,6439.791695,9400.615463,76.609550
86.267043,6809.894666,10807.006753,-612.876398
86.267364,6661.853478,10214.842000,-2757.943793
86.267684,7105.977043,8512.368333,-3447.429741
86.268005,5921.647536,5847.626942,-1302.362347
86.268326,6587.832884,5181.441594,1455.581446
86.268647,5033.400406,5995.668130,1149.143247
86.268967,4663.297435,7994.224174,0.000000
86.269288,4663.297435,9104.533087,-842.705048
86.269609,4293.194464,8142.265362,-2068.457845
86.269930,4219.173869,6439.791695,-1532.190996
86.270250,5625.565159,6809.894666,0.000000
86.270571,5995.668130,10214.842000,689.485948
86.270892,4293.194464,12657.521608,-383.047749
86.271213,4219.173869,12805.562797,-1685.410096
86.271533,4885.359217,10066.800811,-2145.067394
86.271854,4737.318029,6735.874072,-919.314598
86.272175,4663.297435,5403.503377,1378.971896
86.272496,3330.926739,5847.626942,1149.143247
86.272817,2738.761985,8438.347739,-229.828649
86.273137,3330.926739,9770.718434,229.828649
86.273458,4293.194464,8586.388927,0.000000
86.273779,4441.235652,6661.853478,-536.266849
86.274100,4737.318029,6143.709319,-306.438199
86.274420,5995.668130,8216.285956,689.485948
86.274741,5403.503377,11251.130318,153.219100
86.275062,5551.544565,11843.295072,-1149.143247
86.275383,6217.729913,10140.821405,-2681.334243
86.275703,6513.812290,8142.265362,-2681.334243
86.276024,5773.606348,5847.626942,-1455.581446
86.276345,6217.729913,5329.482782,612.876398
86.276666,5033.400406,6883.915261,612.876398
86.276987,4367.215058,8586.388927,0.000000
86.277307,4219.173869,8586.388927,0.000000
86.277628,3701.029710,7105.977043,-1532.190996
86.277949,3627.009116,5773.606348,-1378.971896
86.278270,5403.503377,6957.935855,536.266849
86.278590,5773.606348,10436.903782,842.705048
86.278911,4071.132681,12657.521608,-612.876398
86.279232,3627.009116,12139.377449,-919.314598
86.279553,4885.359217,10214.842000,-1378.971896
86.279873,3997.112087,6661.853478,-842.705048
86.280194,4219.173869,4663.297435,1225.752797
86.280515,3627.009116,5033.400406,2068.457845
86.280836,2590.720797,7476.080014,459.657299
86.281156,3478.967927,9104.533087,536.266849
86.281477,4737.318029,9104.533087,153.219100
86.281798,3997.112087,6809.894666,-766.095498
86.282119,4811.338623,5921.647536,0.000000
86.282440,6513.812290,7402.059420,459.657299
86.282760,5773.606348,9696.697840,-383.047749
86.283081,5847.626942,10732.986159,-842.705048
86.283402,6513.812290,9696.697840,-2221.676944
86.283723,6809.894666,7772.162391,-3294.210641
86.284043,5551.544565,5699.585753,-1225.752797
86.284364,5995.668130,5551.544565,306.438199
86.284685,4441.235652,6735.874072,306.438199
86.285006,4367.215058,8364.327145,-383.047749
86.285326,4589.276840,8586.388927,-383.047749
86.285647,4367.215058,6883.915261,-1762.019645
86.285968,4515.256246,5773.606348,-995.924147
86.286289,5551.544565,7624.121203,919.314598
86.286610,5403.503377,10214.842000,842.705048
86.286930,4885.359217,12065.356855,-229.828649
86.287251,5107.421000,11473.192101,-1378.971896
86.287572,5625.565159,9400.615463,-2374.896044
86.287893,4737.318029,6513.812290,-1378.971896
86.288213,4441.235652,5551.544565,612.876398
86.288534,3478.967927,6291.750507,1532.190996
86.288855,3182.885551,8512.368333,689.485948
86.289176,4071.132681,9400.615463,612.876398
86.289496,4663.297435,9326.594869,0.000000
86.289817,4071.132681,7550.100608,-383.047749
86.290138,4811.338623,7328.038826,-766.095498
86.290459,5773.606348,8364.327145,612.876398
86.290779,5625.565159,10510.924376,-153.219100
86.291100,5255.462188,11029.068536,-995.924147
86.291421,5551.544565,10214.842000,-2298.286494
86.291742,6143.709319,7994.224174,-2451.505594
86.292063,5329.482782,6513.812290,-995.924147
86.292383,5921.647536,6365.771101,919.314598
86.292704,4367.215058,7624.121203,459.657299
86.293025,4071.132681,8586.388927,689.485948
86.293346,4145.153275,7920.203579,0.000000
86.293666,3775.050304,6217.729913,-1532.190996
86.293987,4145.153275,5107.421000,-995.924147
86.294308,6143.709319,6809.894666,383.047749
86.294629,6143.709319,10288.862594,612.876398
86.294949,5255.462188,12731.542202,-76.609550
86.295270,5551.544565,11473.192101,-1685.410096
86.295591,6513.812290,9548.656652,-2451.505594
86.295912,4959.379811,6809.894666,-1149.143247
86.296233,5255.462188,5921.647536,612.876398
86.296553,3552.988522,6217.729913,1149.143247
86.296874,3552.988522,7846.182985,766.095498
86.297195,3849.070898,8808.450710,1455.581446
86.297516,3997.112087,8142.265362,689.485948
86.297836,3404.947333,6069.688724,-153.219100
86.298157,4515.256246,4959.379811,383.047749
86.298478,6587.832884,6957.935855,1378.971896
86.298799,6217.729913,9326.594869,995.924147
86.299119,5847.626942,10658.965565,-919.314598
86.299440,5995.668130,9474.636058,-2604.724693
86.299761,6957.935855,8142.265362,-2834.553343
86.300082,5773.606348,5551.544565,-766.095498
86.300403,6809.894666,5403.503377,536.266849
86.300723,5329.482782,6587.832884,0.000000
86.301044,4885.359217,8882.471304,-76.609550
86.301365,4663.297435,9326.594869,689.485948
86.301686,4737.318029,7105.977043,-766.095498
86.302006,4811.338623,5477.523971,-536.266849
86.302327,6217.729913,6513.812290,689.485948
86.302648,6217.729913,9178.553681,919.314598
86.302969,5255.462188,10881.027347,306.438199
86.303289,5699.585753,9696.697840,-1225.752797
86.303610,6365.771101,8438.347739,-1991.848295
86.303931,4959.379811,6291.750507,-1302.362347
86.304252,4737.318029,5329.482782,612.876398
86.304572,3775.050304,6513.812290,1072.533697
86.304893,3775.050304,8660.409521,766.095498
86.305214,4367.215058,9622.677246,1225.752797
86.305535,4737.318029,8956.491898,766.095498
86.305856,4293.194464,7328.038826,-689.485948
86.306176,4441.235652,6661.853478,-229.828649
86.306497,5995.668130,7846.182985,153.219100
86.306818,5625.565159,10066.800811,0.000000
86.307139,5773.606348,10362.883188,-689.485948
86.307459,6661.853478,9622.677246,-1838.629195
86.307780,6883.915261,7772.162391,-1762.019645
86.308101,5625.565159,7105.977043,-383.047749
86.308422,4589.276840,6883.915261,383.047749
86.308742,4515.256246,7920.203579,0.000000
86.309063,4589.276840,8882.471304,306.438199
86.309384,4737.318029,8364.327145,153.219100
86.309705,3849.070898,6365.771101,-1149.143247
86.310026,4811.338623,5847.626942,-766.095498
86.310346,5995.668130,7846.182985,842.705048
86.310667,5625.565159,10510.924376,919.314598
86.310988,5477.523971,11621.233289,306.438199
86.311309,6513.812290,10140.821405,-1149.143247
86.311629,6661.853478,8438.347739,-1455.581446
86.311950,4959.379811,6587.832884,-536.266849
86.312271,4811.338623,6143.709319,383.047749
86.312592,3923.091493,6513.812290,0.000000
86.312912,3923.091493,8068.244768,229.828649
86.313233,4145.153275,8808.450710,1378.971896
86.313554,3923.091493,7772.162391,536.266849
86.313875,3701.029710,7031.956449,0.000000
86.314195,5107.421000,7105.977043,306.438199
86.314516,5773.606348,8734.430116,536.266849
86.314837,5847.626942,10436.903782,459.657299
86.315158,6069.688724,10140.821405,0.000000
86.315479,6587.832884,9326.594869,-995.924147
86.315799,6291.750507,7105.977043,-995.924147
86.316120,5403.503377,6143.709319,842.705048
86.316441,4589.276840,6217.729913,0.000000
86.316762,4441.235652,7254.018232,-153.219100
86.317082,4145.153275,8216.285956,536.266849
86.317403,4441.235652,7402.059420,76.609550
86.317724,3923.091493,5847.626942,0.000000
86.318045,4515.256246,6143.709319,842.705048
86.318365,5255.462188,8734.430116,995.924147
86.318686,5255.462188,11325.150913,536.266849
86.319007,6069.688724,11325.150913,-536.266849
86.319328,6365.771101,10140.821405,-995.924147
86.319649,6217.729913,7846.182985,-1225.752797
86.319969,4737.318029,5995.668130,76.609550
86.320290,4737.318029,5477.523971,1072.533697
86.320611,3404.947333,6809.894666,1455.581446
86.320932,4367.215058,8142.265362,459.657299
86.321252,4589.276840,7920.203579,689.485948
86.321573,4219.173869,7254.018232,0.000000
86.321894,4219.173869,6217.729913,76.609550
86.322215,5699.585753,7254.018232,1072.533697
86.322536,5921.647536,8734.430116,459.657299
86.322856,4959.379811,9992.780217,-306.438199
86.323177,6291.750507,9770.718434,-842.705048
86.323498,6883.915261,9474.636058,-689.485948
86.323819,5995.668130,7105.977043,0.000000
86.324139,6809.894666,5921.647536,842.705048
86.324460,5403.503377,6291.750507,-306.438199
86.324781,4737.318029,7105.977043,-612.876398
86.325102,5255.462188,7179.997637,0.000000
86.325423,5107.421000,6587.832884,-1225.752797
86.325743,4811.338623,4811.338623,-842.705048
86.326064,6439.791695,5847.626942,1225.752797
86.326385,6957.935855,8438.347739,1378.971896
86.326706,5033.400406,10955.047942,0.000000
86.327026,5551.544565,11399.171507,-1302.362347
86.327347,6883.915261,10362.883188,-2298.286494
86.327668,6365.771101,7402.059420,-1455.581446
86.327989,6587.832884,5995.668130,689.485948
86.328310,4811.338623,7105.977043,383.047749
86.328630,3478.967927,7698.141797,-766.095498
86.328951,3108.864956,9326.594869,689.485948
86.329272,4219.173869,8364.327145,383.047749
86.329593,3923.091493,6217.729913,0.000000
86.329913,5329.482782,5551.544565,1072.533697
86.330234,5773.606348,7550.100608,1225.752797
86.330555,4737.318029,10140.821405,-306.438199
86.330876,4811.338623,11251.130318,-842.705048
86.331196,6143.709319,10288.862594,-1225.752797
86.331517,6735.874072,8586.388927,-1532.190996
86.331838,5773.606348,7846.182985,-306.438199
86.332159,5181.441594,7476.080014,76.609550
86.332480,3775.050304,7772.162391,-689.485948
86.332800,4145.153275,8734.430116,-153.219100
86.333121,4145.153275,8290.306550,0.000000
86.333442,3849.070898,6513.812290,-306.438199
86.333763,3775.050304,6143.709319,0.000000
86.334083,5107.421000,7402.059420,842.705048
86.334404,4811.338623,9770.718434,153.219100
86.334725,4737.318029,10658.965565,0.000000
86.335046,5107.421000,10881.027347,-1072.533697
86.335367,5995.668130,10140.821405,-1455.581446
86.335687,4811.338623,8512.368333,-1072.533697
86.336008,4293.194464,6957.935855,0.000000
86.336329,3923.091493,7254.018232,-229.828649
86.336650,3034.844362,8290.306550,919.314598
86.336970,3034.844362,8956.491898,1378.971896
86.337291,3478.967927,8068.244768,612.876398
86.337612,3404.947333,7031.956449,76.609550
86.337933,3256.906145,6809.894666,919.314598
86.338254,5033.400406,7476.080014,842.705048
86.338574,5033.400406,9104.533087,229.828649
86.338895,5255.462188,10140.821405,0.000000
86.339216,6661.853478,9622.677246,-306.438199
86.339537,6957.935855,7994.224174,-1149.143247
86.339857,5329.482782,6957.935855,-766.095498
86.340178,4367.215058,6587.832884,-229.828649
86.340499,4219.173869,7328.038826,-229.828649
86.340820,4589.276840,8512.368333,766.095498
86.341141,4663.297435,8142.265362,383.047749
86.341461,4811.338623,6735.874072,-229.828649
86.341782,4737.318029,5847.626942,-689.485948
86.342103,5403.503377,6661.853478,459.657299
86.342424,5625.565159,8290.306550,1225.752797
86.342744,5477.523971,9326.594869,306.438199
86.343065,6513.812290,9400.615463,-612.876398
86.343386,7105.977043,8512.368333,-1455.581446
86.343707,5921.647536,7328.038826,-1762.019645
86.344028,5033.400406,7328.038826,-612.876398
86.344348,4515.256246,7254.018232,-1072.533697
86.344669,4145.153275,7254.018232,-306.438199
86.344990,4589.276840,7402.059420,919.314598
86.345311,4219.173869,7031.956449,689.485948
86.345631,4145.153275,6513.812290,459.657299
86.345952,4515.256246,6661.853478,383.047749
86.346273,5329.482782,7920.203579,76.609550
86.346594,5477.523971,8956.491898,0.000000
86.346915,6439.791695,9696.697840,-383.047749
86.347235,7550.100608,9474.636058,-1378.971896
86.347556,6957.935855,8290.306550,-1072.533697
86.347877,5403.503377,7179.997637,-1225.752797
86.348198,4663.297435,7105.977043,-1378.971896
86.348518,5403.503377,7402.059420,-306.438199
86.348839,4589.276840,8068.244768,153.219100
86.349160,4145.153275,7920.203579,0.000000
86.349481,3627.009116,7179.997637,-1072.533697
86.349802,4737.318029,7402.059420,-689.485948
86.350122,5181.441594,8290.306550,689.485948
86.350443,4737.318029,9992.780217,383.047749
86.350764,5255.462188,10658.965565,-383.047749
86.351085,5551.544565,10881.027347,-1991.848295
86.351405,5551.544565,9548.656652,-2068.457845
86.351726,5329.482782,8068.244768,-1072.533697
86.352047,4885.359217,7105.977043,-919.314598
86.352368,3923.091493,7402.059420,-459.657299
86.352689,3627.009116,8216.285956,153.219100
86.353009,3330.926739,8734.430116,536.266849
86.353330,3478.967927,7920.203579,-383.047749
86.353651,3849.070898,7179.997637,-383.047749
86.353972,5033.400406,7550.100608,689.485948
86.354292,5107.421000,8364.327145,76.609550
86.354613,4663.297435,9770.718434,0.000000
86.354934,5625.565159,10584.944971,-1225.752797
86.355255,6217.729913,10288.862594,-1915.238745
86.355576,6069.688724,9326.594869,-1149.143247
86.355896,5699.585753,7994.224174,-842.705048
86.356217,4737.318029,7179.997637,-1225.752797
86.356538,4367.215058,7698.141797,-612.876398
86.356859,3775.050304,7772.162391,229.828649
86.357179,3182.885551,7328.038826,0.000000
86.357500,3182.885551,7328.038826,-459.657299
86.357821,4145.153275,6883.915261,383.047749
86.358142,4885.359217,8068.244768,1455.581446
86.358463,4811.338623,9696.697840,1072.533697
86.358783,4071.132681,10510.924376,-153.219100
86.359104,4959.379811,9918.759623,-1149.143247
86.359425,5921.647536,8660.409521,-1149.143247
86.359746,5033.400406,7105.977043,-995.924147
86.360066,5033.400406,6365.771101,0.000000
86.360387,4071.132681,7550.100608,0.000000
86.360708,3701.029710,8586.388927,76.609550
86.361029,3330.926739,7920.203579,766.095498
86.361350,3997.112087,6957.935855,306.438199
86.361670,4071.132681,5699.585753,0.000000
86.361991,5181.441594,5847.626942,459.657299
86.362312,5181.441594,7328.038826,0.000000
86.362633,4885.359217,9400.615463,-383.047749
86.362953,5255.462188,10362.883188,-842.705048
86.363274,7105.977043,9992.780217,-1225.752797
86.363595,6513.812290,8956.491898,-536.266849
86.363916,5403.503377,7402.059420,-459.657299
86.364237,4441.235652,6661.853478,229.828649
86.364557,4071.132681,6439.791695,0.000000
86.364878,4145.153275,6513.812290,153.219100
86.365199,4737.318029,5995.668130,0.000000
86.365520,4885.359217,5033.400406,-995.924147
86.365840,5625.565159,6143.709319,-229.828649
86.366161,6291.750507,8364.327145,306.438199
86.366482,5921.647536,10362.883188,-306.438199
86.366803,6217.729913,10584.944971,-766.095498
86.367124,7328.038826,10436.903782,-1225.752797
86.367444,6883.915261,8438.347739,-995.924147
86.367765,5921.647536,6661.853478,-612.876398
86.368086,4959.379811,6291.750507,-689.485948
86.368407,4441.235652,7624.121203,-919.314598
86.368727,4145.153275,8734.430116,0.000000
86.369048,4293.194464,8290.306550,0.000000
86.369369,4145.153275,6883.915261,-459.657299
86.369690,4367.215058,5995.668130,0.000000
86.370011,5329.482782,7031.956449,2068.457845
86.370331,4737.318029,8882.471304,383.047749
86.370652,4737.318029,10140.821405,-536.266849
86.370973,5921.647536,10955.047942,-1149.143247
86.371294,7105.977043,10955.047942,-1532.190996
86.371614,5773.606348,9474.636058,-1302.362347
86.371935,5477.523971,7476.080014,-612.876398
86.372256,4515.256246,7402.059420,-536.266849
86.372577,4515.256246,7772.162391,0.000000
86.372898,3627.009116,7846.182985,0.000000
86.373218,3997.112087,7402.059420,-383.047749
86.373539,4145.153275,6735.874072,0.000000
86.373860,4959.379811,6957.935855,459.657299
86.374181,5551.544565,8142.265362,1378.971896
86.374501,5329.482782,9918.759623,1072.533697
86.374822,4663.297435,10807.006753,-689.485948
86.375143,5847.626942,10658.965565,-1838.629195
86.375464,5329.482782,9178.553681,-1838.629195
86.375785,4589.276840,7105.977043,-1072.533697
86.376105,5329.482782,7105.977043,153.219100
86.376426,4293.194464,8438.347739,383.047749
86.376747,2886.803174,9178.553681,306.438199
86.377068,3108.864956,8364.327145,689.485948
86.377388,3627.009116,7550.100608,0.000000
86.377709,3627.009116,5551.544565,0.000000
86.378030,4737.318029,5551.544565,1302.362347
86.378351,5403.503377,7476.080014,1225.752797
86.378672,4367.215058,9326.594869,229.828649
86.378992,5033.400406,10214.842000,-1149.143247
86.379313,6957.935855,9918.759623,-1838.629195
86.379634,5995.668130,8512.368333,-2451.505594
86.379955,5181.441594,7105.977043,-153.219100
86.380275,5107.421000,7105.977043,0.000000
86.380596,4515.256246,7402.059420,0.000000
86.380917,4071.132681,7846.182985,536.266849
86.381238,4145.153275,7476.080014,229.828649
86.381559,4219.173869,6069.688724,-459.657299
86.381879,4441.235652,5773.606348,842.705048
86.382200,5847.626942,6587.832884,1532.190996
86.382521,5625.565159,8068.244768,1302.362347
86.382842,5403.503377,9400.615463,0.000000
86.383162,5995.668130,9252.574275,-995.924147
86.383483,6735.874072,8142.265362,-1762.019645
86.383804,5625.565159,7031.956449,-1225.752797
86.384125,5403.503377,6957.935855,-153.219100
86.384445,4737.318029,7550.100608,306.438199
86.384766,4589.276840,8364.327145,153.219100
86.385087,4663.297435,8068.244768,612.876398
86.385408,4885.359217,7698.141797,0.000000
86.385729,4663.297435,6439.791695,-76.609550
86.386049,5033.400406,6883.915261,229.828649
86.386370,5625.565159,7920.203579,459.657299
86.386691,5329.482782,9178.553681,306.438199
86.387012,5847.626942,9770.718434,-383.047749
86.387332,7402.059420,9252.574275,-919.314598
86.387653,6291.750507,7624.121203,-1225.752797
86.387974,4959.379811,6587.832884,-612.876398
86.388295,4811.338623,7105.977043,-306.438199
86.388616,5033.400406,7402.059420,383.047749
86.388936,4737.318029,7772.162391,766.095498
86.389257,5181.441594,7402.059420,0.000000
86.389578,4737.318029,6735.874072,-1302.362347
86.389899,5477.523971,7328.038826,-612.876398
86.390219,5329.482782,8586.388927,995.924147
86.390540,5107.421000,10066.800811,1072.533697
86.390861,5477.523971,10807.006753,0.000000
86.391182,6809.894666,10732.986159,-1225.752797
86.391503,5847.626942,9474.636058,-1378.971896
86.391823,4367.215058,7994.224174,-995.924147
86.392144,4145.153275,7624.121203,-306.438199
86.392465,3849.070898,8068.244768,229.828649
86.392786,3552.988522,8216.285956,1072.533697
86.393106,3330.926739,7476.080014,1149.143247
86.393427,3552.988522,7031.956449,-383.047749
86.393748,3775.050304,6809.894666,383.047749
86.394069,4367.215058,7920.203579,995.924147
86.394390,4885.359217,8956.491898,919.314598
86.394710,5329.482782,9770.718434,612.876398
86.395031,6809.894666,10584.944971,-306.438199
86.395352,6365.771101,9844.739029,-1072.533697
86.395673,5329.482782,8586.388927,-1149.143247
86.395993,4885.359217,7179.997637,-1455.581446
86.396314,5403.503377,7179.997637,-1302.362347
86.396635,4811.338623,7031.956449,0.000000
86.396956,4145.153275,7328.038826,1149.143247
86.397277,3849.070898,6883.915261,229.828649
86.397597,3849.070898,6587.832884,0.000000
86.397918,4663.297435,7105.977043,1149.143247
86.398239,4959.379811,7772.162391,1532.190996
86.398560,4959.379811,9104.533087,1149.143247
86.398880,5107.421000,9696.697840,229.828649
86.399201,5847.626942,9326.594869,-459.657299
86.399522,5921.647536,7920.203579,-766.095498
86.399843,4737.318029,7624.121203,-1072.533697
86.400164,4589.276840,7105.977043,-536.266849
86.400484,4441.235652,7624.121203,842.705048
86.400805,3701.029710,7179.997637,1608.800546
86.401126,3478.967927,6661.853478,1378.971896
86.401447,4367.215058,6069.688724,229.828649
86.401767,4811.338623,6587.832884,0.000000
86.402088,4885.359217,7105.977043,1072.533697
86.402409,5773.606348,7994.224174,919.314598
86.402730,6217.729913,9030.512492,0.000000
86.403051,7105.977043,9326.594869,-536.266849
86.403371,7476.080014,8882.471304,-153.219100
86.403692,7179.997637,8290.306550,76.609550
86.404013,5921.647536,7105.977043,-842.705048
86.404334,5551.544565,6439.791695,-536.266849
86.404654,5625.565159,6069.688724,383.047749
86.404975,4811.338623,5477.523971,229.828649
86.405296,4737.318029,5403.503377,-76.609550
86.405617,5403.503377,5921.647536,-383.047749
86.405938,5477.523971,7846.182985,-76.609550
86.406258,5329.482782,9104.533087,306.438199
86.406579,5551.544565,9770.718434,229.828649
86.406900,6735.874072,11251.130318,-1762.019645
86.407221,7031.956449,10584.944971,-1225.752797
86.407541,6069.688724,9326.594869,-1149.143247
86.407862,5625.565159,8216.285956,-1302.362347
86.408183,4441.235652,7846.182985,-1072.533697
86.408504,3552.988522,7624.121203,1302.362347
86.408825,3404.947333,7254.018232,1455.581446
86.409145,3330.926739,6735.874072,76.609550
86.409466,3849.070898,6735.874072,76.609550
86.409787,4663.297435,7328.038826,459.657299
86.410108,4441.235652,8290.306550,766.095498
86.410428,4515.256246,9252.574275,459.657299
86.410749,5477.523971,10658.965565,0.000000
86.411070,6143.709319,11177.109724,-842.705048
86.411391,5921.647536,10140.821405,-1149.143247
86.411712,6217.729913,9252.574275,-2068.457845
86.412032,4885.359217,8290.306550,-1608.800546
86.412353,4663.297435,8216.285956,-995.924147
86.412674,4367.215058,7846.182985,0.000000
86.412995,3849.070898,7402.059420,-383.047749
86.413315,3701.029710,7179.997637,-306.438199
86.413636,4515.256246,6883.915261,0.000000
86.413957,4737.318029,7402.059420,919.314598
86.414278,4811.338623,8290.306550,1149.143247
86.414599,5107.421000,9918.759623,995.924147
86.414919,5329.482782,10584.944971,-1149.143247
86.415240,5995.668130,10140.821405,-1608.800546
86.415561,5551.544565,8438.347739,-1149.143247
86.415882,5551.544565,7772.162391,-919.314598
86.416202,4811.338623,8216.285956,-689.485948
86.416523,4071.132681,7994.224174,689.485948
86.416844,3478.967927,7772.162391,1302.362347
86.417165,4145.153275,7328.038826,1302.362347
86.417486,3849.070898,6365.771101,689.485948
86.417806,4885.359217,5551.544565,612.876398
86.418127,4811.338623,6365.771101,306.438199
86.418448,5551.544565,7179.997637,995.924147
86.418769,5625.565159,8512.368333,612.876398
86.419089,6957.935855,9104.533087,-842.705048
86.419410,6661.853478,8142.265362,-2068.457845
86.419731,6735.874072,7920.203579,-1378.971896
86.420052,5625.565159,7624.121203,-1225.752797
86.420373,5255.462188,7698.141797,-766.095498
86.420693,5625.565159,7402.059420,612.876398
86.421014,4811.338623,7328.038826,1072.533697
86.421335,4071.132681,6587.832884,306.438199
86.421656,4367.215058,5921.647536,229.828649
86.421976,4663.297435,6365.771101,76.609550
86.422297,4663.297435,7254.018232,459.657299
86.422618,5551.544565,8808.450710,1149.143247
86.422939,5921.647536,9548.656652,0.000000
86.423260,5847.626942,9178.553681,-1149.143247
86.423580,5625.565159,8290.306550,-459.657299
86.423901,4737.318029,8290.306550,-1072.533697
86.424222,4145.153275,7994.224174,-306.438199
86.424543,4515.256246,7846.182985,306.438199
86.424864,3701.029710,7550.100608,153.219100
86.425184,3478.967927,7105.977043,612.876398
86.425505,4589.276840,7698.141797,153.219100
86.425826,4589.276840,7254.018232,0.000000
86.426147,4441.235652,7402.059420,76.609550
86.426467,5625.565159,8216.285956,0.000000
86.426788,6069.688724,9252.574275,-689.485948
86.427109,6809.894666,9696.697840,-842.705048
86.427430,7254.018232,9696.697840,-1072.533697
86.427751,5921.647536,9030.512492,-2145.067394
86.428071,4663.297435,7846.182985,-2528.115143
86.428392,4367.215058,7402.059420,-995.924147
86.428713,3997.112087,7328.038826,0.000000
86.429034,3775.050304,7550.100608,229.828649
86.429355,3701.029710,7920.203579,-459.657299
86.429675,4071.132681,7920.203579,-842.705048
86.429996,4441.235652,8586.388927,0.000000
86.430317,4219.173869,9474.636058,919.314598
86.430638,4515.256246,10436.903782,459.657299
86.430959,5181.441594,10881.027347,-766.095498
86.431279,5255.462188,9844.739029,-1302.362347
86.431600,5181.441594,8882.471304,-1302.362347
86.431921,4885.359217,7920.203579,-1149.143247
86.432242,4219.173869,8586.388927,-919.314598
86.432562,3701.029710,8512.368333,-153.219100
86.432883,3034.844362,7846.182985,153.219100
86.433204,3256.906145,7476.080014,383.047749
86.433525,3997.112087,7402.059420,842.705048
86.433846,4663.297435,7550.100608,1072.533697
86.434166,4367.215058,8142.265362,1149.143247
86.434487,4885.359217,8808.450710,0.000000
86.434808,5773.606348,9992.780217,-919.314598
86.435129,6513.812290,9844.739029,-919.314598
86.435450,6439.791695,9252.574275,-1225.752797
86.435770,6513.812290,8734.430116,-1225.752797
86.436091,5181.441594,8586.388927,-1838.629195
86.436412,5181.441594,7105.977043,-842.705048
86.436733,4885.359217,5995.668130,459.657299
86.437054,4145.153275,6217.729913,612.876398
86.437374,4071.132681,7402.059420,383.047749
86.437695,4515.256246,7402.059420,383.047749
86.438016,4959.379811,7328.038826,383.047749
86.438337,5403.503377,8142.265362,612.876398
86.438658,5551.544565,9178.553681,766.095498
86.438978,5625.565159,9696.697840,-612.876398
86.439299,5625.565159,9622.677246,-536.266849
86.439620,5551.544565,8586.388927,-995.924147
86.439941,5403.503377,7476.080014,-1072.533697
86.440261,5107.421000,7105.977043,-229.828649
86.440582,4589.276840,6957.935855,766.095498
86.440903,3627.009116,6661.853478,689.485948
86.441224,3701.029710,6143.709319,383.047749
86.441545,4959.379811,6587.832884,76.609550
86.441865,4959.379811,6587.832884,536.266849
86.442186,5107.421000,6957.935855,536.266849
86.442507,6365.771101,8068.244768,0.000000
86.442828,6513.812290,9474.636058,-612.876398
86.443149,6957.935855,9326.594869,-995.924147
86.443469,7328.038826,9104.533087,-1072.533697
86.443790,6365.771101,8438.347739,-1532.190996
86.444111,4885.359217,7476.080014,-842.705048
86.444432,4441.235652,6439.791695,0.000000
86.444753,4515.256246,5995.668130,306.438199
86.445073,3849.070898,6069.688724,229.828649
86.445394,3997.112087,6291.750507,-306.438199
86.445715,4441.235652,7105.977043,-1302.362347
86.446036,5033.400406,8216.285956,-689.485948
86.446357,5329.482782,9326.594869,229.828649
86.446677,5847.626942,10362.883188,0.000000
86.446998,5847.626942,11177.109724,-612.876398
86.447319,5699.585753,10362.883188,-1225.752797
86.447640,5329.482782,8734.430116,-995.924147
86.447960,5329.482782,7698.141797,-612.876398
86.448281,4071.132681,7772.162391,-153.219100
86.448602,3478.967927,8068.244768,76.609550
86.448923,3478.967927,8216.285956,153.219100
86.449244,3330.926739,7254.018232,0.000000
86.449564,3552.988522,6735.874072,-153.219100
86.449885,4663.297435,6439.791695,306.438199
86.450206,5033.400406,8142.265362,1149.143247
86.450527,4737.318029,10807.006753,459.657299
86.450848,5107.421000,11843.295072,-689.485948
86.451168,6513.812290,11251.130318,-1532.190996
86.451489,6143.709319,9548.656652,-1608.800546
86.451810,5699.585753,7920.203579,-766.095498
86.452131,4737.318029,7550.100608,-766.095498
86.452452,4515.256246,7624.121203,-995.924147
86.452772,4145.153275,7550.100608,-459.657299
86.453093,3849.070898,7254.018232,0.000000
86.453414,3775.050304,6809.894666,-536.266849
86.453735,3997.112087,6957.935855,-306.438199
86.454056,4515.256246,7550.100608,842.705048
86.454376,5477.523971,9400.615463,689.485948
86.454697,4737.318029,10140.821405,76.609550
86.455018,4737.318029,10658.965565,-1608.800546
86.455339,5403.503377,10214.842000,-1378.971896
86.455659,4811.338623,8364.327145,-919.314598
86.455980,4737.318029,7624.121203,76.609550
86.456301,4071.132681,7550.100608,0.000000
86.456622,3330.926739,7994.224174,0.000000
86.456943,3256.906145,7994.224174,459.657299
86.457263,3552.988522,7105.977043,689.485948
86.457584,3997.112087,5477.523971,766.095498
86.457905,5329.482782,5329.482782,1455.581446
86.458226,5403.503377,6883.915261,1455.581446
86.458547,5403.503377,8660.409521,612.876398
86.458867,5551.544565,9918.759623,-383.047749
86.459188,7105.977043,9548.656652,-1685.410096
86.459509,7179.997637,8142.265362,-1455.581446
86.459830,6883.915261,7328.038826,-383.047749
86.460151,6069.688724,6957.935855,-766.095498
86.460471,4885.359217,7920.203579,-383.047749
86.460792,4663.297435,7550.100608,536.266849
86.461113,4885.359217,7105.977043,459.657299
86.461434,5107.421000,5551.544565,76.609550
86.461754,5477.523971,5625.565159,536.266849
86.462075,5847.626942,6661.853478,842.705048
86.462396,5699.585753,7772.162391,842.705048
86.462717,5551.544565,8808.450710,0.000000
86.463038,6143.709319,9326.594869,-1225.752797
86.463358,7031.956449,8882.471304,-1149.143247
86.463679,6143.709319,9178.553681,-306.438199
86.464000,4367.215058,8142.265362,-1072.533697
86.464321,4663.297435,7994.224174,-1072.533697
86.464642,4367.215058,8068.244768,536.266849
86.464962,3256.906145,7476.080014,1685.410096
86.465283,3330.926739,6883.915261,919.314598
86.465604,4367.215058,6513.812290,536.266849
86.465925,5181.441594,7105.977043,766.095498
86.466246,5181.441594,7328.038826,1532.190996
86.466566,5477.523971,8512.368333,229.828649
86.466887,6291.750507,9252.574275,-383.047749
86.467208,7105.977043,9918.759623,-1302.362347
86.467529,7031.956449,9104.533087,-1378.971896
86.467850,6143.709319,8364.327145,-1762.019645
86.468170,5107.421000,7994.224174,-2145.067394
86.468491,5033.400406,7772.162391,-459.657299
86.468812,4589.276840,7698.141797,842.705048
86.469133,3923.091493,7328.038826,536.266849
86.469453,4071.132681,6661.853478,229.828649
86.469774,4589.276840,6957.935855,-459.657299
86.470095,4219.173869,7920.203579,306.438199
86.470416,4885.359217,9252.574275,612.876398
86.470737,5255.462188,10066.800811,76.609550
86.471057,5995.668130,10288.862594,-1225.752797
86.471378,5625.565159,10214.842000,-1685.410096
86.471699,5329.482782,8882.471304,-919.314598
86.472020,3849.070898,8438.347739,-1225.752797
86.472341,3775.050304,8290.306550,-459.657299
86.472661,3997.112087,7624.121203,536.266849
86.472982,3552.988522,7105.977043,459.657299
86.473303,3552.988522,7254.018232,766.095498
86.473624,4145.153275,7698.141797,536.266849
86.473945,4367.215058,7476.080014,459.657299
86.474265,5181.441594,8216.285956,919.314598
86.474586,5699.585753,9622.677246,536.266849
86.474907,6143.709319,10288.862594,-153.219100
86.475228,6957.935855,9992.780217,-536.266849
86.475549,6587.832884,8586.388927,-689.485948
86.475869,5773.606348,7624.121203,-1149.143247
86.476190,4589.276840,7105.977043,-536.266849
86.476511,4367.215058,6735.874072,76.609550
86.476832,4293.194464,7105.977043,459.657299
86.477152,3775.050304,7179.997637,383.047749
86.477473,4071.132681,6957.935855,-76.609550
86.477794,5107.421000,6291.750507,0.000000
86.478115,4959.379811,7624.121203,612.876398
86.478436,4959.379811,9104.533087,1302.362347
86.478756,5181.441594,10584.944971,306.438199
86.479077,5921.647536,10807.006753,-919.314598
86.479398,5995.668130,8882.471304,-995.924147
86.479719,5625.565159,7476.080014,0.000000
86.480040,4959.379811,6661.853478,-383.047749
86.480360,4219.173869,7105.977043,0.000000
86.480681,4071.132681,7031.956449,383.047749
86.481002,4071.132681,6439.791695,1302.362347
86.481323,4293.194464,5847.626942,919.314598
86.481644,5033.400406,5847.626942,1072.533697
86.481964,5773.606348,6809.894666,1378.971896
86.482285,5255.462188,7920.203579,842.705048
86.482606,6291.750507,8438.347739,0.000000
86.482927,7031.956449,9252.574275,-919.314598
86.483247,7698.141797,8216.285956,-459.657299
86.483568,7476.080014,7698.141797,-153.219100
86.483889,6439.791695,7550.100608,-1378.971896
86.484210,5477.523971,7254.018232,-1225.752797
86.484531,4959.379811,7105.977043,-612.876398
86.484851,5329.482782,6365.771101,612.876398
86.485172,4589.276840,5329.482782,459.657299
86.485493,4441.235652,6069.688724,0.000000
86.485814,4367.215058,7328.038826,0.000000
86.486135,4589.276840,8142.265362,-306.438199
86.486455,5033.400406,9104.533087,459.657299
86.486776,6069.688724,10362.883188,229.828649
86.487097,5995.668130,10510.924376,-689.485948
86.487418,6365.771101,10288.862594,-919.314598
86.487739,5033.400406,8808.450710,-919.314598
86.488059,4515.256246,7994.224174,-1225.752797
86.488380,4737.318029,7254.018232,383.047749
86.488701,3775.050304,7328.038826,1149.143247
86.489022,2886.803174,6957.935855,842.705048
86.489343,3478.967927,7105.977043,229.828649
86.489663,4515.256246,7476.080014,-153.219100
86.489984,4589.276840,7698.141797,0.000000
86.490305,5255.462188,9400.615463,995.924147
86.490626,5625.565159,10510.924376,76.609550
86.490946,5625.565159,11251.130318,-612.876398
86.491267,6143.709319,10584.944971,-919.314598
86.491588,6365.771101,9104.533087,-1072.533697
86.491909,5181.441594,8290.306550,-1225.752797
86.492230,4219.173869,7994.224174,-995.924147
86.492550,4441.235652,7550.100608,229.828649
86.492871,3997.112087,7254.018232,153.219100
86.493192,3775.050304,6513.812290,0.000000
86.493513,3552.988522,5551.544565,0.000000
86.493834,4589.276840,6809.894666,76.609550
86.494154,4589.276840,8364.327145,536.266849
86.494475,4737.318029,10362.883188,459.657299
86.494796,5995.668130,10732.986159,-383.047749
86.495117,6513.812290,10807.006753,-1225.752797
86.495438,5551.544565,9326.594869,-842.705048
86.495758,5477.523971,8512.368333,-383.047749
86.496079,4367.215058,7772.162391,-766.095498
86.496400,4145.153275,7328.038826,0.000000
86.496721,3552.988522,6513.812290,689.485948
86.497042,3923.091493,5995.668130,229.828649
86.497362,4145.153275,6291.750507,383.047749
86.497683,4811.338623,6365.771101,612.876398
86.498004,5403.503377,6883.915261,919.314598
86.498325,5773.606348,7994.224174,1149.143247
86.498645,5921.647536,9030.512492,76.609550
86.498966,6439.791695,9400.615463,-842.705048
86.499287,6513.812290,8956.491898,-1072.533697
86.499608,7105.977043,8512.368333,-995.924147
86.499929,6143.709319,7994.224174,-1838.629195
86.500249,5625.565159,7254.018232,-1225.752797
86.500570,5625.565159,6957.935855,0.000000
86.500891,4811.338623,6809.894666,1378.971896
86.501212,3627.009116,6291.750507,766.095498
86.501533,4293.194464,5699.585753,306.438199
86.501853,5255.462188,6143.709319,0.000000
86.502174,5625.565159,7179.997637,766.095498
86.502495,5477.523971,8808.450710,766.095498
86.502816,5403.503377,9400.615463,-306.438199
86.503137,5995.668130,9622.677246,-1225.752797
86.503457,6661.853478,9104.533087,-536.266849
86.503778,6291.750507,8438.347739,-383.047749
86.504099,5847.626942,7624.121203,-919.314598
86.504420,4959.379811,7624.121203,-536.266849
86.504741,4589.276840,6735.874072,76.609550
86.505061,3997.112087,5921.647536,229.828649
86.505382,4663.297435,5699.585753,459.657299
86.505703,5847.626942,6809.894666,383.047749
86.506024,4959.379811,7920.203579,76.609550
86.506344,4959.379811,8808.450710,0.000000
86.506665,5477.523971,9770.718434,-842.705048
86.506986,6291.750507,10288.862594,-995.924147
86.507307,6365.771101,9770.718434,-919.314598
86.507628,5995.668130,9178.553681,-1838.629195
86.507948,4441.235652,8882.471304,-2528.115143
86.508269,3256.906145,8956.491898,-1149.143247
86.508590,3182.885551,8364.327145,536.266849
86.508911,3034.844362,7846.182985,1149.143247
86.509232,2590.720797,7698.141797,612.876398
86.509552,2664.741391,8068.244768,229.828649
86.509873,2960.823768,8290.306550,0.000000
86.510194,3256.906145,8956.491898,306.438199
86.510515,3552.988522,9696.697840,229.828649
86.510836,4441.235652,11103.089130,0.000000
86.511156,5033.400406,10584.944971,-612.876398
86.511477,5181.441594,9844.739029,-842.705048
86.511798,4959.379811,9104.533087,-1149.143247
86.512119,3775.050304,8882.471304,-1455.581446
86.512439,3478.967927,8364.327145,-689.485948
86.512760,3478.967927,7772.162391,306.438199
86.513081,3627.009116,7402.059420,536.266849
86.513402,4367.215058,7698.141797,536.266849
86.513723,4515.256246,8290.306550,229.828649
86.514043,3849.070898,8142.265362,0.000000
86.514364,4515.256246,8734.430116,-306.438199
86.514685,4959.379811,9474.636058,153.219100
86.515006,6365.771101,9474.636058,306.438199
86.515327,6143.709319,9252.574275,0.000000
86.515647,5477.523971,8660.409521,-1149.143247
86.515968,4441.235652,7920.203579,-1762.019645
86.516289,3997.112087,7179.997637,-689.485948
86.516610,4663.297435,6883.915261,459.657299
86.516931,4515.256246,6735.874072,842.705048
86.517251,3627.009116,6883.915261,306.438199
86.517572,4219.173869,6883.915261,0.000000
86.517893,5033.400406,6809.894666,0.000000
86.518214,5551.544565,7105.977043,383.047749
86.518535,5921.647536,8290.306550,1149.143247
86.518855,6587.832884,9104.533087,76.609550
86.519176,7550.100608,8882.471304,-612.876398
86.519497,7402.059420,7772.162391,-612.876398
86.519818,7328.038826,6809.894666,-919.314598
86.520138,6513.812290,5847.626942,-1455.581446
86.520459,6291.750507,4737.318029,-229.828649
86.520780,6143.709319,4145.153275,383.047749
86.521101,6661.853478,4219.173869,995.924147
86.521422,7476.080014,4293.194464,459.657299
86.521742,7624.121203,6291.750507,-306.438199
86.522063,6883.915261,6883.915261,-919.314598
86.522384,7550.100608,7550.100608,-995.924147
86.522705,9030.512492,7846.182985,-383.047749
86.523026,9030.512492,8142.265362,-153.219100
86.523346,8438.347739,8882.471304,-766.095498
86.523667,7328.038826,8586.388927,-2298.286494
86.523988,5847.626942,8512.368333,-3064.381992
86.524309,5551.544565,7772.162391,-919.314598
86.524629,5033.400406,5995.668130,459.657299
86.524950,3997.112087,6365.771101,766.095498
86.525271,3108.864956,6661.853478,459.657299
86.525592,2738.761985,7994.224174,-1149.143247
86.525913,2738.761985,9252.574275,-459.657299
86.526233,3478.967927,10214.842000,306.438199
86.526554,3552.988522,11695.253884,995.924147
86.526875,3108.864956,12435.459826,536.266849
86.527196,3330.926739,12731.542202,153.219100
86.527516,2960.823768,11843.295072,-842.705048
86.527837,2368.659014,11251.130318,-1532.190996
86.528158,1702.473667,9992.780217,-842.705048
86.528479,1184.329507,9104.533087,0.000000
86.528800,592.164754,9030.512492,919.314598
86.529120,740.205942,8660.409521,919.314598
86.529441,1628.453072,8438.347739,383.047749
86.529762,2220.617826,9400.615463,0.000000
86.530083,2516.700203,10584.944971,229.828649
86.530403,3775.050304,11177.109724,229.828649
86.530724,5329.482782,10658.965565,306.438199
86.531045,6513.812290,9178.553681,459.657299
86.531366,7105.977043,8068.244768,0.000000
86.531687,7402.059420,7402.059420,-766.095498
86.532007,6513.812290,6809.894666,-1532.190996
86.532328,7328.038826,5551.544565,-1302.362347
86.532649,8364.327145,3923.091493,0.000000
86.532970,8438.347739,2590.720797,306.438199
86.533290,7994.224174,2516.700203,-306.438199
86.533611,8660.409521,3108.864956,-1225.752797
86.533932,8586.388927,4663.297435,-919.314598
86.534253,9400.615463,6143.709319,153.219100
86.534574,9104.533087,7624.121203,-536.266849
86.534894,8660.409521,8882.471304,-2451.505594
86.535215,7328.038826,9326.594869,-3140.991542
86.535536,6069.688724,9474.636058,-2528.115143
86.535857,4737.318029,8660.409521,-2145.067394
86.536177,3478.967927,7994.224174,-995.924147
86.536498,1480.411884,8438.347739,0.000000
86.536819,-962.267725,9178.553681,1532.190996
86.537140,-2072.576638,10288.862594,1762.019645
86.537461,-2516.700203,10658.965565,2145.067394
86.537781,-2960.823768,10140.821405,1608.800546
86.538102,-1850.514855,10214.842000,2834.553343
86.538423,-1628.453072,11547.212695,3524.039291
86.538744,-2368.659014,13175.665768,2834.553343
86.539064,-1036.288319,13915.871710,1455.581446
86.539385,444.123565,12731.542202,0.000000
86.539706,1480.411884,11251.130318,0.000000
86.540027,2812.782580,10658.965565,1455.581446
86.540348,3034.844362,9474.636058,919.314598
86.540668,3404.947333,8364.327145,383.047749
86.540989,4737.318029,7550.100608,459.657299
86.541310,5699.585753,6883.915261,153.219100
86.541631,7698.141797,5625.565159,-1149.143247
86.541952,9326.594869,4737.318029,-689.485948
86.542272,11103.089130,5773.606348,-306.438199
86.542593,10955.047942,6513.812290,-383.047749
86.542914,11177.109724,7328.038826,-2145.067394
86.543235,12361.439231,6809.894666,-3370.820191
86.543555,11473.192101,5403.503377,-2911.162892
86.543876,10288.862594,4589.276840,-2374.896044
86.544197,9844.739029,3849.070898,-1991.848295
86.544518,8660.409521,4589.276840,-1838.629195
86.544839,7698.141797,4737.318029,-1225.752797
86.545159,6809.894666,5255.462188,-689.485948
86.545480,5847.626942,5033.400406,-919.314598
86.545801,5255.462188,5773.606348,229.828649
86.546122,5403.503377,6439.791695,1378.971896
86.546442,4885.359217,7105.977043,1838.629195
86.546763,4737.318029,8290.306550,1685.410096
86.547084,5625.565159,9844.739029,0.000000
86.547405,5995.668130,10214.842000,-1149.143247
86.547726,5181.441594,9104.533087,-1225.752797
86.548046,5033.400406,7476.080014,-612.876398
86.548367,4515.256246,6957.935855,536.266849
86.548688,3627.009116,6069.688724,1991.848295
86.549009,4589.276840,6069.688724,2451.505594
86.549329,5255.462188,7105.977043,995.924147
86.549650,5773.606348,7994.224174,306.438199
86.549971,6143.709319,8068.244768,0.000000
86.550292,6957.935855,8586.388927,-612.876398
86.550613,7476.080014,9548.656652,459.657299
86.550933,7698.141797,10436.903782,76.609550
86.551254,8142.265362,10510.924376,-1608.800546
86.551575,7179.997637,9622.677246,-3140.991542
86.551896,5181.441594,9474.636058,-3447.429741
86.552216,4663.297435,8808.450710,-1608.800546
86.552537,4663.297435,8068.244768,153.219100
86.552858,3775.050304,8808.450710,689.485948
86.553179,2220.617826,9474.636058,536.266849
86.553500,1110.308913,9104.533087,-306.438199
86.553820,518.144159,8956.491898,-229.828649
86.554141,1554.432478,8586.388927,689.485948
86.554462,2368.659014,9474.636058,1838.629195
86.554783,1998.556043,11399.171507,1685.410096
86.555103,2590.720797,12509.480420,842.705048
86.555424,2738.761985,12139.377449,-536.266849
86.555745,2886.803174,10436.903782,-306.438199
86.556066,1924.535449,8216.285956,306.438199
86.556387,1998.556043,6513.812290,536.266849
86.556707,1998.556043,6217.729913,1149.143247
86.557028,1702.473667,6957.935855,1378.971896
86.557349,2442.679609,7624.121203,306.438199
86.557670,3330.926739,7698.141797,-306.438199
86.557990,4811.338623,7179.997637,76.609550
86.558311,5403.503377,8068.244768,612.876398
86.558632,5921.647536,8882.471304,1149.143247
86.558953,6365.771101,9326.594869,153.219100
86.559274,6957.935855,7772.162391,-995.924147
86.559594,6513.812290,6217.729913,-1915.238745
86.559915,6809.894666,5551.544565,-1302.362347
86.560236,6365.771101,5329.482782,-1608.800546
86.560557,6143.709319,5625.565159,-919.314598
86.560877,6069.688724,5773.606348,0.000000
86.561198,5477.523971,6069.688724,0.000000
86.561519,5477.523971,5033.400406,-766.095498
86.561840,6291.750507,4959.379811,0.000000
86.562161,6809.894666,6957.935855,766.095498
86.562481,7105.977043,8586.388927,612.876398
86.562802,7031.956449,10436.903782,0.000000
86.563123,8142.265362,10362.883188,-1378.971896
86.563444,8290.306550,9400.615463,-766.095498
86.563764,7698.141797,7624.121203,459.657299
86.564085,5847.626942,5995.668130,689.485948
86.564406,5107.421000,5181.441594,536.266849
86.564727,4737.318029,5699.585753,842.705048
86.565048,4737.318029,6069.688724,842.705048
86.565368,4367.215058,6513.812290,0.000000
86.565689,4885.359217,7105.977043,-229.828649
86.566010,6365.771101,8290.306550,689.485948
86.566331,6069.688724,9474.636058,1378.971896
86.566651,5625.565159,9696.697840,1149.143247
86.566972,6439.791695,10288.862594,-459.657299
86.567293,6883.915261,10288.862594,-1072.533697
86.567614,6291.750507,9326.594869,-2221.676944
86.567935,6143.709319,7624.121203,-2221.676944
86.568255,6291.750507,7031.956449,-2221.676944
86.568576,5921.647536,7105.977043,-689.485948
86.568897,5107.421000,6587.832884,1149.143247
86.569218,4219.173869,5773.606348,-536.266849
86.569538,4367.215058,5625.565159,-1072.533697
86.569859,5181.441594,6587.832884,-306.438199
86.570180,6143.709319,7550.100608,306.438199
86.570501,6069.688724,9474.636058,-229.828649
86.570822,5625.565159,11325.150913,-1149.143247
86.571142,5329.482782,12065.356855,-2451.505594
86.571463,5255.462188,10881.027347,-2221.676944
86.571784,5033.400406,8660.409521,-1455.581446
86.572105,3775.050304,7698.141797,-459.657299
86.572425,2516.700203,7846.182985,229.828649
86.572746,2294.638420,8364.327145,919.314598
86.573067,1110.308913,9252.574275,689.485948
86.573388,814.226536,8734.430116,-306.438199
86.573709,1480.411884,8882.471304,0.000000
86.574029,2220.617826,8808.450710,1225.752797
86.574350,2220.617826,10584.944971,1991.848295
86.574671,2664.741391,11843.295072,1991.848295
86.574992,2960.823768,12509.480420,0.000000
86.575312,3404.947333,11399.171507,-1378.971896
86.575633,3552.988522,9178.553681,-766.095498
86.575954,4367.215058,8660.409521,0.000000
86.576275,4145.153275,8438.347739,612.876398
86.576596,3256.906145,8142.265362,689.485948
86.576916,4293.194464,7846.182985,842.705048
86.577237,5255.462188,6661.853478,459.657299
86.577558,5477.523971,5995.668130,229.828649
86.577879,6439.791695,5181.441594,306.438199
86.578200,8438.347739,5921.647536,689.485948
86.578520,9104.533087,7105.977043,1302.362347
86.578841,8734.430116,8512.368333,383.047749
86.579162,9548.656652,7920.203579,-919.314598
86.579483,9622.677246,6513.812290,-2221.676944
86.579803,8438.347739,4811.338623,-1378.971896
86.580124,8438.347739,3552.988522,0.000000
86.580445,7994.224174,3849.070898,-153.219100
86.580766,6735.874072,4885.359217,0.000000
86.581087,5847.626942,6069.688724,0.000000
86.581407,4737.318029,6291.750507,0.000000
86.581728,4811.338623,5403.503377,-689.485948
86.582049,5995.668130,5551.544565,995.924147
86.582370,5773.606348,7920.203579,995.924147
86.582690,4071.132681,10140.821405,383.047749
86.583011,2664.741391,11621.233289,-1225.752797
86.583332,3330.926739,11103.089130,-1915.238745
86.583653,2812.782580,9548.656652,-842.705048
86.583974,2516.700203,8808.450710,689.485948
86.584294,962.267725,8734.430116,383.047749
86.584615,296.082377,9178.553681,536.266849
86.584936,0.000000,9548.656652,1072.533697
86.585257,148.041188,9104.533087,1302.362347
86.585577,666.185348,8216.285956,919.314598
86.585898,1924.535449,7698.141797,995.924147
86.586219,3997.112087,8808.450710,1532.190996
86.586540,4441.235652,11029.068536,842.705048
86.586861,4071.132681,12213.398043,-1072.533697
86.587181,5699.585753,11843.295072,-2681.334243
86.587502,7328.038826,10510.924376,-2451.505594
86.587823,7179.997637,9178.553681,-995.924147
86.588144,6661.853478,7846.182985,-1302.362347
86.588464,5995.668130,7254.018232,-2451.505594
86.588785,5551.544565,7402.059420,-1915.238745
86.589106,5773.606348,8068.244768,-995.924147
86.589427,5699.585753,8290.306550,-1378.971896
86.589748,6069.688724,6513.812290,-1378.971896
86.590068,6735.874072,7254.018232,-306.438199
86.590389,6069.688724,9178.553681,459.657299
86.590710,4959.379811,10658.965565,0.000000
86.591031,5403.503377,10214.842000,-1378.971896
86.591351,6217.729913,9326.594869,-1838.629195
86.591672,5699.585753,7846.182985,-766.095498
86.591993,5255.462188,5921.647536,536.266849
86.592314,5107.421000,6291.750507,459.657299
86.592635,3256.906145,7105.977043,383.047749
86.592955,3404.947333,7846.182985,76.609550
86.593276,4293.194464,7846.182985,-229.828649
86.593597,4885.359217,7994.224174,-383.047749
86.593918,4959.379811,7254.018232,76.609550
86.594238,6661.853478,7105.977043,995.924147
86.594559,6143.709319,8068.244768,1149.143247
86.594880,5847.626942,9178.553681,383.047749
86.595201,6809.894666,9326.594869,-306.438199
86.595522,8438.347739,7698.141797,-1378.971896
86.595842,7328.038826,6143.709319,-766.095498
86.596163,6439.791695,5403.503377,-153.219100
86.596484,6957.935855,5773.606348,-306.438199
86.596805,5921.647536,5921.647536,-383.047749
86.597125,5181.441594,6217.729913,0.000000
86.597446,5625.565159,5773.606348,-689.485948
86.597767,6069.688724,5699.585753,-612.876398
86.598088,6735.874072,7179.997637,229.828649
86.598409,5995.668130,9548.656652,459.657299
86.598729,5329.482782,10955.047942,0.000000
86.599050,5329.482782,10807.006753,-306.438199
86.599371,5403.503377,9400.615463,0.000000
86.599692,4959.379811,7846.182985,536.266849
86.600012,4737.318029,7179.997637,383.047749
86.600333,2664.741391,6883.915261,-689.485948
86.600654,2368.659014,7402.059420,0.000000
86.600975,2886.803174,7550.100608,1762.019645
86.601296,3108.864956,7105.977043,1532.190996
86.601616,2664.741391,6809.894666,383.047749
86.601937,4071.132681,7328.038826,383.047749
86.602258,4441.235652,8808.450710,919.314598
86.602579,3997.112087,9474.636058,919.314598
86.602899,4811.338623,10066.800811,536.266849
86.603220,6143.709319,10214.842000,-919.314598
86.603541,5403.503377,9252.574275,-1532.190996
86.603862,4737.318029,8364.327145,-1072.533697
86.604183,4885.359217,7550.100608,-1991.848295
86.604503,4737.318029,7624.121203,-2145.067394
86.604824,4145.153275,7328.038826,-612.876398
86.605145,3478.967927,6957.935855,76.609550
86.605466,3182.885551,6365.771101,-459.657299
86.605786,4071.132681,6735.874072,-459.657299
86.606107,4071.132681,8142.265362,-536.266849
86.606428,3701.029710,9622.677246,-919.314598
86.606749,3997.112087,10732.986159,-842.705048
86.607070,4959.379811,11399.171507,-1532.190996
86.607390,5107.421000,10584.944971,-995.924147
86.607711,4663.297435,9770.718434,-689.485948
86.608032,3478.967927,8290.306550,-536.266849
86.608353,2886.803174,7698.141797,-1072.533697
86.608673,3775.050304,7550.100608,76.609550
86.608994,3701.029710,7402.059420,766.095498
86.609315,3701.029710,7105.977043,-153.219100
86.609636,4367.215058,7179.997637,-383.047749
86.609957,5551.544565,8216.285956,-459.657299
86.610277,5995.668130,9178.553681,0.000000
86.610598,5995.668130,9844.739029,229.828649
86.610919,6883.915261,10510.924376,-153.219100
86.611240,7550.100608,10436.903782,-1378.971896
86.611560,6809.894666,8882.471304,-919.314598
86.611881,7105.977043,7550.100608,-612.876398
86.612202,6439.791695,7328.038826,-689.485948
86.612523,5847.626942,7402.059420,-306.438199
86.612844,4959.379811,7254.018232,229.828649
86.613164,5107.421000,6513.812290,-153.219100
86.613485,5107.421000,5773.606348,-536.266849
86.613806,6217.729913,5773.606348,0.000000
86.614127,6143.709319,7550.100608,459.657299
86.614447,5551.544565,9252.574275,0.000000
86.614768,5847.626942,10140.821405,-459.657299
86.615089,6883.915261,10955.047942,-1149.143247
86.615410,6439.791695,9770.718434,-689.485948
86.615731,5551.544565,8512.368333,0.000000
86.616051,5329.482782,7031.956449,229.828649
86.616372,4737.318029,6365.771101,76.609550
86.616693,3997.112087,6217.729913,689.485948
86.617014,3775.050304,6069.688724,919.314598
86.617335,3256.906145,5699.585753,0.000000
86.617655,4293.194464,5699.585753,0.000000
86.617976,5773.606348,6365.771101,1762.019645
86.618297,6069.688724,7772.162391,1608.800546
86.618618,5255.462188,9178.553681,919.314598
86.618938,5033.400406,9474.636058,-612.876398
86.619259,6069.688724,9326.594869,-1532.190996
86.619580,5699.585753,7772.162391,-612.876398
86.619901,5477.523971,6809.894666,-383.047749
86.620222,4959.379811,6957.935855,-919.314598
86.620542,4589.276840,7920.203579,-1455.581446
86.620863,3182.885551,8216.285956,0.000000
86.621184,3182.885551,7328.038826,229.828649
86.621505,3997.112087,6217.729913,76.609550
86.621825,4663.297435,6587.832884,1072.533697
86.622146,4219.173869,7476.080014,995.924147
86.622467,4071.132681,9178.553681,689.485948
86.622788,4367.215058,10214.842000,153.219100
86.623108,5255.462188,10732.986159,-689.485948
86.623429,4737.318029,9770.718434,-842.705048
86.623750,4885.359217,8882.471304,-306.438199
86.624071,4589.276840,8808.450710,-229.828649
86.624392,4145.153275,8956.491898,-229.828649
86.624712,3775.050304,8068.244768,919.314598
86.625033,4293.194464,7105.977043,995.924147
86.625354,4219.173869,6587.832884,306.438199
86.625675,4959.379811,6365.771101,842.705048
86.625995,5847.626942,7550.100608,766.095498
86.626316,5921.647536,8734.430116,612.876398
86.626637,6217.729913,9400.615463,536.266849
86.626958,7105.977043,9474.636058,-612.876398
86.627279,7476.080014,9696.697840,-995.924147
86.627599,7031.956449,9252.574275,-995.924147
86.627920,5403.503377,8216.285956,-1685.410096
86.628241,5551.544565,7550.100608,-1991.848295
86.628562,5403.503377,7772.162391,-306.438199
86.628882,4737.318029,7698.141797,995.924147
86.629203,4145.153275,7179.997637,229.828649
86.629524,4737.318029,6809.894666,0.000000
86.629845,4515.256246,7476.080014,76.609550
86.630165,4071.132681,7624.121203,0.000000
86.630486,4589.276840,7994.224174,536.266849
86.630807,5995.668130,9400.615463,0.000000
86.631128,5625.565159,10436.903782,-766.095498
86.631449,5477.523971,10362.883188,-1149.143247
86.631769,5255.462188,9252.574275,-1991.848295
86.632090,4589.276840,8364.327145,-1455.581446
86.632411,4515.256246,7328.038826,0.000000
86.632732,4959.379811,6439.791695,766.095498
86.633052,4293.194464,6291.750507,153.219100
86.633373,3849.070898,6735.874072,0.000000
86.633694,4959.379811,7846.182985,306.438199
86.634015,5255.462188,7846.182985,153.219100
86.634335,5477.523971,7846.182985,536.266849
86.634656,6513.812290,8734.430116,229.828649
86.634977,6217.729913,10066.800811,-536.266849
86.635298,5847.626942,9696.697840,-536.266849
86.635619,5995.668130,8882.471304,-919.314598
86.635939,5477.523971,8364.327145,-1149.143247
86.636260,5107.421000,7994.224174,-766.095498
86.636581,4589.276840,7031.956449,0.000000
86.636902,3701.029710,6735.874072,153.219100
86.637222,3182.885551,7550.100608,459.657299
86.637543,3775.050304,7179.997637,306.438199
86.637864,4293.194464,6661.853478,153.219100
86.638185,4811.338623,7254.018232,306.438199
86.638505,4959.379811,9252.574275,995.924147
86.638826,5033.400406,11029.068536,76.609550
86.639147,5625.565159,10807.006753,-153.219100
86.639468,5625.565159,10362.883188,536.266849
86.639789,5625.565159,8734.430116,842.705048
86.640109,4589.276840,7402.059420,153.219100
86.640430,3775.050304,6143.709319,0.000000
86.640751,3849.070898,5255.462188,306.438199
86.641072,3627.009116,5477.523971,306.438199
86.641392,4515.256246,6143.709319,612.876398
86.641713,5773.606348,7105.977043,153.219100
86.642034,6291.750507,8290.306550,612.876398
86.642355,5921.647536,8882.471304,459.657299
86.642676,6439.791695,9252.574275,383.047749
86.642996,7105.977043,9770.718434,-536.266849
86.643317,6957.935855,8882.471304,-383.047749
86.643638,6883.915261,7105.977043,-689.485948
86.643959,6069.688724,6883.915261,-995.924147
86.644279,4811.338623,6809.894666,-612.876398
86.644600,4737.318029,7328.038826,-536.266849
86.644921,4441.235652,6809.894666,153.219100
86.645242,3849.070898,6513.812290,0.000000
86.645562,3775.050304,6439.791695,383.047749
86.645883,4589.276840,6661.853478,536.266849
86.646204,3923.091493,8216.285956,383.047749
86.646525,4293.194464,9326.594869,612.876398
86.646846,5181.441594,10732.986159,0.000000
86.647166,5995.668130,11029.068536,-766.095498
86.647487,5921.647536,10066.800811,-153.219100
86.647808,5773.606348,8586.388927,-153.219100
86.648129,5181.441594,7402.059420,-919.314598
86.648449,4737.318029,6143.709319,-459.657299
86.648770,4293.194464,5403.503377,306.438199
86.649091,5033.400406,5699.585753,689.485948
86.649412,5255.462188,6587.832884,383.047749
86.649732,5181.441594,7476.080014,-306.438199
86.650053,5773.606348,7994.224174,-383.047749
86.650374,6661.853478,8808.450710,0.000000
86.650695,6883.915261,9400.615463,0.000000
86.651016,6883.915261,10362.883188,-995.924147
86.651336,6587.832884,9622.677246,-1378.971896
86.651657,5995.668130,8660.409521,-1762.019645
86.651978,4737.318029,7772.162391,-1225.752797
86.652299,4959.379811,7624.121203,-766.095498
86.652619,3849.070898,7698.141797,-306.438199
86.652940,3034.844362,7624.121203,153.219100
86.653261,2516.700203,7328.038826,-229.828649
86.653582,2886.803174,7179.997637,-842.705048
86.653903,3552.988522,7105.977043,-536.266849
86.654223,3701.029710,8290.306550,153.219100
86.654544,4811.338623,10584.944971,229.828649
86.654865,5255.462188,12287.418637,-229.828649
86.655186,4959.379811,11843.295072,-1149.143247
86.655506,5181.441594,10140.821405,-383.047749
86.655827,5477.523971,8882.471304,842.705048
86.656148,3775.050304,7328.038826,306.438199
86.656469,3256.906145,6587.832884,-153.219100
86.656789,3849.070898,6365.771101,-229.828649
86.657110,3997.112087,6587.832884,-153.219100
86.657431,3552.988522,6365.771101,-306.438199
86.657752,4663.297435,6587.832884,229.828649
86.658073,5625.565159,8216.285956,689.485948
86.658393,5551.544565,9696.697840,766.095498
86.658714,6143.709319,10288.862594,-229.828649
86.659035,7105.977043,10807.006753,-1149.143247
86.659356,6587.832884,9326.594869,-1378.971896
86.659676,5921.647536,7254.018232,-842.705048
86.659997,6587.832884,5995.668130,-383.047749
86.660318,5403.503377,5477.523971,-229.828649
86.660639,4293.194464,6291.750507,0.000000
86.660959,4071.132681,6957.935855,383.047749
86.661280,4367.215058,7179.997637,76.609550
86.661601,3997.112087,6661.853478,0.000000
86.661922,5403.503377,6291.750507,842.705048
86.662243,5773.606348,7105.977043,1149.143247
86.662563,4811.338623,9622.677246,459.657299
86.662884,4959.379811,11103.089130,-459.657299
86.663205,5551.544565,11177.109724,-1455.581446
86.663526,5403.503377,8956.491898,-1225.752797
86.663846,5551.544565,7254.018232,459.657299
86.664167,5033.400406,7031.956449,919.314598
86.664488,3256.906145,7476.080014,153.219100
86.664809,2664.741391,7105.977043,0.000000
86.665130,3552.988522,6883.915261,689.485948
86.665450,3849.070898,6217.729913,612.876398
86.665771,4737.318029,5773.606348,919.314598
86.666092,5921.647536,6291.750507,995.924147
86.666413,6069.688724,9104.533087,995.924147
86.666733,5847.626942,10955.047942,76.609550
86.667054,6513.812290,10214.842000,-1991.848295
86.667375,7698.141797,8512.368333,-2374.896044
86.667696,7179.997637,7105.977043,-1378.971896
86.668016,6735.874072,6365.771101,-612.876398
86.668337,5773.606348,6957.935855,-1762.019645
86.668658,4959.379811,7624.121203,-1072.533697
86.668979,5107.421000,7772.162391,76.609550
86.669300,4959.379811,7031.956449,0.000000
86.669620,4441.235652,5995.668130,-536.266849
86.669941,5107.421000,6291.750507,0.000000
86.670262,5255.462188,8290.306550,383.047749
86.670583,5255.462188,9918.759623,0.000000
86.670903,4959.379811,10658.965565,-689.485948
86.671224,5995.668130,10436.903782,-612.876398
86.671545,5551.544565,9474.636058,-1455.581446
86.671866,4663.297435,7846.182985,-383.047749
86.672186,4145.153275,6957.935855,383.047749
86.672507,3256.906145,7772.162391,0.000000
86.672828,3182.885551,8216.285956,459.657299
86.673149,3404.947333,8290.306550,153.219100
86.673470,3404.947333,7846.182985,76.609550
86.673790,3627.009116,7328.038826,229.828649
86.674111,5181.441594,7624.121203,842.705048
86.674432,5477.523971,9548.656652,842.705048
86.674753,5477.523971,11103.089130,0.000000
86.675073,6883.915261,11177.109724,-995.924147
86.675394,7328.038826,9474.636058,-2374.896044
86.675715,5847.626942,6957.935855,-2374.896044
86.676036,5625.565159,6069.688724,-612.876398
86.676356,5329.482782,6661.853478,229.828649
86.676677,4145.153275,7550.100608,306.438199
86.676998,4219.173869,7994.224174,-459.657299
86.677319,4293.194464,8068.244768,-1302.362347
86.677640,3627.009116,7328.038826,-1532.190996
86.677960,4145.153275,7031.956449,0.000000
86.678281,5181.441594,8438.347739,919.314598
86.678602,5181.441594,10881.027347,383.047749
86.678923,4737.318029,11695.253884,0.000000
86.679243,4959.379811,10881.027347,-1302.362347
86.679564,4885.359217,9474.636058,-2068.457845
86.679885,3701.029710,7105.977043,229.828649
86.680206,4367.215058,6143.709319,1225.752797
86.680527,3478.967927,6217.729913,1455.581446
86.680847,2738.761985,7550.100608,766.095498
86.681168,2960.823768,8438.347739,-76.609550
86.681489,3701.029710,8586.388927,-383.047749
86.681810,3552.988522,6883.915261,459.657299
86.682130,5551.544565,6439.791695,1455.581446
86.682451,6513.812290,8068.244768,1455.581446
86.682772,5477.523971,10362.883188,459.657299
86.683093,5255.462188,10510.924376,-842.705048
86.683413,6513.812290,8808.450710,-1838.629195
86.683734,7105.977043,6143.709319,-2221.676944
86.684055,6587.832884,5255.462188,76.609550
86.684376,6217.729913,5921.647536,459.657299
86.684697,4737.318029,7402.059420,-153.219100
86.685017,4293.194464,7698.141797,-459.657299
86.685338,4367.215058,7328.038826,-1149.143247
86.685659,4367.215058,6069.688724,-995.924147
86.685980,4959.379811,5329.482782,0.000000
86.686300,6217.729913,7846.182985,1225.752797
86.686621,5329.482782,10510.924376,766.095498
86.686942,4737.318029,11547.212695,-153.219100
86.687263,5699.585753,10436.903782,-1608.800546
86.687583,6513.812290,8438.347739,-1762.019645
86.687904,5477.523971,6439.791695,-229.828649
86.688225,5255.462188,5847.626942,306.438199
86.688546,4441.235652,5255.462188,0.000000
86.688867,3997.112087,7105.977043,229.828649
86.689187,4293.194464,8364.327145,536.266849
86.689508,4663.297435,7994.224174,-536.266849
86.689829,4737.318029,6661.853478,-612.876398
86.690150,5995.668130,7105.977043,612.876398
86.690470,6069.688724,9548.656652,1302.362347
86.690791,4885.359217,10584.944971,842.705048
86.691112,6365.771101,10510.924376,-689.485948
86.691433,7328.038826,9696.697840,-1838.629195
86.691754,6291.750507,7994.224174,-1225.752797
86.692074,5995.668130,6735.874072,-229.828649
86.692395,5181.441594,7328.038826,-383.047749
86.692716,3997.112087,7772.162391,-153.219100
86.693037,4145.153275,8142.265362,459.657299
86.693357,4219.173869,7476.080014,-1072.533697
86.693678,3182.885551,6143.709319,-1991.848295
86.693999,3849.070898,6661.853478,-995.924147
86.694320,4959.379811,9252.574275,459.657299
86.694640,4811.338623,11843.295072,0.000000
86.694961,5033.400406,12879.583391,0.000000
86.695282,6661.853478,11843.295072,-766.095498
86.695603,5699.585753,9696.697840,-1608.800546
86.695924,4145.153275,7772.162391,76.609550
86.696244,4441.235652,6365.771101,612.876398
86.696565,3997.112087,5921.647536,-229.828649
86.696886,3627.009116,6735.874072,459.657299
86.697207,3478.967927,7179.997637,536.266849
86.697527,3330.926739,7772.162391,-689.485948
86.697848,3478.967927,7328.038826,-612.876398
86.698169,5255.462188,7920.203579,689.485948
86.698490,5699.585753,9474.636058,1378.971896
86.698810,5255.462188,11177.109724,459.657299
86.699131,5477.523971,11843.295072,-459.657299
86.699452,5625.565159,10584.944971,-1302.362347
86.699773,4959.379811,7402.059420,-1378.971896
86.700094,5847.626942,5107.421000,229.828649
86.700414,5255.462188,4959.379811,842.705048
86.700735,4071.132681,6809.894666,689.485948
86.701056,4145.153275,7328.038826,306.438199
86.701377,4515.256246,7402.059420,-995.924147
86.701697,4219.173869,5921.647536,-1225.752797
86.702018,5551.544565,5847.626942,153.219100
86.702339,6513.812290,7846.182985,1072.533697
86.702660,5403.503377,10140.821405,459.657299
86.702980,5107.421000,11399.171507,-229.828649
86.703301,5995.668130,10214.842000,-1455.581446
86.703622,6217.729913,7846.182985,-1838.629195
86.703943,5329.482782,6291.750507,536.266849
86.704264,5477.523971,6143.709319,689.485948
86.704584,4071.132681,6883.915261,-383.047749
86.704905,3627.009116,7254.018232,-306.438199
86.705226,4515.256246,7105.977043,229.828649
86.705547,4145.153275,6217.729913,229.828649
86.705867,4589.276840,5921.647536,1072.533697
86.706188,6365.771101,6883.915261,1685.410096
86.706509,5921.647536,8808.450710,766.095498
86.706830,5181.441594,10066.800811,0.000000
86.707151,6217.729913,9770.718434,-383.047749
86.707471,7476.080014,8586.388927,-1532.190996
86.707792,7105.977043,7105.977043,-995.924147
86.708113,6513.812290,6809.894666,-229.828649
86.708434,5181.441594,6661.853478,-1685.410096
86.708754,4663.297435,7179.997637,0.000000
86.709075,4663.297435,7550.100608,1072.533697
86.709396,4663.297435,6809.894666,0.000000
86.709717,4441.235652,5625.565159,-1225.752797
86.710037,5625.565159,6291.750507,0.000000
86.710358,6069.688724,8882.471304,612.876398
86.710679,5255.462188,10732.986159,383.047749
86.711000,4885.359217,11325.150913,-459.657299
86.711321,6069.688724,10658.965565,-1378.971896
86.711641,5477.523971,8512.368333,-1378.971896
86.711962,4737.318029,7624.121203,-766.095498
86.712283,4145.153275,7254.018232,-766.095498
86.712604,3404.947333,8216.285956,0.000000
86.712924,3256.906145,8956.491898,766.095498
86.713245,3404.947333,8808.450710,459.657299
86.713566,3478.967927,7994.224174,-383.047749
86.713887,3923.091493,7105.977043,153.219100
86.714207,4885.359217,8068.244768,1072.533697
86.714528,4737.318029,9844.739029,1225.752797
86.714849,4959.379811,11103.089130,536.266849
86.715170,6069.688724,10807.006753,-306.438199
86.715491,6439.791695,9474.636058,-1532.190996
86.715811,5255.462188,7846.182985,-1072.533697
86.716132,5181.441594,7105.977043,-229.828649
86.716453,4737.318029,7105.977043,-689.485948
86.716774,4663.297435,7254.018232,153.219100
86.717094,4367.215058,7179.997637,459.657299
86.717415,4441.235652,7031.956449,-536.266849
86.717736,3923.091493,6587.832884,-536.266849
86.718057,4959.379811,7624.121203,0.000000
86.718378,5033.400406,9548.656652,536.266849
86.718698,4959.379811,10436.903782,76.609550
86.719019,5255.462188,10288.862594,-383.047749
86.719340,6069.688724,8882.471304,-842.705048
86.719661,4959.379811,6957.935855,-919.314598
86.719981,4663.297435,6291.750507,0.000000
86.720302,4145.153275,6513.812290,-383.047749
86.720623,3701.029710,7624.121203,-306.438199
86.720944,3997.112087,7698.141797,1455.581446
86.721264,4589.276840,7846.182985,1225.752797
86.721585,4589.276840,6513.812290,153.219100
86.721906,4589.276840,5625.565159,459.657299
86.722227,5773.606348,6661.853478,842.705048
86.722548,5921.647536,8956.491898,919.314598
86.722868,5551.544565,9548.656652,-306.438199
86.723189,7624.121203,9474.636058,-1072.533697
86.723510,7772.162391,7994.224174,-1225.752797
86.723831,6661.853478,7254.018232,-919.314598
86.724151,5329.482782,6513.812290,-612.876398
86.724476,5329.482782,6143.709319,-306.438199
86.724796,4959.379811,5773.606348,919.314598
86.725117,4885.359217,6291.750507,1225.752797
86.725438,4441.235652,6439.791695,-383.047749
86.725759,4737.318029,6513.812290,-1455.581446
86.726079,5625.565159,8216.285956,0.000000
86.726400,5847.626942,9400.615463,459.657299
86.726721,5847.626942,9918.759623,76.609550
86.727041,5551.544565,9844.739029,-459.657299
86.727362,5921.647536,9548.656652,-766.095498
86.727683,5551.544565,8882.471304,0.000000
86.728004,4663.297435,7698.141797,-383.047749
86.728324,4367.215058,7328.038826,-1149.143247
86.728645,4071.132681,7476.080014,0.000000
86.728966,3552.988522,7698.141797,612.876398
86.729286,2738.761985,7328.038826,612.876398
86.729607,3627.009116,6513.812290,-153.219100
86.729928,5107.421000,7105.977043,459.657299
86.730249,5107.421000,8660.409521,536.266849
86.730569,5033.400406,10436.903782,153.219100
86.730890,6439.791695,11769.274478,-612.876398
86.731211,7105.977043,11473.192101,-1302.362347
86.731532,6661.853478,8882.471304,-1072.533697
86.731852,6587.832884,7105.977043,-919.314598
86.732173,5255.462188,6957.935855,-1072.533697
86.732494,4219.173869,7179.997637,-1149.143247
86.732814,3478.967927,6883.915261,0.000000
86.733135,4219.173869,7031.956449,-612.876398
86.733456,3997.112087,6809.894666,-995.924147
86.733777,4145.153275,6587.832884,-689.485948
86.734097,4811.338623,8142.265362,76.609550
86.734418,4663.297435,10288.862594,76.609550
86.734739,4589.276840,11843.295072,0.000000
86.735059,5477.523971,12287.418637,-1149.143247
86.735380,6513.812290,10807.006753,-1378.971896
86.735701,5329.482782,8512.368333,-383.047749
86.736022,5329.482782,6957.935855,0.000000
86.736342,3701.029710,6957.935855,0.000000
86.736663,3404.947333,7105.977043,459.657299
86.736984,3256.906145,6883.915261,919.314598
86.737305,3997.112087,6957.935855,306.438199
86.737625,3552.988522,5921.647536,0.000000
86.737946,4145.153275,6735.874072,306.438199
86.738267,5033.400406,8364.327145,919.314598
86.738587,5551.544565,11251.130318,153.219100
86.738908,5773.606348,11917.315666,-612.876398
86.739229,7179.997637,10955.047942,-689.485948
86.739550,7105.977043,8882.471304,-766.095498
86.739870,5551.544565,6217.729913,383.047749
86.740191,5403.503377,5107.421000,536.266849
86.740512,4737.318029,5699.585753,-306.438199
86.740832,4737.318029,6735.874072,76.609550
86.741153,4811.338623,6735.874072,0.000000
86.741474,5181.441594,5847.626942,-842.705048
86.741795,4367.215058,5403.503377,-995.924147
86.742115,5181.441594,6587.832884,76.609550
86.742436,5107.421000,9474.636058,995.924147
86.742757,4885.359217,11325.150913,229.828649
86.743078,6069.688724,11843.295072,-766.095498
86.743398,6143.709319,10510.924376,-842.705048
86.743719,4737.318029,7698.141797,-995.924147
86.744040,4071.132681,5477.523971,229.828649
86.744360,4811.338623,5255.462188,919.314598
86.744681,3478.967927,6883.915261,153.219100
86.745002,3478.967927,8142.265362,76.609550
86.745323,3849.070898,7476.080014,229.828649
86.745643,3404.947333,7105.977043,76.609550
86.745964,3849.070898,5995.668130,536.266849
86.746285,5773.606348,6439.791695,1225.752797
86.746605,5773.606348,8956.491898,766.095498
86.746926,5033.400406,11251.130318,-153.219100
86.747247,5921.647536,11547.212695,-1532.190996
86.747568,7105.977043,9844.739029,-2451.505594
86.747888,5699.585753,7254.018232,-1838.629195
86.748209,6291.750507,6069.688724,612.876398
86.748530,5255.462188,6809.894666,842.705048
86.748851,4663.297435,7254.018232,153.219100
86.749171,4737.318029,7698.141797,-612.876398
86.749492,4737.318029,6735.874072,-1378.971896
86.749813,4145.153275,5329.482782,-1149.143247
86.750133,5255.462188,6587.832884,153.219100
86.750454,5995.668130,9844.739029,766.095498
86.750775,5403.503377,11843.295072,459.657299
86.751096,5181.441594,11843.295072,-383.047749
86.751416,5773.606348,10362.883188,-1991.848295
86.751737,5477.523971,7994.224174,-2451.505594
86.752058,4515.256246,6735.874072,-689.485948
86.752378,5255.462188,6809.894666,306.438199
86.752699,4367.215058,7698.141797,306.438199
86.753020,4663.297435,8956.491898,76.609550
86.753341,4441.235652,8512.368333,-306.438199
86.753661,4219.173869,7105.977043,-459.657299
86.753982,4367.215058,6291.750507,0.000000
86.754303,6291.750507,7031.956449,1225.752797
86.754624,6143.709319,9178.553681,919.314598
86.754944,5625.565159,10807.006753,153.219100
86.755265,5921.647536,10732.986159,-459.657299
86.755586,6513.812290,9918.759623,-1915.238745
86.755906,5551.544565,7920.203579,-1685.410096
86.756227,5403.503377,6217.729913,-229.828649
86.756548,4885.359217,6365.771101,383.047749
86.756869,4515.256246,7624.121203,689.485948
86.757189,3627.009116,7698.141797,76.609550
86.757510,3552.988522,7254.018232,-995.924147
86.757831,3552.988522,6439.791695,-1302.362347
86.758151,4737.318029,7105.977043,0.000000
86.758472,4885.359217,9696.697840,995.924147
86.758793,4515.256246,11325.150913,612.876398
86.759114,4663.297435,11029.068536,-229.828649
86.759434,5033.400406,10066.800811,-1072.533697
86.759755,4737.318029,7920.203579,-1685.410096
86.760076,3849.070898,5921.647536,-459.657299
86.760397,4959.379811,5995.668130,919.314598
86.760717,3701.029710,7179.997637,1072.533697
86.761038,3627.009116,8808.450710,1072.533697
86.761359,3775.050304,8512.368333,689.485948
86.761679,4071.132681,7624.121203,-383.047749
86.762000,3775.050304,6365.771101,-536.266849
86.762321,5181.441594,6957.935855,842.705048
86.762642,5551.544565,8956.491898,919.314598
86.762962,5477.523971,10584.944971,842.705048
86.763283,6217.729913,10436.903782,0.000000
86.763604,6957.935855,9326.594869,-1378.971896
86.763924,5551.544565,7105.977043,-1685.410096
86.764245,5033.400406,5847.626942,0.000000
86.764566,5033.400406,5699.585753,383.047749
86.764887,5477.523971,6883.915261,536.266849
86.765207,4737.318029,7402.059420,0.000000
86.765528,4959.379811,7254.018232,-1302.362347
86.765849,4737.318029,6439.791695,-1455.581446
86.766170,5477.523971,6883.915261,229.828649
86.766490,5551.544565,8660.409521,1225.752797
86.766811,5773.606348,10584.944971,766.095498
86.767132,5699.585753,10807.006753,-153.219100
86.767452,5995.668130,9918.759623,-536.266849
86.767773,6217.729913,7624.121203,-919.314598
86.768094,5033.400406,6143.709319,-383.047749
86.768415,4737.318029,5773.606348,229.828649
86.768735,4515.256246,7254.018232,76.609550
86.769056,4367.215058,8142.265362,306.438199
86.769377,4441.235652,7624.121203,612.876398
86.769697,4515.256246,6143.709319,-919.314598
86.770018,4737.318029,6217.729913,-766.095498
86.770339,5773.606348,7698.141797,229.828649
86.770660,5773.606348,10436.903782,689.485948
86.770980,5477.523971,11621.233289,229.828649
86.771301,6069.688724,11029.068536,-229.828649
86.771622,6513.812290,9770.718434,-689.485948
86.771943,4663.297435,7476.080014,-1149.143247
86.772263,4589.276840,6513.812290,-919.314598
86.772584,4145.153275,6439.791695,-1149.143247
86.772905,4293.194464,7550.100608,-459.657299
86.773225,4145.153275,7994.224174,689.485948
86.773546,3627.009116,7328.038826,-766.095498
86.773867,3034.844362,6957.935855,-1532.190996
86.774188,4811.338623,8364.327145,0.000000
86.774508,4959.379811,10436.903782,689.485948
86.774829,4663.297435,11843.295072,383.047749
86.775150,5255.462188,11621.233289,-306.438199
86.775470,6291.750507,10066.800811,-995.924147
86.775791,4811.338623,7846.182985,-459.657299
86.776112,4737.318029,6809.894666,0.000000
86.776433,4441.235652,6809.894666,-842.705048
86.776753,4589.276840,7105.977043,-842.705048
86.777074,4885.359217,7624.121203,995.924147
86.777395,5107.421000,7031.956449,1149.143247
86.777716,3849.070898,5699.585753,-306.438199
86.778036,4811.338623,6217.729913,0.000000
86.778357,5255.462188,8364.327145,306.438199
86.778678,5329.482782,10362.883188,306.438199
86.778998,6291.750507,11177.109724,-153.219100
86.779319,7624.121203,10658.965565,-689.485948
86.779640,6883.915261,8882.471304,-766.095498
86.779961,5847.626942,7105.977043,76.609550
86.780281,4737.318029,5847.626942,76.609550
86.780602,4515.256246,5995.668130,-153.219100
86.780923,5033.400406,6883.915261,612.876398
86.781243,4737.318029,6661.853478,1378.971896
86.781564,4219.173869,6069.688724,-383.047749
86.781885,4293.194464,5995.668130,-1378.971896
86.782206,5107.421000,7105.977043,-153.219100
86.782526,4811.338623,8956.491898,842.705048
86.782847,4885.359217,10732.986159,1149.143247
86.783168,5477.523971,11473.192101,306.438199
86.783489,5699.585753,9918.759623,-459.657299
86.783809,4293.194464,7846.182985,306.438199
86.784130,4737.318029,6661.853478,383.047749
86.784451,4071.132681,6291.750507,-76.609550
86.784771,4293.194464,7179.997637,0.000000
86.785092,4663.297435,7476.080014,612.876398
86.785413,4367.215058,6809.894666,0.000000
86.785734,4293.194464,5329.482782,0.000000
86.786054,5625.565159,5625.565159,383.047749
86.786375,5847.626942,7476.080014,842.705048
86.786696,5773.606348,9918.759623,229.828649
86.787016,6143.709319,10881.027347,-459.657299
86.787337,7105.977043,10214.842000,-459.657299
86.787658,6439.791695,8364.327145,-383.047749
86.787979,6217.729913,7624.121203,459.657299
86.788299,5255.462188,6661.853478,-995.924147
86.788620,4515.256246,6661.853478,-1608.800546
86.788941,5033.400406,6661.853478,-612.876398
86.789262,4737.318029,6291.750507,-229.828649
86.789582,4293.194464,4959.379811,0.000000
86.789903,5329.482782,6143.709319,383.047749
86.790224,5255.462188,8290.306550,0.000000
86.790544,4737.318029,10658.965565,-306.438199
86.790865,5329.482782,11769.274478,-383.047749
86.791186,5625.565159,11621.233289,-995.924147
86.791507,5255.462188,10214.842000,-612.876398
86.791827,4663.297435,8734.430116,76.609550
86.792148,3775.050304,7772.162391,-689.485948
86.792469,3182.885551,8142.265362,-919.314598
86.792789,3627.009116,8808.450710,0.000000
86.793110,3997.112087,8512.368333,766.095498
86.793431,3701.029710,7402.059420,459.657299
86.793752,4219.173869,6143.709319,612.876398
86.794072,5477.523971,6513.812290,536.266849
86.794393,5625.565159,8142.265362,612.876398
86.794714,5181.441594,9918.759623,153.219100
86.795035,6069.688724,10881.027347,-612.876398
86.795355,7328.038826,10881.027347,-995.924147
86.795676,6661.853478,9104.533087,-689.485948
86.795997,6143.709319,7994.224174,-842.705048
86.796317,4885.359217,7846.182985,-1915.238745
86.796638,4589.276840,7550.100608,-1455.581446
86.796959,4589.276840,7105.977043,-153.219100
86.797280,4441.235652,6439.791695,459.657299
86.797600,4663.297435,5625.565159,459.657299
86.797921,5181.441594,6365.771101,536.266849
86.798242,4663.297435,7920.203579,459.657299
86.798562,4441.235652,9696.697840,0.000000
86.798883,5181.441594,10436.903782,0.000000
86.799204,6217.729913,10140.821405,153.219100
86.799525,5477.523971,8660.409521,0.000000
86.799845,4663.297435,8734.430116,229.828649
86.800166,3330.926739,7772.162391,-612.876398
86.800487,3404.947333,8216.285956,-919.314598
86.800808,4441.235652,7920.203579,612.876398
86.801128,4441.235652,6735.874072,995.924147
86.801449,3627.009116,5995.668130,1225.752797
86.801770,4071.132681,5995.668130,1302.362347
86.802090,4367.215058,6365.771101,995.924147
86.802411,4737.318029,7328.038826,995.924147
86.802732,5403.503377,8290.306550,229.828649
86.803053,6883.915261,9178.553681,0.000000
86.803373,7105.977043,9548.656652,229.828649
86.803694,6587.832884,8512.368333,0.000000
86.804015,5625.565159,7179.997637,-995.924147
86.804335,5181.441594,6365.771101,-1455.581446
86.804656,5699.585753,5995.668130,-766.095498
86.804977,5181.441594,6143.709319,-306.438199
86.805298,4959.379811,6291.750507,-536.266849
86.805618,5403.503377,7105.977043,-536.266849
86.805939,4885.359217,7994.224174,-229.828649
86.806260,4737.318029,8142.265362,-153.219100
86.806581,5033.400406,8734.430116,612.876398
86.806901,6143.709319,9770.718434,76.609550
86.807222,5329.482782,10288.862594,0.000000
86.807543,4515.256246,9770.718434,-459.657299
86.807863,4441.235652,8512.368333,-1149.143247
86.808184,4367.215058,7328.038826,-612.876398
86.808505,3849.070898,7031.956449,76.609550
86.808826,4145.153275,6587.832884,229.828649
86.809146,3849.070898,7031.956449,0.000000
86.809467,3923.091493,7550.100608,612.876398
86.809788,5403.503377,7772.162391,689.485948
86.810108,5329.482782,7698.141797,0.000000
86.810429,5551.544565,8734.430116,-383.047749
86.810750,6143.709319,10140.821405,0.000000
86.811071,6513.812290,11103.089130,-689.485948
86.811391,6291.750507,11029.068536,-1072.533697
86.811712,6439.791695,9178.553681,-1225.752797
86.812033,5773.606348,8142.265362,-1378.971896
86.812354,5107.421000,7476.080014,-1225.752797
86.812674,4589.276840,6661.853478,-995.924147
86.812995,4737.318029,5995.668130,-612.876398
86.813316,4515.256246,6439.791695,306.438199
86.813636,4145.153275,7254.018232,306.438199
86.813957,4071.132681,7846.182985,-306.438199
86.814278,4145.153275,8882.471304,0.000000
86.814599,5033.400406,10362.883188,229.828649
86.814919,5403.503377,10732.986159,0.000000
86.815240,5107.421000,10881.027347,-689.485948
86.815561,4885.359217,9770.718434,-612.876398
86.815881,4737.318029,8660.409521,-766.095498
86.816202,4737.318029,7772.162391,-536.266849
86.816523,4367.215058,6217.729913,-383.047749
86.816844,4441.235652,5847.626942,229.828649
86.817164,4737.318029,6661.853478,995.924147
86.817485,4293.194464,6513.812290,842.705048
86.817806,4737.318029,6735.874072,229.828649
86.818127,5477.523971,7031.956449,-153.219100
86.818447,5699.585753,8438.347739,-306.438199
86.818768,5921.647536,9622.677246,0.000000
86.819089,7105.977043,10214.842000,-459.657299
86.819409,6513.812290,10066.800811,-842.705048
86.819730,6217.729913,8660.409521,0.000000
86.820051,5551.544565,7328.038826,-153.219100
86.820372,3997.112087,6143.709319,-689.485948
86.820692,3923.091493,5477.523971,-383.047749
86.821013,4589.276840,5847.626942,0.000000
86.821334,4441.235652,5847.626942,0.000000
86.821654,4145.153275,6513.812290,0.000000
86.821975,4219.173869,7254.018232,0.000000
86.822296,4367.215058,8512.368333,76.609550
86.822617,4885.359217,9770.718434,689.485948
86.822937,5477.523971,10510.924376,306.438199
86.823258,5773.606348,10436.903782,0.000000
86.823579,5477.523971,9474.636058,383.047749
86.823900,4885.359217,8660.409521,0.000000
86.824220,5033.400406,7476.080014,-689.485948
86.824541,4293.194464,6217.729913,-536.266849
86.824862,4737.318029,5625.565159,0.000000
86.825183,5033.400406,5403.503377,229.828649
86.825503,5477.523971,5921.647536,842.705048
86.825824,5773.606348,6587.832884,1072.533697
86.826145,5329.482782,6957.935855,459.657299
86.826466,6143.709319,8438.347739,76.609550
86.826786,6809.894666,9474.636058,-383.047749
86.827107,6217.729913,10214.842000,-1378.971896
86.827428,7031.956449,9696.697840,-1072.533697
86.827749,6365.771101,9178.553681,-995.924147
86.828069,5773.606348,8586.388927,-1225.752797
86.828390,4219.173869,7254.018232,-1149.143247
86.828711,3849.070898,7031.956449,-1072.533697
86.829032,4219.173869,6217.729913,-536.266849
86.829352,3552.988522,6513.812290,612.876398
86.829673,3182.885551,7031.956449,919.314598
86.829994,3552.988522,7550.100608,76.609550
86.830315,3701.029710,8364.327145,-153.219100
86.830635,4515.256246,10214.842000,306.438199
86.830956,4811.338623,11029.068536,-919.314598
86.831277,4663.297435,11177.109724,-1685.410096
86.831598,4959.379811,10362.883188,-1072.533697
86.831918,4589.276840,9252.574275,-766.095498
86.832239,4959.379811,8586.388927,-383.047749
86.832560,3923.091493,7920.203579,0.000000
86.832881,3404.947333,7328.038826,-383.047749
86.833201,3775.050304,7624.121203,0.000000
86.833522,4515.256246,7328.038826,995.924147
86.833843,4663.297435,7105.977043,766.095498
86.834164,5403.503377,7179.997637,919.314598
86.834484,5625.565159,8438.347739,229.828649
86.834805,5477.523971,9474.636058,-612.876398
86.835126,5995.668130,9252.574275,-766.095498
86.835447,6217.729913,9474.636058,-612.876398
86.835767,6143.709319,8956.491898,-689.485948
86.836088,5625.565159,7994.224174,-919.314598
86.836409,4811.338623,7105.977043,-995.924147
86.836730,4737.318029,6883.915261,-536.266849
86.837050,4367.215058,6735.874072,76.609550
86.837371,3923.091493,6735.874072,76.609550
86.837692,3701.029710,6883.915261,153.219100
86.838013,3997.112087,7772.162391,689.485948
86.838333,4737.318029,8290.306550,1762.019645
86.838654,5255.462188,9178.553681,995.924147
86.838975,5329.482782,9548.656652,-229.828649
86.839296,4959.379811,9770.718434,-766.095498
86.839616,5033.400406,9178.553681,-612.876398
86.839937,5477.523971,8142.265362,-229.828649
86.840258,4885.359217,7105.977043,0.000000
86.840579,4885.359217,6069.688724,0.000000
86.840899,4737.318029,6143.709319,153.219100
86.841220,4515.256246,7031.956449,459.657299
86.841541,4811.338623,6513.812290,459.657299
86.841862,5107.421000,6439.791695,995.924147
86.842182,5847.626942,6513.812290,612.876398
86.842503,6143.709319,7402.059420,536.266849
86.842824,6661.853478,8586.388927,-536.266849
86.843145,7254.018232,9252.574275,-1225.752797
86.843465,7254.018232,9030.512492,-1532.190996
86.843786,7105.977043,7846.182985,-1149.143247
86.844107,6957.935855,7179.997637,-1225.752797
86.844428,5625.565159,6735.874072,-612.876398
86.844748,4663.297435,6217.729913,-689.485948
86.845069,4737.318029,6439.791695,0.000000
86.845390,4959.379811,6957.935855,0.000000
86.845711,4219.173869,6883.915261,76.609550
86.846031,4441.235652,7402.059420,383.047749
86.846352,4737.318029,8660.409521,689.485948
86.846673,4293.194464,9844.739029,612.876398
86.846994,4515.256246,10658.965565,-383.047749
86.847314,4885.359217,10510.924376,-995.924147
86.847635,5181.441594,9844.739029,-153.219100
86.847956,4663.297435,9400.615463,229.828649
86.848277,3552.988522,7920.203579,-536.266849
86.848597,3108.864956,7476.080014,-383.047749
86.848918,2886.803174,7105.977043,383.047749
86.849239,3552.988522,7105.977043,383.047749
86.849560,3997.112087,7550.100608,536.266849
86.849880,4515.256246,7920.203579,-306.438199
86.850201,4367.215058,8142.265362,-306.438199
86.850522,4885.359217,9474.636058,76.609550
86.850843,6143.709319,10881.027347,-153.219100
86.851163,6587.832884,11177.109724,-689.485948
86.851484,6735.874072,9770.718434,-612.876398
86.851805,6439.791695,8364.327145,-612.876398
86.852126,4811.338623,7550.100608,-1762.019645
86.852446,4071.132681,7624.121203,-1608.800546
86.852767,4293.194464,7105.977043,-1225.752797
86.853088,4219.173869,6661.853478,-383.047749
86.853409,3552.988522,6809.894666,0.000000
86.853729,3552.988522,7254.018232,229.828649
86.854050,3182.885551,8142.265362,0.000000
86.854371,3849.070898,9474.636058,383.047749
86.854692,4145.153275,10955.047942,153.219100
86.855012,5033.400406,11325.150913,-766.095498
86.855333,4737.318029,10955.047942,-689.485948
86.855654,4515.256246,9030.512492,459.657299
86.855975,4367.215058,8142.265362,459.657299
86.856295,3034.844362,7254.018232,-383.047749
86.856616,3108.864956,7105.977043,-612.876398
86.856937,3775.050304,6809.894666,76.609550
86.857258,3849.070898,7328.038826,612.876398
86.857578,3627.009116,7254.018232,1149.143247
86.857899,4663.297435,6587.832884,383.047749
86.858220,5181.441594,7105.977043,153.219100
86.858541,5699.585753,8586.388927,612.876398
86.858861,6513.812290,9622.677246,306.438199
86.859182,7476.080014,9844.739029,-1149.143247
86.859503,7402.059420,8290.306550,-1149.143247
86.859824,7476.080014,7179.997637,-383.047749
86.860144,6735.874072,6365.771101,-536.266849
86.860465,5773.606348,6291.750507,-1685.410096
86.860786,5773.606348,6069.688724,-766.095498
86.861107,6217.729913,6217.729913,229.828649
86.861427,5625.565159,5551.544565,383.047749
86.861748,5625.565159,4959.379811,306.438199
86.862069,5477.523971,5773.606348,383.047749
86.862390,5329.482782,7476.080014,842.705048
86.862710,5551.544565,9326.594869,153.219100
86.863031,5921.647536,10584.944971,-1072.533697
86.863352,6439.791695,10214.842000,-919.314598
86.863673,7031.956449,9400.615463,306.438199
86.863994,5181.441594,8068.244768,536.266849
86.864314,4293.194464,6809.894666,0.000000
86.864635,3775.050304,6513.812290,-306.438199
86.864956,4367.215058,7476.080014,383.047749
86.865277,3997.112087,6957.935855,153.219100
86.865597,4737.318029,6735.874072,0.000000
86.865918,5255.462188,7105.977043,153.219100
86.866239,5181.441594,7846.182985,766.095498
86.866560,4885.359217,9400.615463,1225.752797
86.866880,5773.606348,10214.842000,0.000000
86.867201,6439.791695,10658.965565,-1455.581446
86.867522,5921.647536,10362.883188,-536.266849
86.867843,5551.544565,8956.491898,-306.438199
86.868163,5033.400406,7402.059420,-842.705048
86.868484,4145.153275,7328.038826,-306.438199
86.868805,3701.029710,7105.977043,-76.609550
86.869126,3552.988522,7031.956449,-306.438199
86.869446,3627.009116,6661.853478,-383.047749
86.869767,4071.132681,7105.977043,-306.438199
86.870088,4071.132681,8068.244768,229.828649
86.870409,3997.112087,9696.697840,306.438199
86.870729,4515.256246,10807.006753,0.000000
86.871050,5403.503377,11399.171507,-995.924147
86.871371,5255.462188,11177.109724,-919.314598
86.871692,4885.359217,10066.800811,-306.438199
86.872012,4737.318029,8290.306550,-995.924147
86.872333,4589.276840,7550.100608,-1149.143247
86.872654,4219.173869,7031.956449,0.000000
86.872975,3997.112087,6513.812290,536.266849
86.873295,4145.153275,5995.668130,612.876398
86.873616,4811.338623,6513.812290,689.485948
86.873937,5033.400406,7179.997637,612.876398
86.874258,5033.400406,8142.265362,689.485948
86.874578,5699.585753,9474.636058,153.219100
86.874899,6735.874072,10362.883188,-459.657299
86.875220,6809.894666,10140.821405,-1149.143247
86.875541,6291.750507,9326.594869,-1378.971896
86.875861,5921.647536,8364.327145,-1072.533697
86.876182,4737.318029,7698.141797,-689.485948
86.876503,4589.276840,7105.977043,-229.828649
86.876824,4145.153275,6809.894666,76.609550
86.877144,4737.318029,6217.729913,612.876398
86.877465,4367.215058,6069.688724,0.000000
86.877786,4441.235652,6143.709319,153.219100
86.878107,4515.256246,6587.832884,536.266849
86.878427,4885.359217,7698.141797,1072.533697
86.878748,5403.503377,9400.615463,689.485948
86.879069,5921.647536,10510.924376,-919.314598
86.879390,5625.565159,9992.780217,-1378.971896
86.879710,5773.606348,9400.615463,-995.924147
86.880031,5107.421000,8586.388927,-1072.533697
86.880352,4219.173869,7624.121203,-842.705048
86.880673,3997.112087,6809.894666,0.000000
86.880993,3627.009116,6587.832884,153.219100
86.881314,4145.153275,6661.853478,306.438199
86.881635,4589.276840,6513.812290,689.485948
86.881956,5181.441594,6809.894666,689.485948
86.882276,5181.441594,7179.997637,1225.752797
86.882597,5403.503377,8512.368333,612.876398
86.882918,6513.812290,9696.697840,-153.219100
86.883239,6661.853478,10214.842000,-1302.362347
86.883559,6809.894666,9030.512492,-766.095498
86.883880,5995.668130,8364.327145,-1378.971896
86.884201,5181.441594,7550.100608,-842.705048
86.884522,4959.379811,7179.997637,-536.266849
86.884842,5033.400406,7105.977043,153.219100
86.885163,4145.153275,7179.997637,0.000000
86.885484,4071.132681,6513.812290,-766.095498
86.885805,4663.297435,6513.812290,153.219100
86.886125,5107.421000,7402.059420,1149.143247
86.886446,4885.359217,8882.471304,995.924147
86.886767,4811.338623,10288.862594,76.609550
86.887088,5625.565159,10658.965565,-1685.410096
86.887408,5403.503377,10214.842000,-1532.190996
86.887729,5329.482782,9178.553681,-766.095498
86.888050,5403.503377,7994.224174,-459.657299
86.888371,4663.297435,8142.265362,-76.609550
86.888691,4293.194464,7105.977043,76.609550
86.889012,3552.988522,7105.977043,229.828649
86.889333,3404.947333,7328.038826,0.000000
86.889654,3997.112087,7179.997637,0.000000
86.889974,5181.441594,7328.038826,766.095498
86.890295,5329.482782,7920.203579,1072.533697
86.890616,5847.626942,9030.512492,766.095498
86.890937,5773.606348,10066.800811,-383.047749
86.891257,6365.771101,10066.800811,-1762.019645
86.891578,6809.894666,9104.533087,-1072.533697
86.891899,6365.771101,7920.203579,-842.705048
86.892220,5921.647536,7105.977043,-1378.971896
86.892540,5107.421000,6513.812290,-1072.533697
86.892861,4589.276840,6809.894666,-306.438199
86.893182,3997.112087,6809.894666,76.609550
86.893503,3701.029710,6587.832884,-612.876398
86.893823,4367.215058,6809.894666,0.000000
86.894144,4959.379811,7698.141797,459.657299
86.894465,4737.318029,9326.594869,995.924147
86.894786,4663.297435,10510.924376,689.485948
86.895106,4811.338623,11177.109724,-842.705048
86.895427,4589.276840,9918.759623,-536.266849
86.895748,4811.338623,8364.327145,0.000000
86.896069,4367.215058,7476.080014,0.000000
86.896389,3478.967927,7328.038826,-383.047749
86.896710,3627.009116,7476.080014,-536.266849
86.897031,3775.050304,7328.038826,153.219100
86.897352,3775.050304,6957.935855,459.657299
86.897672,4737.318029,6883.915261,612.876398
86.897993,5033.400406,7772.162391,612.876398
86.898314,4737.318029,8438.347739,306.438199
86.898635,5033.400406,9104.533087,306.438199
86.898955,6735.874072,9918.759623,0.000000
86.899276,6957.935855,9770.718434,-612.876398
86.899597,6217.729913,9104.533087,-383.047749
86.899918,5551.544565,7920.203579,-766.095498
86.900238,5107.421000,7031.956449,-1302.362347
86.900559,4367.215058,6735.874072,-536.266849
86.900880,4515.256246,6143.709319,153.219100
86.901201,4811.338623,6291.750507,459.657299
86.901521,4959.379811,6439.791695,536.266849
86.901842,4589.276840,7476.080014,306.438199
86.902163,4515.256246,7550.100608,229.828649
86.902484,4737.318029,8290.306550,459.657299
86.902804,5699.585753,8734.430116,536.266849
86.903125,6365.771101,10288.862594,0.000000
86.903446,6069.688724,9844.739029,-459.657299
86.903767,5625.565159,8882.471304,-1608.800546
86.904087,5033.400406,7772.162391,-1378.971896
86.904408,4663.297435,7105.977043,-995.924147
86.904729,4663.297435,6069.688724,76.609550
86.905050,4589.276840,5847.626942,919.314598
86.905370,5107.421000,6735.874072,919.314598
86.905691,5181.441594,7105.977043,383.047749
86.906012,4959.379811,7254.018232,153.219100
86.906333,5329.482782,7402.059420,153.219100
86.906653,6069.688724,9104.533087,153.219100
86.906974,6661.853478,9992.780217,-153.219100
86.907295,6661.853478,10362.883188,-1149.143247
86.907616,6143.709319,9918.759623,-1532.190996
86.907936,5847.626942,8882.471304,-1608.800546
86.908257,5033.400406,7698.141797,-612.876398
86.908578,4441.235652,6365.771101,-153.219100
86.908899,4145.153275,5921.647536,229.828649
86.909219,4145.153275,6291.750507,306.438199
86.909540,3627.009116,7254.018232,76.609550
86.909861,4145.153275,7624.121203,0.000000
86.910182,4885.359217,8364.327145,383.047749
86.910502,5477.523971,9474.636058,612.876398
86.910823,5107.421000,10066.800811,306.438199
86.911144,5403.503377,10510.924376,0.000000
86.911465,5699.585753,10362.883188,-153.219100
86.911786,4885.359217,9474.636058,-842.705048
86.912106,5255.462188,8290.306550,-995.924147
86.912427,4663.297435,7402.059420,-1378.971896
86.912748,4145.153275,6587.832884,-229.828649
86.913069,3997.112087,6513.812290,689.485948
86.913389,4145.153275,7031.956449,842.705048
86.913710,4071.132681,7550.100608,153.219100
86.914031,4441.235652,7846.182985,0.000000
86.914352,5033.400406,8290.306550,459.657299
86.914672,5625.565159,9844.739029,-383.047749
86.914993,5107.421000,10732.986159,-536.266849
86.915314,5181.441594,10658.965565,-766.095498
86.915635,6143.709319,9770.718434,-766.095498
86.915955,4885.359217,8808.450710,-229.828649
86.916276,3627.009116,7031.956449,-536.266849
86.916597,3849.070898,6291.750507,-536.266849
86.916918,3701.029710,6291.750507,0.000000
86.917238,3478.967927,6661.853478,76.609550
86.917559,3923.091493,6661.853478,153.219100
86.917880,5255.462188,7254.018232,0.000000
86.918201,5107.421000,8290.306550,383.047749
86.918521,4959.379811,9474.636058,153.219100
86.918842,6217.729913,10436.903782,-306.438199
86.919163,5847.626942,10066.800811,-919.314598
86.919484,6069.688724,8956.491898,-306.438199
