#time,accel_x,accel_y,accel_z
553.880825,5329.482782,7994.224174,-536.266849
553.881146,5107.421000,7994.224174,-306.438199
553.881467,5255.462188,7920.203579,0.000000
553.881787,4811.338623,8068.244768,-306.438199
553.882108,4885.359217,8068.244768,-306.438199
553.882429,4885.359217,8068.244768,-306.438199
553.882750,4737.318029,8216.285956,153.219100
553.883070,4959.379811,7994.224174,-383.047749
553.883391,4737.318029,8068.244768,-153.219100
553.883712,5033.400406,7994.224174,-76.609550
553.884032,5033.400406,8290.306550,0.000000
553.884353,4885.359217,8142.265362,0.000000
553.884674,4737.318029,7994.224174,-229.828649
553.884995,4811.338623,7994.224174,-153.219100
553.885315,4959.379811,7920.203579,-153.219100
553.885636,4811.338623,7846.182985,-229.828649
553.885957,4885.359217,8216.285956,0.000000
553.886278,4811.338623,8142.265362,-153.219100
553.886598,4885.359217,7920.203579,-306.438199
553.886919,5107.421000,8068.244768,-459.657299
553.887240,5107.421000,8068.244768,76.609550
553.887560,5329.482782,7920.203579,306.438199
553.887881,4885.359217,8068.244768,76.609550
553.888202,5107.421000,7994.224174,-536.266849
553.888523,5033.400406,8142.265362,0.000000
553.888843,5107.421000,8142.265362,0.000000
553.889164,5329.482782,8290.306550,-383.047749
553.889485,5033.400406,8142.265362,0.000000
553.889806,4885.359217,8068.244768,0.000000
553.890126,4959.379811,7994.224174,-306.438199
553.890447,5181.441594,7402.059420,-459.657299
553.890768,4367.215058,7476.080014,-612.876398
553.891088,4367.215058,7476.080014,-153.219100
553.891409,4367.215058,8734.430116,-383.047749
553.891730,4589.276840,9770.718434,-612.876398
553.892051,4663.297435,10214.842000,-1302.362347
553.892371,4737.318029,9918.759623,-1685.410096
553.892692,3849.070898,9474.636058,-383.047749
553.893013,3182.885551,8882.471304,306.438199
553.893333,2886.803174,8808.450710,1225.752797
553.893654,2812.782580,9104.533087,919.314598
553.893975,2664.741391,9326.594869,76.609550
553.894296,2812.782580,8586.388927,0.000000
553.894616,3108.864956,8734.430116,-306.438199
553.894937,3108.864956,9326.594869,153.219100
553.895258,2516.700203,9326.594869,459.657299
553.895579,2960.823768,8808.450710,-306.438199
553.895899,2368.659014,8734.430116,76.609550
553.896220,2220.617826,9992.780217,-459.657299
553.896541,1850.514855,11399.171507,-1225.752797
553.896861,1850.514855,12213.398043,-1532.190996
553.897182,1628.453072,11621.233289,-842.705048
553.897503,1184.329507,11029.068536,-919.314598
553.897824,0.000000,10584.944971,-1762.019645
553.898144,-814.226536,11029.068536,-1532.190996
553.898465,-1406.391290,12065.356855,-766.095498
553.898786,-1036.288319,12731.542202,153.219100
553.899107,-1332.370696,12287.418637,995.924147
553.899427,-740.205942,12065.356855,1302.362347
553.899748,-1332.370696,12731.542202,1685.410096
553.900069,-2220.617826,12879.583391,1838.629195
553.900389,-2294.638420,11251.130318,689.485948
553.900710,-1332.370696,9844.739029,-766.095498
553.901031,-1406.391290,9474.636058,0.000000
553.901352,-962.267725,9474.636058,459.657299
553.901672,-444.123565,10214.842000,459.657299
553.901993,518.144159,10807.006753,-689.485948
553.902314,1036.288319,11547.212695,-1455.581446
553.902635,1776.494261,11177.109724,-1302.362347
553.902955,2368.659014,10436.903782,-536.266849
553.903276,3256.906145,10881.027347,612.876398
553.903597,3478.967927,10510.924376,-153.219100
553.903917,2516.700203,9474.636058,-2068.457845
553.904238,1998.556043,8882.471304,-2528.115143
553.904559,2072.576638,9474.636058,-1532.190996
553.904880,1998.556043,9992.780217,-383.047749
553.905200,1924.535449,9918.759623,-459.657299
553.905521,1554.432478,10436.903782,-383.047749
553.905842,592.164754,11473.192101,-153.219100
553.906163,74.020594,11029.068536,612.876398
553.906483,-222.061783,10362.883188,229.828649
553.906804,-444.123565,9918.759623,306.438199
553.907125,-740.205942,9992.780217,766.095498
553.907445,-666.185348,10584.944971,689.485948
553.907766,-1036.288319,11399.171507,766.095498
553.908087,0.000000,11843.295072,1149.143247
553.908408,1406.391290,11991.336260,306.438199
553.908728,888.247130,11769.274478,0.000000
553.909049,592.164754,11325.150913,-459.657299
553.909370,740.205942,10584.944971,-842.705048
553.909691,1332.370696,10140.821405,-153.219100
553.910011,1776.494261,9104.533087,229.828649
553.910332,1628.453072,8660.409521,0.000000
553.910653,2072.576638,8808.450710,153.219100
553.910973,2368.659014,9992.780217,-306.438199
553.911294,2590.720797,11177.109724,-612.876398
553.911615,2738.761985,11177.109724,-842.705048
553.911936,3775.050304,10066.800811,-919.314598
553.912256,3330.926739,9548.656652,-766.095498
553.912577,2812.782580,9474.636058,-995.924147
553.912898,2664.741391,9844.739029,-842.705048
553.913219,2368.659014,11177.109724,-689.485948
553.913539,1036.288319,11251.130318,-612.876398
553.913860,1406.391290,11473.192101,-766.095498
553.914181,740.205942,11029.068536,-1532.190996
553.914501,-518.144159,10436.903782,-1915.238745
553.914822,-1480.411884,9696.697840,-842.705048
553.915143,-1554.432478,8364.327145,0.000000
553.915464,-1702.473667,8438.347739,1225.752797
553.915784,-1036.288319,10436.903782,2068.457845
553.916105,0.000000,12953.603985,1532.190996
553.916426,666.185348,14211.954086,536.266849
553.916747,1258.350101,14211.954086,1072.533697
553.917067,2146.597232,12731.542202,0.000000
553.917388,2072.576638,10066.800811,-459.657299
553.917709,1258.350101,8586.388927,-153.219100
553.918029,296.082377,8734.430116,-383.047749
553.918350,-666.185348,9770.718434,-1378.971896
553.918671,-1036.288319,10066.800811,-2451.505594
553.918992,-814.226536,10658.965565,-2221.676944
553.919312,-518.144159,11843.295072,-536.266849
553.919633,0.000000,13027.624579,536.266849
553.919954,0.000000,13545.768739,766.095498
553.920274,-222.061783,13101.645173,0.000000
553.920595,296.082377,13175.665768,153.219100
553.920916,370.102971,12509.480420,306.438199
553.921237,1184.329507,10362.883188,0.000000
553.921557,1776.494261,8438.347739,-459.657299
553.921878,2294.638420,7698.141797,0.000000
553.922199,1036.288319,8068.244768,842.705048
553.922520,148.041188,9252.574275,919.314598
553.922840,592.164754,10584.944971,919.314598
553.923161,444.123565,10881.027347,0.000000
553.923482,814.226536,9252.574275,-306.438199
553.923802,1998.556043,8808.450710,-306.438199
553.924123,1332.370696,10510.924376,-689.485948
553.924444,592.164754,13249.686362,-919.314598
553.924765,-74.020594,14211.954086,-1915.238745
553.925085,0.000000,13249.686362,-2451.505594
553.925406,962.267725,12879.583391,-1762.019645
553.925727,518.144159,11843.295072,0.000000
553.926048,-444.123565,11029.068536,459.657299
553.926368,-222.061783,10881.027347,1378.971896
553.926689,-370.102971,11473.192101,3064.381992
553.927010,-1702.473667,10066.800811,1532.190996
553.927330,-1998.556043,8290.306550,689.485948
553.927651,-1850.514855,7772.162391,919.314598
553.927972,-1480.411884,9326.594869,1149.143247
553.928293,0.000000,10214.842000,689.485948
553.928613,1702.473667,11473.192101,-919.314598
553.928934,2886.803174,13249.686362,-1302.362347
553.929255,2368.659014,13249.686362,-76.609550
553.929576,518.144159,11103.089130,-1378.971896
553.929896,1258.350101,8290.306550,-2298.286494
553.930217,2886.803174,8734.430116,0.000000
553.930538,3404.947333,11177.109724,1149.143247
553.930858,1998.556043,12287.418637,-919.314598
553.931179,1258.350101,12287.418637,-2911.162892
553.931500,1332.370696,11547.212695,-2681.334243
553.931821,148.041188,9400.615463,-1072.533697
553.932141,-666.185348,6883.915261,-383.047749
553.932462,0.000000,7254.018232,0.000000
553.932783,0.000000,11251.130318,689.485948
553.933104,-1332.370696,14063.912898,1225.752797
553.933424,-1628.453072,14582.057057,0.000000
553.933745,-444.123565,14508.036463,-536.266849
553.934066,-444.123565,14063.912898,536.266849
553.934386,-1332.370696,11917.315666,1149.143247
553.934707,-1110.308913,9844.739029,842.705048
553.935028,-296.082377,9622.677246,306.438199
553.935349,-148.041188,9696.697840,229.828649
553.935669,-148.041188,9474.636058,383.047749
553.935990,74.020594,9400.615463,-689.485948
553.936311,888.247130,9400.615463,766.095498
553.936632,3478.967927,10140.821405,2681.334243
553.936952,4441.235652,11251.130318,1685.410096
553.937273,4219.173869,11769.274478,-1532.190996
553.937594,4515.256246,11325.150913,-3140.991542
553.937914,4515.256246,9918.759623,-3217.601092
553.938235,2738.761985,8068.244768,-2451.505594
553.938556,1998.556043,5995.668130,-995.924147
553.938877,3627.009116,8586.388927,383.047749
553.939197,2368.659014,11769.274478,919.314598
553.939518,814.226536,13915.871710,-153.219100
553.939839,1258.350101,12657.521608,-2374.896044
553.940160,148.041188,10362.883188,-2068.457845
553.940480,-1628.453072,10362.883188,306.438199
553.940801,-2368.659014,9474.636058,1532.190996
553.941122,-1628.453072,9622.677246,229.828649
553.941442,-740.205942,12509.480420,-536.266849
553.941763,-1850.514855,13989.892304,0.000000
553.942084,-2960.823768,13693.809927,76.609550
553.942405,-2146.597232,12287.418637,995.924147
553.942725,-1776.494261,12139.377449,3370.820191
553.943046,-222.061783,11251.130318,3907.087040
553.943367,-814.226536,9622.677246,1762.019645
553.943688,-814.226536,9622.677246,306.438199
553.944008,-666.185348,9474.636058,612.876398
553.944329,296.082377,8882.471304,153.219100
553.944650,3330.926739,6883.915261,536.266849
553.944970,4959.379811,7550.100608,229.828649
553.945291,4219.173869,9918.759623,-383.047749
553.945612,3701.029710,11843.295072,-1532.190996
553.945933,4293.194464,12509.480420,-2757.943793
553.946253,4441.235652,10362.883188,-2757.943793
553.946574,4811.338623,8216.285956,-1762.019645
553.946895,4145.153275,6291.750507,-1532.190996
553.947216,1702.473667,8438.347739,-1915.238745
553.947536,1110.308913,11843.295072,-2145.067394
553.947857,518.144159,14137.933492,-1762.019645
553.948178,518.144159,11547.212695,-2068.457845
553.948498,814.226536,9178.553681,-1072.533697
553.948819,222.061783,9770.718434,1455.581446
553.949140,-2220.617826,12213.398043,2451.505594
553.949461,-3627.009116,13323.706956,2221.676944
553.949781,-3701.029710,12657.521608,995.924147
553.950102,-2368.659014,12657.521608,383.047749
553.950423,-1480.411884,12287.418637,1762.019645
553.950744,-2368.659014,11399.171507,1149.143247
553.951064,-1998.556043,12065.356855,919.314598
553.951385,-2738.761985,12139.377449,1991.848295
553.951706,-1702.473667,11103.089130,153.219100
553.952026,888.247130,10658.965565,766.095498
553.952347,1184.329507,11991.336260,1455.581446
553.952668,740.205942,11695.253884,76.609550
553.952989,2146.597232,9474.636058,-1225.752797
553.953309,3182.885551,7772.162391,-1378.971896
553.953630,4145.153275,7920.203579,-919.314598
553.953951,5181.441594,9326.594869,0.000000
553.954272,4293.194464,9622.677246,-1838.629195
553.954592,2886.803174,9474.636058,-3370.820191
553.954913,3478.967927,9104.533087,-2451.505594
553.955234,4589.276840,9622.677246,-1225.752797
553.955554,3701.029710,11769.274478,-1685.410096
553.955875,2146.597232,11843.295072,-2298.286494
553.956196,962.267725,10955.047942,-3140.991542
553.956517,518.144159,10140.821405,-2681.334243
553.956837,-370.102971,9844.739029,-612.876398
553.957158,-518.144159,11325.150913,1302.362347
553.957479,-592.164754,12953.603985,1915.238745
553.957800,-1776.494261,13619.789333,1685.410096
553.958120,-2368.659014,11621.233289,1532.190996
553.958441,-296.082377,9992.780217,2451.505594
553.958762,296.082377,9326.594869,4596.572988
553.959082,-1332.370696,8512.368333,4979.620737
553.959403,-1110.308913,7994.224174,2451.505594
553.959724,888.247130,7476.080014,153.219100
553.960045,2442.679609,7994.224174,459.657299
553.960365,5255.462188,8512.368333,1685.410096
553.960686,7328.038826,7772.162391,383.047749
553.961007,7179.997637,6513.812290,-2451.505594
553.961328,7105.977043,7402.059420,-2221.676944
553.961648,9030.512492,9992.780217,-689.485948
553.961969,8216.285956,9548.656652,-1302.362347
553.962290,8586.388927,8142.265362,-2987.772442
553.962610,10732.986159,7254.018232,-3983.696590
553.962931,7476.080014,7179.997637,-4060.306139
553.963252,6587.832884,7624.121203,-2757.943793
553.963573,6291.750507,8734.430116,-1915.238745
553.963893,4663.297435,8290.306550,-1532.190996
553.964214,3701.029710,6439.791695,842.705048
553.964535,4145.153275,6513.812290,2221.676944
553.964856,2590.720797,7254.018232,2221.676944
553.965176,1776.494261,9844.739029,2911.162892
553.965497,1480.411884,9696.697840,2068.457845
553.965818,3108.864956,8216.285956,1378.971896
553.966138,3997.112087,6957.935855,2604.724693
553.966459,4145.153275,5847.626942,2528.115143
553.966780,3034.844362,7550.100608,536.266849
553.967101,2368.659014,8364.327145,-306.438199
553.967421,4293.194464,8290.306550,-995.924147
553.967742,7846.182985,8142.265362,-536.266849
553.968063,7254.018232,7254.018232,-842.705048
553.968384,7179.997637,7402.059420,-995.924147
553.968704,7105.977043,8068.244768,-2451.505594
553.969025,5921.647536,7550.100608,-2451.505594
553.969346,7105.977043,5699.585753,-1225.752797
553.969666,8364.327145,5551.544565,-229.828649
553.969987,8142.265362,7772.162391,-1455.581446
553.970308,6069.688724,9178.553681,-2451.505594
553.970629,5551.544565,9696.697840,-4519.963438
553.970949,5181.441594,7550.100608,-4596.572988
553.971270,5625.565159,8438.347739,-1608.800546
553.971591,5921.647536,8734.430116,1915.238745
553.971912,4071.132681,9548.656652,1072.533697
553.972232,1998.556043,9770.718434,-536.266849
553.972553,1998.556043,9104.533087,-1302.362347
553.972874,2886.803174,8586.388927,-306.438199
553.973194,3923.091493,8364.327145,1072.533697
553.973515,3997.112087,9326.594869,919.314598
553.973836,4737.318029,9844.739029,459.657299
553.974157,3775.050304,9178.553681,-766.095498
553.974477,3478.967927,7402.059420,-153.219100
553.974798,4145.153275,6809.894666,995.924147
553.975119,6883.915261,8808.450710,3294.210641
553.975440,5847.626942,9844.739029,2987.772442
553.975760,4515.256246,9918.759623,-383.047749
553.976081,5773.606348,9104.533087,-2834.553343
553.976402,6661.853478,8438.347739,-3370.820191
553.976722,7254.018232,7179.997637,-2298.286494
553.977043,7031.956449,6587.832884,-1149.143247
553.977364,7105.977043,7476.080014,-919.314598
553.977685,5995.668130,7772.162391,459.657299
553.978005,4293.194464,6291.750507,995.924147
553.978326,5773.606348,5995.668130,689.485948
553.978647,7179.997637,8068.244768,536.266849
553.978968,5847.626942,9622.677246,-1455.581446
553.979288,5551.544565,8512.368333,-2757.943793
553.979609,6513.812290,6143.709319,-1532.190996
553.979930,7846.182985,7624.121203,1149.143247
553.980250,5329.482782,7624.121203,2451.505594
553.980571,3108.864956,6439.791695,-1225.752797
553.980892,5255.462188,6809.894666,-1532.190996
553.981213,3552.988522,8364.327145,919.314598
553.981533,3478.967927,9104.533087,2987.772442
553.981854,4811.338623,8660.409521,2528.115143
553.982175,2442.679609,8586.388927,-306.438199
553.982496,1406.391290,8438.347739,-919.314598
553.982816,2442.679609,7994.224174,536.266849
553.983137,2664.741391,6291.750507,842.705048
553.983458,3923.091493,7846.182985,3064.381992
553.983778,4589.276840,9104.533087,3907.087040
553.984099,4367.215058,9030.512492,1072.533697
553.984420,4293.194464,7994.224174,-306.438199
553.984741,5773.606348,8216.285956,0.000000
553.985061,6587.832884,7105.977043,0.000000
553.985382,5255.462188,5181.441594,-766.095498
553.985703,6069.688724,5255.462188,-1149.143247
553.986024,7179.997637,5995.668130,-1072.533697
553.986344,5995.668130,6513.812290,-1455.581446
553.986665,7105.977043,6217.729913,-1455.581446
553.986986,7105.977043,7550.100608,-1072.533697
553.987306,6809.894666,8882.471304,306.438199
553.987627,7402.059420,9104.533087,612.876398
553.987948,6957.935855,7179.997637,-536.266849
553.988269,6883.915261,8438.347739,-689.485948
553.988589,6587.832884,8808.450710,76.609550
553.988910,4367.215058,7031.956449,-1532.190996
553.989231,5477.523971,5107.421000,-1532.190996
553.989552,5773.606348,5625.565159,229.828649
553.989872,3478.967927,6661.853478,1532.190996
553.990193,3182.885551,6957.935855,842.705048
553.990514,3404.947333,8364.327145,-612.876398
553.990834,4071.132681,9918.759623,-612.876398
553.991155,3923.091493,10436.903782,-536.266849
553.991476,4293.194464,10436.903782,-766.095498
553.991797,4885.359217,11843.295072,-842.705048
553.992117,5255.462188,12509.480420,-612.876398
553.992438,4219.173869,9918.759623,-1608.800546
553.992759,4959.379811,8364.327145,-1915.238745
553.993080,5181.441594,9252.574275,995.924147
553.993400,4811.338623,9622.677246,2528.115143
553.993721,3108.864956,7402.059420,1532.190996
553.994042,5625.565159,6439.791695,0.000000
553.994362,7105.977043,6291.750507,76.609550
553.994683,5773.606348,4663.297435,536.266849
553.995004,4885.359217,4145.153275,-383.047749
553.995325,6513.812290,6217.729913,-689.485948
553.995645,5625.565159,7994.224174,0.000000
553.995966,7624.121203,7994.224174,-612.876398
553.996287,7476.080014,6809.894666,-2528.115143
553.996608,6587.832884,8512.368333,-3753.867940
553.996928,7624.121203,11769.274478,-3294.210641
553.997249,6365.771101,12139.377449,-1915.238745
553.997570,6291.750507,9178.553681,-2068.457845
553.997890,7328.038826,8290.306550,-383.047749
553.998211,4145.153275,7698.141797,0.000000
553.998532,666.185348,8290.306550,-1532.190996
553.998853,814.226536,7624.121203,-459.657299
553.999173,2664.741391,8142.265362,1455.581446
553.999494,4441.235652,8068.244768,2987.772442
553.999815,2960.823768,7476.080014,3907.087040
554.000136,1480.411884,8808.450710,612.876398
554.000456,1036.288319,11547.212695,1072.533697
554.000777,814.226536,10658.965565,1991.848295
554.001098,3552.988522,6735.874072,612.876398
554.001418,5329.482782,4737.318029,0.000000
554.001739,5551.544565,6957.935855,919.314598
554.002060,4367.215058,10362.883188,1685.410096
554.002381,2516.700203,9622.677246,-536.266849
554.002701,5255.462188,7476.080014,-2451.505594
554.003022,8808.450710,5995.668130,153.219100
554.003343,9178.553681,5773.606348,1762.019645
554.003664,8882.471304,6661.853478,459.657299
554.003984,7254.018232,8142.265362,-2604.724693
554.004305,7105.977043,7402.059420,-5209.449386
554.004626,7846.182985,5033.400406,-3524.039291
554.004946,9474.636058,4515.256246,-383.047749
554.005267,8142.265362,7550.100608,1455.581446
554.005588,6735.874072,10510.924376,1532.190996
554.005909,4959.379811,10066.800811,689.485948
554.006229,4811.338623,7105.977043,-536.266849
554.006550,5773.606348,4441.235652,383.047749
554.006871,5181.441594,4737.318029,842.705048
554.007192,3701.029710,3849.070898,-919.314598
554.007512,3923.091493,4959.379811,-842.705048
554.007833,5477.523971,7624.121203,-306.438199
554.008154,4959.379811,7994.224174,689.485948
554.008474,6217.729913,8882.471304,1762.019645
554.008795,7105.977043,11399.171507,1991.848295
554.009116,5773.606348,11695.253884,1072.533697
554.009437,4885.359217,8142.265362,0.000000
554.009757,5847.626942,4811.338623,-2757.943793
554.010078,5477.523971,5773.606348,-2374.896044
554.010399,4293.194464,7254.018232,-842.705048
554.010720,4145.153275,9030.512492,-612.876398
554.011040,5921.647536,9400.615463,76.609550
554.011361,5033.400406,10436.903782,2068.457845
554.011682,4663.297435,9548.656652,2451.505594
554.012002,4811.338623,8290.306550,995.924147
554.012323,4071.132681,7179.997637,153.219100
554.012644,3849.070898,6143.709319,-1378.971896
554.012965,5403.503377,6217.729913,-3217.601092
554.013285,5033.400406,7254.018232,-3600.648841
554.013606,4663.297435,10288.862594,-1915.238745
554.013927,4293.194464,12287.418637,0.000000
554.014248,4071.132681,12139.377449,-612.876398
554.014568,4219.173869,10881.027347,-1072.533697
554.014889,3627.009116,9400.615463,-1378.971896
554.015210,3330.926739,8956.491898,0.000000
554.015530,3627.009116,9400.615463,1149.143247
554.015851,2886.803174,9252.574275,1455.581446
554.016172,3108.864956,9770.718434,1149.143247
554.016493,2442.679609,9474.636058,689.485948
554.016813,1850.514855,8142.265362,-459.657299
554.017134,2368.659014,7550.100608,1302.362347
554.017455,3627.009116,8364.327145,2068.457845
554.017776,2442.679609,8142.265362,306.438199
554.018096,3330.926739,8216.285956,-689.485948
554.018417,4515.256246,9474.636058,0.000000
554.018738,3256.906145,10066.800811,459.657299
554.019058,4663.297435,8290.306550,-842.705048
554.019379,5995.668130,7476.080014,-2451.505594
554.019700,5921.647536,6957.935855,-2374.896044
554.020021,7624.121203,7328.038826,-459.657299
554.020341,6439.791695,7105.977043,383.047749
554.020662,6291.750507,6365.771101,-842.705048
554.020983,7994.224174,7624.121203,919.314598
554.021304,6883.915261,7105.977043,1455.581446
554.021624,6735.874072,5995.668130,0.000000
554.021945,7624.121203,3923.091493,-306.438199
554.022266,7550.100608,4885.359217,-1072.533697
554.022586,6439.791695,6439.791695,-1455.581446
554.022907,5477.523971,6217.729913,-1149.143247
554.023228,6069.688724,7772.162391,-383.047749
554.023549,6365.771101,9548.656652,1302.362347
554.023869,5255.462188,10066.800811,2068.457845
554.024190,4959.379811,8660.409521,612.876398
554.024511,5255.462188,6365.771101,-689.485948
554.024832,3404.947333,4663.297435,-1149.143247
554.025152,4219.173869,4737.318029,229.828649
554.025473,5625.565159,5995.668130,1838.629195
554.025794,5107.421000,9696.697840,2451.505594
554.026114,6069.688724,10732.986159,995.924147
554.026435,5699.585753,9030.512492,-1072.533697
554.026756,5255.462188,6439.791695,-1532.190996
554.027077,6069.688724,5625.565159,459.657299
554.027397,6661.853478,6587.832884,1838.629195
554.027718,6069.688724,7476.080014,0.000000
554.028039,6587.832884,9104.533087,-2911.162892
554.028360,5181.441594,10807.006753,-2911.162892
554.028680,3701.029710,11029.068536,-2451.505594
554.029001,4219.173869,9548.656652,-995.924147
554.029322,5773.606348,8660.409521,-229.828649
554.029642,6661.853478,9326.594869,-153.219100
554.029963,4293.194464,8290.306550,995.924147
554.030284,518.144159,7179.997637,-229.828649
554.030605,1776.494261,9474.636058,842.705048
554.030925,3108.864956,10807.006753,2757.943793
554.031246,3404.947333,9770.718434,76.609550
554.031567,5181.441594,8290.306550,-2068.457845
554.031888,4219.173869,7846.182985,-2604.724693
554.032208,2442.679609,7550.100608,-1455.581446
554.032529,2220.617826,7402.059420,689.485948
554.032850,3552.988522,8956.491898,1149.143247
554.033170,3552.988522,10140.821405,-229.828649
554.033491,3849.070898,11251.130318,-306.438199
554.033812,4589.276840,11251.130318,-1225.752797
554.034133,4589.276840,10955.047942,-689.485948
554.034453,4589.276840,9548.656652,0.000000
554.034774,3997.112087,7105.977043,-1149.143247
554.035095,3923.091493,5625.565159,-1302.362347
554.035416,4515.256246,7550.100608,1072.533697
554.035736,4737.318029,11325.150913,3064.381992
554.036057,3849.070898,11547.212695,1225.752797
554.036378,4885.359217,8956.491898,-1532.190996
554.036698,5625.565159,6217.729913,-1378.971896
554.037019,6143.709319,4589.276840,1302.362347
554.037340,4589.276840,3627.009116,2145.067394
554.037661,3034.844362,3849.070898,-995.924147
554.037981,3552.988522,7994.224174,-2451.505594
554.038302,5699.585753,9770.718434,-1149.143247
554.038623,7698.141797,9252.574275,0.000000
554.038944,8512.368333,8512.368333,229.828649
554.039264,7254.018232,10362.883188,229.828649
554.039586,3923.091493,9474.636058,-842.705048
554.039907,3552.988522,6439.791695,-1378.971896
554.040228,7624.121203,4441.235652,-459.657299
554.040549,7698.141797,5625.565159,1685.410096
554.040870,6957.935855,8068.244768,766.095498
554.041191,6291.750507,10066.800811,-383.047749
554.041511,3849.070898,9178.553681,-842.705048
554.041832,4589.276840,4737.318029,-383.047749
554.042153,6217.729913,2368.659014,2145.067394
554.042474,4737.318029,3182.885551,1915.238745
554.042795,3330.926739,8142.265362,766.095498
554.043115,2664.741391,11177.109724,-536.266849
554.043436,5403.503377,11029.068536,-1685.410096
554.043757,7105.977043,9178.553681,919.314598
554.044078,6957.935855,8216.285956,1762.019645
554.044399,5033.400406,9030.512492,-995.924147
554.044719,2442.679609,8882.471304,-2911.162892
554.045040,3256.906145,8364.327145,-1608.800546
554.045361,6513.812290,8808.450710,383.047749
554.045682,6217.729913,7476.080014,2451.505594
554.046003,4811.338623,8438.347739,919.314598
554.046324,2442.679609,8882.471304,-995.924147
554.046644,2146.597232,7105.977043,-612.876398
554.046965,4145.153275,5255.462188,919.314598
554.047286,5107.421000,3849.070898,689.485948
554.047607,5329.482782,8290.306550,383.047749
554.047928,5107.421000,12213.398043,-1608.800546
554.048248,2590.720797,12139.377449,-3907.087040
554.048569,4737.318029,10140.821405,-3983.696590
554.048890,7624.121203,9770.718434,-689.485948
554.049211,5847.626942,8586.388927,1149.143247
554.049532,3775.050304,9252.574275,689.485948
554.049852,3923.091493,8882.471304,-995.924147
554.050173,2812.782580,8956.491898,-1915.238745
554.050494,2664.741391,8438.347739,-383.047749
554.050815,3775.050304,6957.935855,153.219100
554.051136,4737.318029,8142.265362,1378.971896
554.051456,4589.276840,9104.533087,1302.362347
554.051777,3552.988522,7846.182985,-153.219100
554.052098,4589.276840,7328.038826,-459.657299
554.052419,5625.565159,9030.512492,1915.238745
554.052740,4663.297435,10881.027347,1838.629195
554.053061,4885.359217,10436.903782,-306.438199
554.053381,6809.894666,12287.418637,-1378.971896
554.053702,6069.688724,11473.192101,229.828649
554.054023,3404.947333,6809.894666,-306.438199
554.054344,5625.565159,3330.926739,-766.095498
554.054665,5033.400406,2146.597232,-76.609550
554.054985,3701.029710,5329.482782,689.485948
554.055306,6143.709319,8882.471304,1838.629195
554.055627,7254.018232,10140.821405,76.609550
554.055948,7772.162391,8882.471304,-689.485948
554.056269,9104.533087,7105.977043,1378.971896
554.056589,8142.265362,4515.256246,153.219100
554.056910,5625.565159,4145.153275,-1455.581446
554.057231,5181.441594,4885.359217,-2068.457845
554.057552,7179.997637,7772.162391,-2987.772442
554.057873,7328.038826,8882.471304,-1762.019645
554.058193,6883.915261,9178.553681,-383.047749
554.058514,6217.729913,11103.089130,-306.438199
554.058835,3997.112087,10140.821405,0.000000
554.059156,2442.679609,7772.162391,842.705048
554.059477,3923.091493,4959.379811,2068.457845
554.059798,2368.659014,4145.153275,2068.457845
554.060118,3552.988522,6809.894666,1685.410096
554.060439,2960.823768,8882.471304,689.485948
554.060760,2812.782580,8882.471304,-1378.971896
554.061081,4589.276840,8438.347739,153.219100
554.061402,5773.606348,7920.203579,612.876398
554.061722,4441.235652,6513.812290,383.047749
554.062043,4737.318029,7105.977043,1455.581446
554.062364,4737.318029,9474.636058,995.924147
554.062685,4663.297435,9696.697840,-536.266849
554.063006,4589.276840,7402.059420,-2221.676944
554.063326,6957.935855,6365.771101,-1915.238745
554.063647,7994.224174,7402.059420,0.000000
554.063968,6439.791695,8364.327145,0.000000
554.064289,6143.709319,7179.997637,-1455.581446
554.064610,6439.791695,8290.306550,-1378.971896
554.064930,5995.668130,8512.368333,536.266849
554.065251,4737.318029,7772.162391,689.485948
554.065572,4959.379811,7476.080014,-1149.143247
554.065893,5403.503377,9474.636058,-2221.676944
554.066214,4589.276840,10658.965565,-612.876398
554.066535,4145.153275,8512.368333,0.000000
554.066855,4071.132681,7031.956449,153.219100
554.067176,3552.988522,7920.203579,842.705048
554.067497,1998.556043,9326.594869,612.876398
554.067818,2146.597232,9548.656652,-306.438199
554.068139,4145.153275,8956.491898,-842.705048
554.068459,6365.771101,9474.636058,766.095498
554.068780,5699.585753,9992.780217,1762.019645
554.069101,3997.112087,8364.327145,459.657299
554.069422,3627.009116,9474.636058,459.657299
554.069743,3627.009116,9918.759623,689.485948
554.070063,4219.173869,9400.615463,-536.266849
554.070384,6217.729913,8882.471304,76.609550
554.070705,5403.503377,9992.780217,-459.657299
554.071026,4071.132681,9548.656652,0.000000
554.071347,2516.700203,6513.812290,-689.485948
554.071667,4441.235652,5255.462188,-1838.629195
554.071988,5477.523971,6661.853478,-612.876398
554.072309,5033.400406,8142.265362,689.485948
554.072630,5329.482782,8438.347739,-229.828649
554.072951,5921.647536,7846.182985,0.000000
554.073272,7031.956449,7994.224174,1072.533697
554.073592,6957.935855,6217.729913,1149.143247
554.073913,5625.565159,4441.235652,-1149.143247
554.074234,6365.771101,5107.421000,-2604.724693
554.074555,7328.038826,6587.832884,-2145.067394
554.074876,7846.182985,7402.059420,-1302.362347
554.075196,9844.739029,7624.121203,-1455.581446
554.075517,8290.306550,8734.430116,-536.266849
554.075838,6809.894666,9400.615463,229.828649
554.076159,5255.462188,7550.100608,-383.047749
554.076480,4515.256246,4737.318029,-1455.581446
554.076800,5255.462188,5107.421000,-153.219100
554.077121,4959.379811,6217.729913,1072.533697
554.077442,4071.132681,8142.265362,153.219100
554.077763,5847.626942,9252.574275,919.314598
554.078084,4737.318029,9622.677246,1532.190996
554.078404,3478.967927,7402.059420,1225.752797
554.078725,3997.112087,6809.894666,459.657299
554.079046,4219.173869,7624.121203,612.876398
554.079367,4663.297435,8882.471304,0.000000
554.079688,5995.668130,8438.347739,-153.219100
554.080009,5773.606348,7328.038826,-1225.752797
554.080329,6217.729913,9178.553681,-919.314598
554.080650,4071.132681,9844.739029,229.828649
554.080971,3404.947333,8586.388927,-536.266849
554.081292,5551.544565,8660.409521,-842.705048
554.081613,7105.977043,9178.553681,0.000000
554.081933,4663.297435,8956.491898,0.000000
554.082254,5107.421000,7105.977043,-153.219100
554.082575,6217.729913,7772.162391,306.438199
554.082896,4589.276840,11103.089130,1532.190996
554.083217,3775.050304,10658.965565,995.924147
554.083537,4145.153275,8142.265362,459.657299
554.083858,4589.276840,6217.729913,306.438199
554.084179,4663.297435,6217.729913,1225.752797
554.084500,3701.029710,6217.729913,0.000000
554.084821,3552.988522,7105.977043,-3294.210641
554.085142,3552.988522,9918.759623,-2145.067394
554.085462,3330.926739,11103.089130,-612.876398
554.085783,5255.462188,10288.862594,536.266849
554.086104,5403.503377,7994.224174,1532.190996
554.086425,5403.503377,9326.594869,383.047749
554.086746,3923.091493,9770.718434,-536.266849
554.087066,2072.576638,8364.327145,-2451.505594
554.087387,3997.112087,7105.977043,-995.924147
554.087708,6957.935855,9326.594869,2374.896044
554.088029,5403.503377,9474.636058,1838.629195
554.088350,3552.988522,8216.285956,-536.266849
554.088670,3849.070898,6587.832884,-1455.581446
554.088991,4959.379811,4515.256246,0.000000
554.089312,4145.153275,2960.823768,1838.629195
554.089633,4885.359217,4663.297435,383.047749
554.089954,5699.585753,8660.409521,-2451.505594
554.090274,5625.565159,11103.089130,-2757.943793
554.090595,6735.874072,11103.089130,-1991.848295
554.090916,7476.080014,8660.409521,-1532.190996
554.091237,7031.956449,7698.141797,0.000000
554.091558,5921.647536,8660.409521,-306.438199
554.091879,5403.503377,8216.285956,-1455.581446
554.092199,6069.688724,7328.038826,-1149.143247
554.092520,7772.162391,8512.368333,76.609550
554.092841,5847.626942,9030.512492,459.657299
554.093162,4885.359217,8512.368333,766.095498
554.093483,4737.318029,6735.874072,0.000000
554.093803,4737.318029,4367.215058,383.047749
554.094124,5181.441594,2886.803174,995.924147
554.094445,5625.565159,4367.215058,1149.143247
554.094766,4737.318029,8808.450710,0.000000
554.095087,4663.297435,12065.356855,-459.657299
554.095407,4885.359217,12509.480420,-1685.410096
554.095728,6957.935855,10881.027347,-1532.190996
554.096049,5033.400406,10288.862594,-306.438199
554.096370,5625.565159,9696.697840,0.000000
554.096691,4515.256246,7920.203579,-689.485948
554.097011,3034.844362,7031.956449,-766.095498
554.097332,4367.215058,7624.121203,-153.219100
554.097653,4145.153275,8660.409521,842.705048
554.097974,2738.761985,7328.038826,766.095498
554.098295,4663.297435,7105.977043,229.828649
554.098616,5329.482782,6809.894666,0.000000
554.098936,4959.379811,5551.544565,-153.219100
554.099257,4219.173869,6217.729913,612.876398
554.099578,3775.050304,7476.080014,1072.533697
554.099899,5033.400406,11547.212695,766.095498
554.100220,5255.462188,11843.295072,-612.876398
554.100540,4959.379811,9696.697840,-3064.381992
554.100861,6735.874072,9918.759623,-2221.676944
554.101182,4959.379811,10510.924376,-153.219100
554.101503,1776.494261,8808.450710,0.000000
554.101824,2220.617826,5255.462188,-612.876398
554.102144,4367.215058,6735.874072,-306.438199
554.102465,3256.906145,8142.265362,1149.143247
554.102786,2294.638420,8142.265362,1072.533697
554.103107,4441.235652,8438.347739,0.000000
554.103428,4589.276840,7920.203579,383.047749
554.103748,4737.318029,6439.791695,2298.286494
554.104069,5551.544565,4959.379811,1685.410096
554.104390,5107.421000,4663.297435,-1378.971896
554.104711,4589.276840,7698.141797,-1302.362347
554.105032,6513.812290,10362.883188,-1378.971896
554.105353,7254.018232,9844.739029,-3064.381992
554.105673,7772.162391,8808.450710,-1608.800546
554.105994,8808.450710,9178.553681,-1072.533697
554.106315,7179.997637,7920.203579,-1455.581446
554.106636,3404.947333,6883.915261,-2221.676944
554.106957,4811.338623,7031.956449,-1532.190996
554.107277,6809.894666,8512.368333,536.266849
554.107598,6143.709319,9104.533087,1991.848295
554.107919,4959.379811,9178.553681,2221.676944
554.108240,4145.153275,8142.265362,919.314598
554.108561,5255.462188,7994.224174,1378.971896
554.108881,4071.132681,6957.935855,1762.019645
554.109202,2368.659014,4367.215058,229.828649
554.109523,4589.276840,6513.812290,0.000000
554.109844,4145.153275,9844.739029,919.314598
554.110165,2590.720797,10807.006753,-383.047749
554.110485,5255.462188,10658.965565,-2374.896044
554.110806,6439.791695,9474.636058,-1532.190996
554.111127,3701.029710,9252.574275,-1915.238745
554.111448,4441.235652,8068.244768,76.609550
554.111769,4737.318029,8512.368333,153.219100
554.112090,4737.318029,9326.594869,-229.828649
554.112410,5625.565159,8956.491898,76.609550
554.112731,5033.400406,7698.141797,-919.314598
554.113052,5477.523971,8512.368333,-1455.581446
554.113373,5033.400406,8882.471304,766.095498
554.113694,4367.215058,8438.347739,536.266849
554.114014,5255.462188,7772.162391,153.219100
554.114335,4441.235652,8216.285956,1302.362347
554.114656,3775.050304,7994.224174,-229.828649
554.114977,3330.926739,6439.791695,-1225.752797
554.115298,3108.864956,6809.894666,-842.705048
554.115618,3997.112087,8142.265362,-689.485948
554.115939,3552.988522,8512.368333,-306.438199
554.116260,4145.153275,7920.203579,-689.485948
554.116581,6661.853478,9696.697840,-383.047749
554.116902,6513.812290,11029.068536,766.095498
554.117223,4885.359217,8734.430116,-459.657299
554.117543,5181.441594,5403.503377,-1762.019645
554.117864,6143.709319,5625.565159,-153.219100
554.118185,7031.956449,7254.018232,1302.362347
554.118506,6809.894666,8364.327145,1532.190996
554.118827,5551.544565,8290.306550,-1685.410096
554.119147,5699.585753,9030.512492,-1838.629195
554.119468,3775.050304,7402.059420,76.609550
554.119789,3627.009116,6735.874072,1685.410096
554.120110,4811.338623,7254.018232,1532.190996
554.120431,4293.194464,7550.100608,-689.485948
554.120751,4219.173869,8882.471304,-2068.457845
554.121072,3256.906145,8364.327145,-1072.533697
554.121393,3256.906145,9326.594869,1072.533697
554.121714,4441.235652,11473.192101,2911.162892
554.122035,3923.091493,11843.295072,1225.752797
554.122355,3552.988522,10510.924376,-689.485948
554.122676,4589.276840,7698.141797,-1149.143247
554.122997,6439.791695,6513.812290,0.000000
554.123318,4663.297435,4811.338623,919.314598
554.123639,3849.070898,4145.153275,459.657299
554.123960,4663.297435,5921.647536,-76.609550
554.124280,5477.523971,8290.306550,-536.266849
554.124601,5181.441594,8290.306550,-1149.143247
554.124922,8956.491898,7698.141797,-2068.457845
554.125243,8290.306550,8142.265362,-1302.362347
554.125564,6735.874072,9252.574275,-612.876398
554.125884,5921.647536,8068.244768,-612.876398
554.126205,6809.894666,7179.997637,536.266849
554.126526,6513.812290,7402.059420,1072.533697
554.126847,5329.482782,9030.512492,536.266849
554.127168,4145.153275,8512.368333,-1532.190996
554.127488,4737.318029,7846.182985,-2145.067394
554.127809,3775.050304,6217.729913,-612.876398
554.128130,3997.112087,3404.947333,1072.533697
554.128451,4367.215058,3923.091493,229.828649
554.128772,3256.906145,7105.977043,-766.095498
554.129092,2220.617826,9400.615463,-2757.943793
554.129413,4219.173869,10955.047942,-2451.505594
554.129734,5921.647536,10362.883188,-1072.533697
554.130055,5995.668130,11325.150913,1149.143247
554.130376,5551.544565,12953.603985,1608.800546
554.130697,4811.338623,12657.521608,-536.266849
554.131017,4811.338623,11103.089130,-1302.362347
554.131338,4885.359217,9844.739029,459.657299
554.131659,4663.297435,7624.121203,1072.533697
554.131980,3775.050304,5699.585753,1915.238745
554.132301,3923.091493,5181.441594,2145.067394
554.132621,4515.256246,5921.647536,1072.533697
554.132942,4441.235652,6069.688724,0.000000
554.133263,3627.009116,5699.585753,-1608.800546
554.133584,4811.338623,7476.080014,-842.705048
554.133905,5921.647536,10214.842000,842.705048
554.134225,7476.080014,10732.986159,995.924147
554.134546,6143.709319,9104.533087,-1378.971896
554.134867,7550.100608,9030.512492,-2911.162892
554.135188,6957.935855,10140.821405,-3064.381992
554.135509,5403.503377,10807.006753,-919.314598
554.135829,6957.935855,9696.697840,153.219100
554.136150,6661.853478,8364.327145,689.485948
554.136471,4663.297435,5773.606348,383.047749
554.136792,4293.194464,5181.441594,766.095498
554.137113,4737.318029,5033.400406,842.705048
554.137434,3997.112087,5107.421000,229.828649
554.137754,4293.194464,5255.462188,-153.219100
554.138075,4737.318029,6143.709319,306.438199
554.138396,3775.050304,8438.347739,536.266849
554.138717,3330.926739,11769.274478,1378.971896
554.139038,4959.379811,11843.295072,-459.657299
554.139358,4441.235652,9992.780217,-2834.553343
554.139679,3775.050304,7550.100608,-2145.067394
554.140000,5033.400406,7994.224174,383.047749
554.140321,5107.421000,8882.471304,1455.581446
554.140642,3627.009116,7476.080014,995.924147
554.140962,3182.885551,6809.894666,-306.438199
554.141283,5255.462188,6291.750507,-1149.143247
554.141604,4959.379811,5773.606348,-306.438199
554.141925,5551.544565,5625.565159,229.828649
554.142246,7105.977043,6957.935855,766.095498
554.142566,8512.368333,8290.306550,766.095498
554.142887,4959.379811,6217.729913,-536.266849
554.143208,5773.606348,4589.276840,-1685.410096
554.143529,8956.491898,7772.162391,-383.047749
554.143849,6883.915261,11177.109724,-153.219100
554.144170,5255.462188,10658.965565,-1608.800546
554.144491,6439.791695,8216.285956,-2604.724693
554.144812,5995.668130,7624.121203,-995.924147
554.145133,4737.318029,7550.100608,2528.115143
554.145453,4071.132681,5995.668130,1455.581446
554.145774,3997.112087,6883.915261,-2757.943793
554.146095,3849.070898,7920.203579,-2834.553343
554.146416,3849.070898,8364.327145,0.000000
554.146736,5773.606348,8438.347739,1838.629195
554.147057,6217.729913,9918.759623,2834.553343
554.147378,4071.132681,12065.356855,1762.019645
554.147699,3478.967927,11251.130318,-766.095498
554.148019,3923.091493,9178.553681,-1149.143247
554.148340,4441.235652,9326.594869,459.657299
554.148661,5477.523971,8290.306550,2298.286494
554.148982,4885.359217,8068.244768,1991.848295
554.149302,4515.256246,7772.162391,-229.828649
554.149623,4219.173869,7994.224174,-536.266849
554.149944,5477.523971,9104.533087,919.314598
554.150265,4885.359217,8216.285956,229.828649
554.150586,4811.338623,6365.771101,229.828649
554.150906,6957.935855,6143.709319,689.485948
554.151227,7179.997637,5625.565159,995.924147
554.151548,5699.585753,4737.318029,-766.095498
554.151869,6883.915261,6217.729913,-1915.238745
554.152189,6809.894666,10362.883188,-2451.505594
554.152510,6587.832884,11473.192101,-2987.772442
554.152831,7105.977043,8660.409521,-1915.238745
554.153152,8808.450710,5699.585753,-766.095498
554.153472,7846.182985,4959.379811,1072.533697
554.153793,3034.844362,5995.668130,842.705048
554.154114,2294.638420,7179.997637,-1455.581446
554.154435,3552.988522,9696.697840,-1532.190996
554.154755,4737.318029,9400.615463,919.314598
554.155076,4737.318029,8512.368333,2374.896044
554.155397,4293.194464,7994.224174,1838.629195
554.155718,1406.391290,9104.533087,-612.876398
554.156038,-222.061783,9474.636058,-1532.190996
554.156359,148.041188,7994.224174,-1072.533697
554.156680,3775.050304,7698.141797,1072.533697
554.157001,3701.029710,8882.471304,2681.334243
554.157322,2220.617826,9474.636058,2068.457845
554.157642,3923.091493,10288.862594,995.924147
554.157963,3182.885551,9326.594869,-536.266849
554.158284,3849.070898,6883.915261,-306.438199
554.158605,6143.709319,4293.194464,383.047749
554.158925,8290.306550,4959.379811,0.000000
554.159246,7179.997637,7550.100608,-153.219100
554.159567,7772.162391,7920.203579,-459.657299
554.159888,9326.594869,7476.080014,-2145.067394
554.160208,9918.759623,7402.059420,-1991.848295
554.160529,9252.574275,8364.327145,76.609550
554.160850,10066.800811,9474.636058,459.657299
554.161171,7402.059420,7698.141797,-1762.019645
554.161491,5773.606348,5551.544565,-2834.553343
554.161812,5181.441594,5255.462188,-1838.629195
554.162133,4663.297435,6587.832884,0.000000
554.162454,4293.194464,8882.471304,536.266849
554.162775,3627.009116,9696.697840,0.000000
554.163095,3182.885551,8364.327145,-1685.410096
554.163416,3627.009116,8142.265362,0.000000
554.163737,2812.782580,7402.059420,2911.162892
554.164058,2886.803174,8364.327145,3370.820191
554.164378,3627.009116,9844.739029,1225.752797
554.164699,2368.659014,9622.677246,-1762.019645
554.165020,3552.988522,9400.615463,-1762.019645
554.165341,4071.132681,8808.450710,229.828649
554.165661,4737.318029,8586.388927,229.828649
554.165982,4293.194464,7772.162391,0.000000
554.166303,4885.359217,6513.812290,-536.266849
554.166624,7254.018232,8216.285956,-153.219100
554.166944,5403.503377,7698.141797,612.876398
554.167265,5329.482782,6883.915261,842.705048
554.167586,7402.059420,8216.285956,1072.533697
554.167907,7105.977043,8808.450710,689.485948
554.168228,5329.482782,6809.894666,-383.047749
554.168548,8364.327145,4367.215058,-2374.896044
554.168869,6957.935855,3849.070898,-2911.162892
554.169190,4737.318029,6661.853478,-2221.676944
554.169511,5255.462188,8734.430116,-1378.971896
554.169831,6143.709319,10288.862594,-1762.019645
554.170152,5625.565159,9918.759623,-536.266849
554.170473,4515.256246,9696.697840,766.095498
554.170794,3627.009116,8216.285956,-612.876398
554.171114,3627.009116,8364.327145,-2068.457845
554.171435,2590.720797,8660.409521,-842.705048
554.171756,4811.338623,8364.327145,-995.924147
554.172077,5403.503377,9326.594869,919.314598
554.172397,4071.132681,10066.800811,3294.210641
554.172718,2590.720797,11621.233289,3064.381992
554.173039,3108.864956,11695.253884,2145.067394
554.173360,2294.638420,9400.615463,76.609550
554.173681,3478.967927,6291.750507,383.047749
554.174001,4663.297435,4441.235652,2145.067394
554.174322,3404.947333,6069.688724,1532.190996
554.174643,1850.514855,7846.182985,229.828649
554.174964,2664.741391,8808.450710,-1302.362347
554.175284,5181.441594,9104.533087,-1685.410096
554.175605,5921.647536,8290.306550,153.219100
554.175926,7254.018232,7994.224174,1455.581446
554.176247,7624.121203,9770.718434,459.657299
554.176567,5033.400406,9474.636058,-1378.971896
554.176888,5403.503377,7402.059420,-2145.067394
554.177209,8512.368333,5995.668130,-1302.362347
554.177530,8660.409521,6291.750507,-459.657299
554.177850,7846.182985,7105.977043,1225.752797
554.178171,6513.812290,6809.894666,-995.924147
554.178492,7105.977043,6365.771101,-2374.896044
554.178813,6513.812290,5477.523971,0.000000
554.179134,8068.244768,3849.070898,1532.190996
554.179454,7105.977043,4885.359217,842.705048
554.179775,4737.318029,8142.265362,-1302.362347
554.180096,2960.823768,9696.697840,-2221.676944
554.180417,4663.297435,8586.388927,-1608.800546
554.180737,5847.626942,7328.038826,-459.657299
554.181058,4589.276840,9104.533087,383.047749
554.181379,2442.679609,10881.027347,-229.828649
554.181700,1554.432478,11399.171507,-1762.019645
554.182020,1554.432478,10584.944971,0.000000
554.182341,2886.803174,10214.842000,2298.286494
554.182662,4293.194464,9696.697840,2834.553343
554.182983,1036.288319,7105.977043,766.095498
554.183303,1924.535449,7031.956449,-766.095498
554.183624,3256.906145,7328.038826,689.485948
554.183945,4663.297435,7031.956449,919.314598
554.184266,4811.338623,7328.038826,229.828649
554.184587,6587.832884,9844.739029,459.657299
554.184907,7105.977043,11399.171507,383.047749
554.185228,6513.812290,9918.759623,-306.438199
554.185549,6439.791695,6217.729913,-1685.410096
554.185870,8512.368333,7994.224174,-1302.362347
554.186190,6661.853478,8808.450710,-1302.362347
554.186511,4885.359217,8290.306550,-2145.067394
554.186832,8290.306550,8142.265362,-2068.457845
554.187153,6365.771101,7624.121203,-1225.752797
554.187473,3923.091493,7031.956449,-306.438199
554.187794,3404.947333,6365.771101,689.485948
554.188115,4515.256246,6735.874072,536.266849
554.188436,4145.153275,7402.059420,459.657299
554.188756,3997.112087,7328.038826,-229.828649
554.189077,3182.885551,6513.812290,-2068.457845
554.189398,4367.215058,9918.759623,-229.828649
554.189719,2960.823768,12361.439231,1685.410096
554.190040,4441.235652,13397.727550,-459.657299
554.190360,4885.359217,10881.027347,-1608.800546
554.190681,3775.050304,8734.430116,-1378.971896
554.191002,3404.947333,7994.224174,-229.828649
554.191323,2812.782580,7179.997637,1838.629195
554.191643,3627.009116,8216.285956,1685.410096
554.191964,4071.132681,8808.450710,1991.848295
554.192285,4441.235652,7179.997637,1838.629195
554.192606,4959.379811,6291.750507,766.095498
554.192926,5181.441594,7254.018232,459.657299
554.193247,4515.256246,7920.203579,-229.828649
554.193568,6883.915261,6587.832884,-1915.238745
554.193889,6809.894666,4737.318029,-919.314598
554.194209,7254.018232,6883.915261,766.095498
554.194530,7179.997637,10362.883188,919.314598
554.194851,5033.400406,12287.418637,-1225.752797
554.195172,4663.297435,10362.883188,-3907.087040
554.195493,7254.018232,7402.059420,-2298.286494
554.195813,7402.059420,5329.482782,536.266849
554.196134,4219.173869,4219.173869,383.047749
554.196455,2812.782580,5625.565159,-995.924147
554.196776,3849.070898,9474.636058,-1532.190996
554.197096,4367.215058,10955.047942,-1455.581446
554.197417,4737.318029,7994.224174,-383.047749
554.197738,5773.606348,6883.915261,383.047749
554.198059,5255.462188,9178.553681,1455.581446
554.198379,2442.679609,11621.233289,2451.505594
554.198700,1110.308913,11177.109724,383.047749
554.199021,3256.906145,8512.368333,-1149.143247
554.199342,4589.276840,8364.327145,842.705048
554.199662,3552.988522,9622.677246,3294.210641
554.199983,3182.885551,7624.121203,3294.210641
554.200304,3552.988522,5847.626942,1225.752797
554.200625,2960.823768,5551.544565,229.828649
554.200945,4885.359217,6587.832884,995.924147
554.201266,5329.482782,6883.915261,612.876398
554.201587,5551.544565,7994.224174,-842.705048
554.201908,8216.285956,8290.306550,-842.705048
554.202229,5995.668130,6957.935855,-1532.190996
554.202549,6883.915261,6143.709319,-2298.286494
554.202870,7920.203579,7698.141797,0.000000
554.203191,7846.182985,9696.697840,-383.047749
554.203512,6883.915261,9326.594869,-3677.258390
554.203832,5995.668130,8068.244768,-4749.792088
554.204153,5995.668130,7624.121203,-3524.039291
554.204474,6587.832884,8290.306550,229.828649
554.204795,5107.421000,7105.977043,1608.800546
554.205115,5995.668130,7105.977043,-459.657299
554.205436,4663.297435,7031.956449,-995.924147
554.205757,2294.638420,6439.791695,-383.047749
554.206078,2590.720797,6143.709319,612.876398
554.206398,4145.153275,8586.388927,2451.505594
554.206719,4663.297435,12287.418637,2298.286494
554.207040,3997.112087,11547.212695,0.000000
554.207361,3404.947333,9474.636058,-1838.629195
554.207682,3849.070898,9474.636058,-383.047749
554.208002,2442.679609,9030.512492,1608.800546
554.208323,1776.494261,7994.224174,995.924147
554.208644,4219.173869,7920.203579,-1455.581446
554.208965,2886.803174,8512.368333,-2374.896044
554.209285,2812.782580,9548.656652,-1378.971896
554.209606,4737.318029,9178.553681,153.219100
554.209927,4885.359217,8882.471304,1072.533697
554.210248,4959.379811,9992.780217,995.924147
554.210568,5181.441594,9252.574275,383.047749
554.210889,5477.523971,7698.141797,0.000000
554.211210,6513.812290,7624.121203,-766.095498
554.211531,7846.182985,7994.224174,0.000000
554.211851,7105.977043,9030.512492,-1302.362347
554.212172,6809.894666,8808.450710,-2528.115143
554.212493,5847.626942,7698.141797,-1225.752797
554.212814,5329.482782,6069.688724,0.000000
554.213135,5033.400406,5847.626942,76.609550
554.213455,5699.585753,6217.729913,-1302.362347
554.213776,5255.462188,7698.141797,-2451.505594
554.214097,6291.750507,7920.203579,-2528.115143
554.214418,5995.668130,6809.894666,-229.828649
554.214738,6513.812290,6957.935855,3217.601092
554.215059,5847.626942,10955.047942,4826.401637
554.215380,4811.338623,12435.459826,1685.410096
554.215701,4145.153275,10066.800811,-2145.067394
554.216021,7402.059420,7105.977043,-1302.362347
554.216342,6809.894666,6439.791695,1608.800546
554.216663,3552.988522,4959.379811,2451.505594
554.216984,1850.514855,5107.421000,1225.752797
554.217304,2590.720797,7179.997637,0.000000
554.217625,2664.741391,8734.430116,0.000000
554.217946,4515.256246,8660.409521,842.705048
554.218267,5477.523971,7994.224174,0.000000
554.218588,5181.441594,10288.862594,-919.314598
554.218908,3552.988522,9918.759623,-1378.971896
554.219229,5255.462188,7254.018232,-2298.286494
554.219550,7476.080014,4959.379811,-766.095498
554.219871,6069.688724,4959.379811,1455.581446
554.220191,5477.523971,7624.121203,766.095498
554.220512,5921.647536,10214.842000,-995.924147
554.220833,6513.812290,11325.150913,-1378.971896
554.221154,6735.874072,7624.121203,-306.438199
554.221474,7254.018232,4589.276840,-459.657299
554.221795,5699.585753,2738.761985,-76.609550
554.222116,4589.276840,4145.153275,459.657299
554.222437,3997.112087,7105.977043,0.000000
554.222757,4959.379811,9918.759623,-1378.971896
554.223078,5329.482782,10955.047942,-1608.800546
554.223399,5403.503377,11399.171507,842.705048
554.223720,4219.173869,11695.253884,1378.971896
554.224041,3478.967927,9030.512492,153.219100
554.224361,1406.391290,7105.977043,-1302.362347
554.224682,2368.659014,7105.977043,-919.314598
554.225003,4071.132681,9548.656652,1762.019645
554.225324,2590.720797,10436.903782,2987.772442
554.225644,3997.112087,10362.883188,766.095498
554.225965,5033.400406,8882.471304,0.000000
554.226286,3627.009116,7476.080014,-459.657299
554.226607,3701.029710,5329.482782,612.876398
554.226927,5329.482782,5921.647536,459.657299
554.227248,4811.338623,7550.100608,-153.219100
554.227569,5329.482782,9178.553681,-459.657299
554.227890,5847.626942,8956.491898,-1532.190996
554.228210,7846.182985,9844.739029,-1762.019645
554.228531,7031.956449,10807.006753,-1225.752797
554.228852,5921.647536,9992.780217,-1838.629195
554.229173,5773.606348,9474.636058,-2221.676944
554.229494,4885.359217,8438.347739,229.828649
554.229814,3775.050304,7402.059420,1532.190996
554.230135,5995.668130,6217.729913,1532.190996
554.230456,5181.441594,6735.874072,-536.266849
554.230777,3404.947333,7994.224174,-1532.190996
554.231097,3701.029710,7772.162391,-306.438199
554.231418,3552.988522,5773.606348,1455.581446
554.231739,5033.400406,4885.359217,1762.019645
554.232060,4441.235652,7105.977043,1762.019645
554.232380,3997.112087,9178.553681,-766.095498
554.232701,3775.050304,9252.574275,-3830.477490
554.233022,5921.647536,9030.512492,-3064.381992
554.233343,8956.491898,10214.842000,-612.876398
554.233663,9104.533087,10658.965565,842.705048
554.233984,5773.606348,8882.471304,0.000000
554.234305,5107.421000,9400.615463,-536.266849
554.234626,4145.153275,7624.121203,995.924147
554.234947,2664.741391,4959.379811,1225.752797
554.235267,4959.379811,4441.235652,1378.971896
554.235588,5033.400406,6217.729913,76.609550
554.235909,4367.215058,7179.997637,-612.876398
554.236230,5255.462188,6513.812290,-459.657299
554.236550,5625.565159,5921.647536,-306.438199
554.236871,5329.482782,7179.997637,1149.143247
554.237192,4885.359217,8068.244768,2221.676944
554.237513,4811.338623,8734.430116,-383.047749
554.237833,7846.182985,9104.533087,-1225.752797
554.238154,8734.430116,9326.594869,-1762.019645
554.238475,8364.327145,9326.594869,-3753.867940
554.238796,5921.647536,7920.203579,-4060.306139
554.239116,5033.400406,7550.100608,-1762.019645
554.239437,6217.729913,7476.080014,1225.752797
554.239758,6069.688724,6143.709319,2604.724693
554.240079,5847.626942,6809.894666,1532.190996
554.240400,5181.441594,9104.533087,536.266849
554.240720,3182.885551,10214.842000,-689.485948
554.241041,3256.906145,7624.121203,-306.438199
554.241362,3923.091493,4811.338623,689.485948
554.241682,4515.256246,6365.771101,2757.943793
554.242003,4441.235652,11029.068536,3140.991542
554.242324,2220.617826,12287.418637,459.657299
554.242644,2072.576638,10584.944971,-2604.724693
554.242965,4145.153275,8956.491898,-536.266849
554.243285,3775.050304,8586.388927,2298.286494
554.243606,3034.844362,8216.285956,2298.286494
554.243926,3108.864956,7105.977043,-76.609550
554.244247,3330.926739,6809.894666,-2757.943793
554.244568,3552.988522,7031.956449,-2451.505594
554.244888,4737.318029,6069.688724,-1149.143247
554.245209,6809.894666,8586.388927,-153.219100
554.245529,6587.832884,11769.274478,766.095498
554.245850,5773.606348,11621.233289,459.657299
554.246170,6439.791695,9030.512492,-1455.581446
554.246491,6439.791695,6365.771101,-1915.238745
554.246812,6513.812290,7328.038826,-383.047749
554.247132,5921.647536,8290.306550,-306.438199
554.247453,6513.812290,8512.368333,-1225.752797
554.247773,6587.832884,7624.121203,383.047749
554.248094,6069.688724,6735.874072,1455.581446
554.248414,3775.050304,4737.318029,1378.971896
554.248735,2516.700203,4737.318029,229.828649
554.249056,3775.050304,5181.441594,-1608.800546
554.249376,4663.297435,6291.750507,-1072.533697
554.249697,5403.503377,6883.915261,-612.876398
554.250017,7105.977043,9400.615463,459.657299
554.250338,4737.318029,12435.459826,306.438199
554.250658,4145.153275,12879.583391,-612.876398
554.250979,4811.338623,9992.780217,-2374.896044
554.251300,5625.565159,7105.977043,-2681.334243
554.251620,6143.709319,6735.874072,229.828649
554.251941,5403.503377,7624.121203,2987.772442
554.252261,4737.318029,8734.430116,689.485948
554.252582,2590.720797,8364.327145,-766.095498
554.252902,3701.029710,6661.853478,-383.047749
554.253223,5847.626942,5625.565159,306.438199
554.253544,5625.565159,4737.318029,1532.190996
554.253864,5625.565159,6291.750507,383.047749
554.254185,8364.327145,8290.306550,-1532.190996
554.254505,6143.709319,8290.306550,-3600.648841
554.254826,7328.038826,8068.244768,-2451.505594
554.255146,9178.553681,8586.388927,76.609550
554.255467,8216.285956,9992.780217,153.219100
554.255788,6661.853478,9178.553681,0.000000
554.256108,7031.956449,8882.471304,-689.485948
554.256429,5625.565159,6439.791695,-1149.143247
554.256749,5403.503377,4663.297435,229.828649
554.257070,4293.194464,4589.276840,1149.143247
554.257390,4663.297435,7772.162391,-153.219100
554.257711,4071.132681,10732.986159,766.095498
554.258032,4145.153275,8660.409521,919.314598
554.258352,5181.441594,7920.203579,1455.581446
554.258673,3478.967927,9104.533087,1685.410096
554.258993,2072.576638,9918.759623,1455.581446
554.259314,2368.659014,10955.047942,-383.047749
554.259634,3404.947333,10214.842000,-1991.848295
554.259955,3182.885551,10510.924376,-1838.629195
554.260276,2590.720797,10436.903782,-459.657299
554.260596,1628.453072,9770.718434,-229.828649
554.260917,1406.391290,10066.800811,229.828649
554.261237,2368.659014,7772.162391,383.047749
554.261558,4811.338623,7105.977043,459.657299
554.261878,4737.318029,6661.853478,766.095498
554.262199,3552.988522,7920.203579,1302.362347
554.262520,4441.235652,9252.574275,1072.533697
554.262840,5773.606348,8364.327145,76.609550
554.263161,7254.018232,5995.668130,0.000000
554.263481,7550.100608,5551.544565,0.000000
554.263802,7105.977043,7920.203579,-842.705048
554.264123,6513.812290,9918.759623,-1532.190996
554.264443,5699.585753,9030.512492,-1608.800546
554.264764,7624.121203,7402.059420,-689.485948
554.265084,8512.368333,6439.791695,919.314598
554.265405,5403.503377,6957.935855,842.705048
554.265725,4737.318029,7476.080014,-766.095498
554.266046,4515.256246,8068.244768,-1991.848295
554.266367,3923.091493,7031.956449,-1532.190996
554.266687,4737.318029,4959.379811,612.876398
554.267008,5921.647536,5847.626942,2068.457845
554.267328,4441.235652,9770.718434,1838.629195
554.267649,2442.679609,10732.986159,919.314598
554.267969,1998.556043,8586.388927,-1838.629195
554.268290,5477.523971,6661.853478,-1378.971896
554.268611,4811.338623,6513.812290,1149.143247
554.268931,4589.276840,7328.038826,1532.190996
554.269252,5255.462188,8660.409521,76.609550
554.269572,4959.379811,9252.574275,-1685.410096
554.269893,4663.297435,8142.265362,-1608.800546
554.270213,7105.977043,6587.832884,-306.438199
554.270534,8438.347739,6513.812290,76.609550
554.270855,6809.894666,8216.285956,459.657299
554.271175,6365.771101,9326.594869,459.657299
554.271496,5995.668130,7920.203579,-689.485948
554.271816,6513.812290,6439.791695,-383.047749
554.272137,8216.285956,5995.668130,1991.848295
554.272457,6143.709319,7994.224174,842.705048
554.272778,3404.947333,7994.224174,-1991.848295
554.273099,4885.359217,7402.059420,-1915.238745
554.273419,5995.668130,6069.688724,-306.438199
554.273740,7254.018232,5847.626942,1378.971896
554.274060,5995.668130,7105.977043,-76.609550
554.274381,3404.947333,9770.718434,-2987.772442
554.274701,3256.906145,11547.212695,-3140.991542
554.275022,3627.009116,10955.047942,-76.609550
554.275343,5107.421000,8512.368333,536.266849
554.275663,7105.977043,9326.594869,1149.143247
554.275984,3923.091493,11991.336260,0.000000
554.276304,0.000000,11399.171507,-2911.162892
554.276625,1036.288319,9548.656652,-1225.752797
554.276945,3997.112087,8512.368333,2145.067394
554.277266,4811.338623,8142.265362,5286.058936
554.277587,3404.947333,6809.894666,3983.696590
554.277907,2664.741391,6735.874072,-766.095498
554.278228,2664.741391,7179.997637,-1915.238745
554.278548,3849.070898,5181.441594,0.000000
554.278869,6587.832884,4219.173869,1072.533697
554.279189,8586.388927,7031.956449,229.828649
554.279510,7031.956449,11251.130318,-1608.800546
554.279831,4737.318029,10732.986159,-3064.381992
554.280151,6735.874072,7476.080014,-4290.134789
554.280472,9252.574275,7550.100608,-919.314598
554.280792,8364.327145,9770.718434,1149.143247
554.281113,5477.523971,9474.636058,-766.095498
554.281433,5107.421000,9400.615463,-3064.381992
554.281754,3923.091493,7920.203579,-842.705048
554.282075,2664.741391,5625.565159,2221.676944
554.282395,3478.967927,4663.297435,1991.848295
554.282716,3849.070898,7031.956449,306.438199
554.283036,2442.679609,9696.697840,-383.047749
554.283357,2664.741391,9770.718434,-229.828649
554.283677,3182.885551,8660.409521,-383.047749
554.283998,4367.215058,8956.491898,1532.190996
554.284319,3404.947333,10807.006753,2681.334243
554.284639,3627.009116,10732.986159,153.219100
554.284960,3849.070898,8586.388927,-689.485948
554.285280,5255.462188,8438.347739,689.485948
554.285601,3849.070898,8512.368333,1608.800546
554.285921,3182.885551,7698.141797,842.705048
554.286242,5255.462188,6365.771101,-1149.143247
554.286563,8216.285956,5773.606348,-1225.752797
554.286883,7402.059420,4885.359217,-306.438199
554.287204,6513.812290,4219.173869,536.266849
554.287524,7105.977043,6365.771101,1532.190996
554.287845,7550.100608,9474.636058,2451.505594
554.288166,7772.162391,9622.677246,306.438199
554.288486,6957.935855,7476.080014,-2451.505594
554.288807,6661.853478,5773.606348,-3140.991542
554.289127,5699.585753,7698.141797,-1225.752797
554.289448,4071.132681,8512.368333,-306.438199
554.289768,5995.668130,8956.491898,-1685.410096
554.290089,5847.626942,8216.285956,-1072.533697
554.290410,2886.803174,7254.018232,-995.924147
554.290730,2886.803174,7105.977043,1302.362347
554.291051,2368.659014,7328.038826,2451.505594
554.291371,2368.659014,7550.100608,383.047749
554.291692,5551.544565,7920.203579,-689.485948
554.292012,3849.070898,7105.977043,-1991.848295
554.292333,3701.029710,7328.038826,-1302.362347
554.292654,4145.153275,9474.636058,1072.533697
554.292974,4737.318029,11695.253884,0.000000
554.293295,3923.091493,11547.212695,-2374.896044
554.293615,5921.647536,10732.986159,-1302.362347
554.293936,6143.709319,9622.677246,76.609550
554.294256,5847.626942,9326.594869,3064.381992
554.294577,2738.761985,7550.100608,2528.115143
554.294898,2886.803174,6661.853478,-459.657299
554.295218,3997.112087,6217.729913,-306.438199
554.295539,5107.421000,6661.853478,919.314598
554.295859,6513.812290,6883.915261,1225.752797
554.296180,6217.729913,6735.874072,306.438199
554.296500,5773.606348,7476.080014,-1608.800546
554.296821,6217.729913,7254.018232,-1915.238745
554.297142,5625.565159,7179.997637,-1455.581446
554.297462,7328.038826,8364.327145,-1149.143247
554.297783,7846.182985,9770.718434,-1225.752797
554.298103,6809.894666,9474.636058,-2298.286494
554.298424,6439.791695,9770.718434,-3370.820191
554.298744,6661.853478,7698.141797,-2528.115143
554.299065,6143.709319,5773.606348,-1608.800546
554.299386,5033.400406,5551.544565,76.609550
554.299706,5329.482782,8068.244768,1915.238745
554.300027,4145.153275,10510.924376,1149.143247
554.300347,2072.576638,8956.491898,383.047749
554.300668,3997.112087,6883.915261,0.000000
554.300988,4737.318029,7920.203579,1762.019645
554.301309,1924.535449,9178.553681,2068.457845
554.301630,1628.453072,9844.739029,459.657299
554.301950,2220.617826,9770.718434,-2145.067394
554.302271,3627.009116,9844.739029,-1838.629195
554.302591,3775.050304,9992.780217,1302.362347
554.302912,3478.967927,8882.471304,1685.410096
554.303232,3775.050304,9474.636058,1225.752797
554.303553,1628.453072,8290.306550,1608.800546
554.303874,3627.009116,7179.997637,229.828649
554.304194,5033.400406,6587.832884,-536.266849
554.304515,4145.153275,5033.400406,-766.095498
554.304835,6587.832884,6957.935855,-1302.362347
554.305156,6809.894666,7920.203579,-612.876398
554.305476,5551.544565,8068.244768,-919.314598
554.305797,7476.080014,8290.306550,536.266849
554.306118,6809.894666,9548.656652,536.266849
554.306438,5699.585753,9992.780217,-766.095498
554.306759,5699.585753,8734.430116,-2068.457845
554.307079,5403.503377,6957.935855,-2757.943793
554.307400,5329.482782,5995.668130,-1685.410096
554.307720,5403.503377,5847.626942,459.657299
554.308041,5255.462188,8586.388927,689.485948
554.308362,4367.215058,10732.986159,-76.609550
554.308682,3330.926739,9992.780217,-612.876398
554.309003,3404.947333,6587.832884,536.266849
554.309323,4293.194464,4959.379811,2834.553343
554.309644,4515.256246,6883.915261,4749.792088
554.309964,3849.070898,9030.512492,2987.772442
554.310285,2294.638420,8438.347739,-1608.800546
554.310606,3701.029710,8734.430116,-3140.991542
554.310926,4663.297435,7402.059420,-1762.019645
554.311247,5699.585753,6809.894666,459.657299
554.311567,6587.832884,7550.100608,919.314598
554.311888,6661.853478,8142.265362,-612.876398
554.312209,6143.709319,8882.471304,-1225.752797
554.312529,6513.812290,8142.265362,0.000000
554.312850,7328.038826,7624.121203,919.314598
554.313170,8142.265362,7328.038826,1455.581446
554.313491,6735.874072,6513.812290,306.438199
554.313811,4737.318029,5107.421000,-2221.676944
554.314132,5921.647536,4737.318029,-1915.238745
554.314453,7105.977043,6513.812290,-919.314598
554.314773,5255.462188,7698.141797,-766.095498
554.315094,6809.894666,9400.615463,-2145.067394
554.315414,6143.709319,11251.130318,-1455.581446
554.315735,4515.256246,10658.965565,-306.438199
554.316055,4959.379811,8216.285956,1455.581446
554.316376,4219.173869,6957.935855,459.657299
554.316697,3330.926739,6587.832884,-995.924147
554.317017,2368.659014,7772.162391,-2298.286494
554.317338,3404.947333,8882.471304,-2374.896044
554.317658,4145.153275,9918.759623,-842.705048
554.317979,5107.421000,11177.109724,2911.162892
554.318299,5699.585753,12361.439231,2911.162892
554.318620,3478.967927,9992.780217,995.924147
554.318941,888.247130,5847.626942,-1302.362347
554.319261,3182.885551,5329.482782,76.609550
554.319582,4959.379811,7105.977043,2451.505594
554.319902,4515.256246,9548.656652,842.705048
554.320223,5033.400406,10362.883188,-1762.019645
554.320543,4441.235652,10362.883188,-3600.648841
554.320864,5181.441594,10066.800811,-1302.362347
554.321185,4145.153275,7328.038826,995.924147
554.321505,5921.647536,5847.626942,-229.828649
554.321826,6513.812290,7254.018232,-1455.581446
554.322146,4589.276840,8882.471304,-1838.629195
554.322467,4515.256246,8660.409521,-1072.533697
554.322787,6883.915261,9178.553681,229.828649
554.323108,7031.956449,10140.821405,76.609550
554.323429,5625.565159,10066.800811,-536.266849
554.323749,3701.029710,7772.162391,-1608.800546
554.324070,4219.173869,6143.709319,-1378.971896
554.324390,5551.544565,6661.853478,1455.581446
554.324711,4219.173869,5847.626942,1991.848295
554.325031,4145.153275,7105.977043,-612.876398
554.325352,4071.132681,8956.491898,-1915.238745
554.325673,4811.338623,9696.697840,-383.047749
554.325993,4663.297435,7550.100608,689.485948
554.326314,6513.812290,6735.874072,689.485948
554.326634,6439.791695,7624.121203,383.047749
554.326955,5699.585753,8808.450710,-306.438199
554.327275,4885.359217,6439.791695,0.000000
554.327596,5995.668130,5107.421000,153.219100
554.327917,6587.832884,6513.812290,2298.286494
554.328237,6809.894666,9474.636058,3294.210641
554.328558,4589.276840,9474.636058,76.609550
554.328878,4737.318029,6809.894666,-3064.381992
554.329199,7105.977043,4219.173869,-2451.505594
554.329519,5699.585753,3478.967927,766.095498
554.329840,3552.988522,4663.297435,459.657299
554.330161,4441.235652,7031.956449,-995.924147
554.330481,5477.523971,10436.903782,-2374.896044
554.330802,5033.400406,10955.047942,-2681.334243
554.331122,6439.791695,10658.965565,-1685.410096
554.331443,6957.935855,10584.944971,-1302.362347
554.331763,5107.421000,11103.089130,-919.314598
554.332084,2960.823768,8290.306550,-612.876398
554.332405,5477.523971,8438.347739,-459.657299
554.332725,3330.926739,8364.327145,1149.143247
554.333046,2294.638420,9252.574275,1685.410096
554.333366,3552.988522,10214.842000,1685.410096
554.333687,2664.741391,7920.203579,766.095498
554.334007,1998.556043,6069.688724,1072.533697
554.334328,4145.153275,4663.297435,2068.457845
554.334649,3478.967927,6809.894666,1149.143247
554.334969,3404.947333,10584.944971,536.266849
554.335290,3552.988522,11547.212695,-766.095498
554.335610,5255.462188,9770.718434,-2987.772442
554.335931,6735.874072,8586.388927,-2298.286494
554.336251,6957.935855,9326.594869,919.314598
554.336572,7179.997637,11473.192101,0.000000
554.336893,5403.503377,10807.006753,-1608.800546
554.337213,6513.812290,10584.944971,-2068.457845
554.337534,6957.935855,9474.636058,-153.219100
554.337854,5329.482782,7402.059420,1149.143247
554.338175,4071.132681,5921.647536,1762.019645
554.338496,4737.318029,5921.647536,612.876398
554.338816,3182.885551,4737.318029,-306.438199
554.339137,3256.906145,3182.885551,0.000000
554.339457,4219.173869,4145.153275,-689.485948
554.339778,6143.709319,10288.862594,0.000000
554.340098,4367.215058,14211.954086,153.219100
554.340419,5107.421000,12435.459826,-1838.629195
554.340740,6587.832884,8512.368333,-2757.943793
554.341060,6513.812290,6069.688724,-459.657299
554.341381,4959.379811,6661.853478,459.657299
554.341701,5329.482782,8364.327145,-229.828649
554.342022,5995.668130,9178.553681,-995.924147
554.342342,5699.585753,8956.491898,229.828649
554.342663,5477.523971,7550.100608,1762.019645
554.342984,4959.379811,6735.874072,2221.676944
554.343304,2442.679609,4293.194464,2068.457845
554.343625,3775.050304,3552.988522,612.876398
554.343945,6143.709319,5255.462188,-306.438199
554.344266,3627.009116,5107.421000,-842.705048
554.344586,4367.215058,6735.874072,-306.438199
554.344907,7254.018232,10658.965565,1532.190996
554.345228,7105.977043,12583.501014,153.219100
554.345548,4811.338623,10436.903782,-3600.648841
554.345869,6291.750507,7550.100608,-5669.106685
554.346190,6513.812290,6587.832884,-3677.258390
554.346510,5773.606348,7328.038826,612.876398
554.346831,6439.791695,9696.697840,2221.676944
554.347151,7031.956449,10436.903782,-995.924147
554.347472,5033.400406,9400.615463,-1455.581446
554.347793,4885.359217,5551.544565,1225.752797
554.348113,5255.462188,2664.741391,3370.820191
554.348434,6883.915261,3034.844362,4596.572988
554.348754,8290.306550,5403.503377,3447.429741
554.349075,7031.956449,5403.503377,-229.828649
554.349396,8734.430116,6587.832884,-1302.362347
554.349716,10658.965565,8882.471304,459.657299
554.350037,10732.986159,9104.533087,1685.410096
554.350357,9844.739029,6439.791695,0.000000
554.350678,11843.295072,5477.523971,-2221.676944
554.350999,10140.821405,5477.523971,-2757.943793
554.351319,7328.038826,4811.338623,-919.314598
554.351640,6957.935855,4441.235652,-306.438199
554.351960,8956.491898,6143.709319,-536.266849
554.352281,7031.956449,7846.182985,-612.876398
554.352602,8438.347739,7698.141797,153.219100
554.352922,8438.347739,6143.709319,-919.314598
554.353243,8216.285956,4737.318029,995.924147
554.353564,5107.421000,3701.029710,3370.820191
554.353884,6439.791695,3182.885551,1838.629195
554.354205,7994.224174,3256.906145,76.609550
554.354525,9696.697840,6291.750507,-229.828649
554.354846,10288.862594,8290.306550,-995.924147
554.355167,10658.965565,8956.491898,-229.828649
554.355487,10436.903782,6217.729913,-229.828649
554.355808,11177.109724,4367.215058,-766.095498
554.356128,11843.295072,2368.659014,-842.705048
554.356449,11473.192101,3034.844362,-995.924147
554.356770,10066.800811,3849.070898,-536.266849
554.357090,10584.944971,4737.318029,-536.266849
554.357411,12065.356855,5403.503377,-459.657299
554.357731,12657.521608,5181.441594,766.095498
554.358052,11991.336260,4589.276840,536.266849
554.358373,10140.821405,3478.967927,0.000000
554.358693,9030.512492,3034.844362,-536.266849
554.359014,6735.874072,3182.885551,-995.924147
554.359334,7772.162391,3330.926739,-1225.752797
554.359655,11177.109724,6661.853478,76.609550
554.359976,10510.924376,10362.883188,-306.438199
554.360296,7179.997637,10362.883188,-766.095498
554.360617,7624.121203,8586.388927,-1149.143247
554.360938,7846.182985,6439.791695,-766.095498
554.361258,7105.977043,4663.297435,306.438199
554.361579,7476.080014,5255.462188,995.924147
554.361899,7550.100608,6291.750507,-842.705048
554.362220,6883.915261,6217.729913,-153.219100
554.362541,7698.141797,5847.626942,1225.752797
554.362861,9400.615463,6217.729913,1149.143247
554.363182,9770.718434,7624.121203,1455.581446
554.363502,8512.368333,6883.915261,1225.752797
554.363823,9918.759623,4219.173869,1072.533697
554.364144,11177.109724,1850.514855,1149.143247
554.364464,10510.924376,2590.720797,1072.533697
554.364785,10140.821405,4145.153275,153.219100
554.365105,10436.903782,6661.853478,-1915.238745
554.365426,11029.068536,8734.430116,-2834.553343
554.365747,10584.944971,6809.894666,-1685.410096
554.366067,11547.212695,4737.318029,-995.924147
554.366388,11473.192101,4589.276840,-383.047749
554.366708,8290.306550,5181.441594,-536.266849
554.367029,6883.915261,4293.194464,-1455.581446
554.367350,8142.265362,4515.256246,-1838.629195
554.367670,8660.409521,5551.544565,-306.438199
554.367991,8290.306550,7105.977043,1302.362347
554.368312,7105.977043,7105.977043,459.657299
554.368632,6439.791695,6513.812290,-919.314598
554.368953,6513.812290,5995.668130,-229.828649
554.369273,6809.894666,5995.668130,842.705048
554.369594,6143.709319,6217.729913,995.924147
554.369915,6069.688724,7179.997637,1532.190996
554.370235,5773.606348,7105.977043,919.314598
554.370556,7698.141797,5847.626942,612.876398
554.370876,8956.491898,5329.482782,306.438199
554.371197,8734.430116,5773.606348,76.609550
554.371518,8216.285956,6069.688724,0.000000
554.371838,10066.800811,4441.235652,76.609550
554.372159,11843.295072,3034.844362,229.828649
554.372479,12731.542202,2812.782580,1149.143247
554.372800,12953.603985,5551.544565,306.438199
554.373121,12287.418637,6587.832884,-1149.143247
554.373441,12065.356855,4737.318029,-1915.238745
554.373762,14878.139434,2960.823768,-536.266849
554.374082,15470.304188,1702.473667,536.266849
554.374403,13841.851115,2960.823768,-766.095498
554.374724,10955.047942,5403.503377,-1608.800546
554.375044,9992.780217,5921.647536,-2374.896044
554.375365,11843.295072,4071.132681,-689.485948
554.375685,12361.439231,2294.638420,1455.581446
554.376006,10066.800811,2516.700203,0.000000
554.376327,7698.141797,4959.379811,-2451.505594
554.376647,6143.709319,7105.977043,-2834.553343
554.376968,6883.915261,7994.224174,-1302.362347
554.377289,8734.430116,6809.894666,995.924147
554.377609,7846.182985,6883.915261,2068.457845
554.377930,6439.791695,8586.388927,919.314598
554.378250,3552.988522,9548.656652,153.219100
554.378571,3627.009116,7772.162391,-383.047749
554.378892,5477.523971,5255.462188,306.438199
554.379212,7105.977043,4367.215058,2145.067394
554.379533,7328.038826,5329.482782,2145.067394
554.379853,6957.935855,5773.606348,229.828649
554.380174,7624.121203,6069.688724,-1685.410096
554.380495,9474.636058,6291.750507,-1072.533697
554.380815,11325.150913,6143.709319,1225.752797
554.381136,12139.377449,6217.729913,1608.800546
554.381456,12361.439231,6365.771101,536.266849
554.381777,10658.965565,5477.523971,-995.924147
554.382098,10288.862594,3404.947333,-2451.505594
554.382418,11547.212695,2886.803174,-2834.553343
554.382739,11917.315666,4737.318029,-1991.848295
554.383059,11917.315666,6957.935855,-995.924147
554.383380,11695.253884,7994.224174,-919.314598
554.383701,11769.274478,6809.894666,-229.828649
554.384021,9474.636058,4589.276840,1225.752797
554.384342,8216.285956,2516.700203,689.485948
554.384663,8142.265362,1998.556043,-306.438199
554.384983,8734.430116,4367.215058,-919.314598
554.385304,9400.615463,7624.121203,0.000000
554.385624,9030.512492,9178.553681,306.438199
554.385945,8216.285956,9030.512492,76.609550
554.386266,7179.997637,7624.121203,919.314598
554.386586,6439.791695,5255.462188,1838.629195
554.386907,6513.812290,2812.782580,1991.848295
554.387227,7920.203579,1776.494261,1608.800546
554.387548,8364.327145,2072.576638,229.828649
554.387869,9252.574275,3552.988522,0.000000
554.388189,10955.047942,7105.977043,76.609550
554.388510,11325.150913,7846.182985,-153.219100
554.388830,11991.336260,5847.626942,-919.314598
554.389151,13323.706956,3256.906145,-459.657299
554.389472,11843.295072,2294.638420,689.485948
554.389792,10658.965565,1776.494261,689.485948
554.390113,11251.130318,2664.741391,-689.485948
554.390433,11843.295072,4293.194464,-2298.286494
554.390754,11917.315666,5921.647536,-2604.724693
554.391075,11547.212695,7105.977043,-1915.238745
554.391395,10436.903782,6513.812290,-842.705048
554.391716,9030.512492,5255.462188,0.000000
554.392037,8142.265362,4515.256246,1762.019645
554.392357,7846.182985,3997.112087,76.609550
554.392678,6809.894666,4219.173869,-459.657299
554.392998,6439.791695,5403.503377,-459.657299
554.393319,7254.018232,6439.791695,-383.047749
554.393640,8142.265362,7031.956449,0.000000
554.393960,8364.327145,7994.224174,153.219100
554.394281,7846.182985,7994.224174,229.828649
554.394601,7698.141797,7328.038826,766.095498
554.394922,7550.100608,6069.688724,1608.800546
554.395243,7402.059420,5107.421000,1532.190996
554.395563,8808.450710,5107.421000,842.705048
554.395884,9400.615463,6513.812290,-306.438199
554.396204,9622.677246,6661.853478,-1072.533697
554.396525,9844.739029,5921.647536,-995.924147
554.396846,10510.924376,4515.256246,-229.828649
554.397166,9992.780217,4145.153275,612.876398
554.397487,9770.718434,5181.441594,536.266849
554.397807,9030.512492,6069.688724,-153.219100
554.398128,9770.718434,6365.771101,-766.095498
554.398449,10881.027347,5847.626942,-459.657299
554.398769,10658.965565,5477.523971,-612.876398
554.399090,9844.739029,5551.544565,-1149.143247
554.399411,9474.636058,6661.853478,-1378.971896
554.399731,9326.594869,6809.894666,-1072.533697
554.400052,9326.594869,5847.626942,-536.266849
554.400372,9622.677246,4589.276840,0.000000
554.400693,9474.636058,4219.173869,-153.219100
554.401014,8290.306550,3997.112087,0.000000
554.401334,8290.306550,3701.029710,0.000000
554.401655,9548.656652,3552.988522,0.000000
554.401975,10214.842000,4367.215058,153.219100
554.402296,10362.883188,5773.606348,-153.219100
554.402617,9992.780217,7105.977043,-995.924147
554.402937,9770.718434,7772.162391,-919.314598
554.403258,10214.842000,7476.080014,-612.876398
554.403578,9992.780217,5995.668130,-153.219100
554.403899,9622.677246,4885.359217,689.485948
554.404220,8808.450710,4145.153275,995.924147
554.404540,8068.244768,3849.070898,1302.362347
554.404861,8512.368333,3849.070898,1378.971896
554.405181,9178.553681,3627.009116,1072.533697
554.405502,9696.697840,3552.988522,1072.533697
554.405823,9548.656652,4219.173869,76.609550
554.406143,9548.656652,3923.091493,-766.095498
554.406464,10140.821405,4441.235652,-1225.752797
554.406785,10658.965565,4959.379811,-1532.190996
554.407105,11029.068536,6143.709319,-1685.410096
554.407426,11547.212695,7698.141797,-1608.800546
554.407746,10955.047942,7994.224174,-1455.581446
554.408067,10658.965565,7105.977043,-229.828649
554.408388,10214.842000,6217.729913,536.266849
554.408708,9548.656652,4811.338623,919.314598
554.409029,8660.409521,3923.091493,1149.143247
554.409349,8438.347739,3404.947333,1302.362347
554.409670,8512.368333,2738.761985,1149.143247
554.409991,9030.512492,3034.844362,766.095498
554.410311,9104.533087,4515.256246,229.828649
554.410632,9178.553681,6957.935855,0.000000
554.410952,9326.594869,8808.450710,229.828649
554.411273,9104.533087,9696.697840,919.314598
554.411594,8438.347739,9178.553681,1532.190996
554.411914,6809.894666,8216.285956,1455.581446
554.412235,5403.503377,7328.038826,919.314598
554.412555,3775.050304,6735.874072,76.609550
554.412876,4071.132681,5699.585753,0.000000
554.413197,4589.276840,5773.606348,-153.219100
554.413517,4885.359217,6661.853478,459.657299
554.413838,4589.276840,7920.203579,1532.190996
554.414159,4959.379811,9622.677246,1838.629195
554.414479,5773.606348,10732.986159,2374.896044
554.414800,6883.915261,10955.047942,2528.115143
554.415120,6661.853478,9696.697840,3064.381992
554.415441,6291.750507,8586.388927,2528.115143
554.415762,5625.565159,8364.327145,2528.115143
554.416082,5551.544565,8438.347739,2604.724693
554.416403,6069.688724,9326.594869,1915.238745
554.416723,6735.874072,9252.574275,2451.505594
554.417044,6439.791695,8882.471304,3600.648841
554.417365,5921.647536,8438.347739,4596.572988
554.417685,5477.523971,7994.224174,4979.620737
554.418006,5995.668130,7698.141797,4903.011187
554.418326,6957.935855,7772.162391,4979.620737
554.418647,6735.874072,8512.368333,5209.449386
554.418968,6809.894666,9474.636058,5209.449386
554.419288,6365.771101,9844.739029,5745.716235
554.419609,6217.729913,9770.718434,6971.469032
554.419929,5625.565159,9178.553681,7354.516781
554.420250,5921.647536,8438.347739,7277.907231
554.420571,5699.585753,7179.997637,6588.421283
554.420891,4885.359217,6291.750507,6358.592633
554.421212,4885.359217,5107.421000,7048.078582
554.421533,5181.441594,5033.400406,6818.249932
554.421853,5699.585753,6143.709319,6741.640382
554.422174,5773.606348,7476.080014,5898.935335
554.422494,5699.585753,8216.285956,5975.544884
554.422815,6365.771101,7550.100608,6281.983084
554.423136,5995.668130,7179.997637,6971.469032
554.423456,5477.523971,6587.832884,7584.345430
554.423777,4515.256246,5921.647536,6665.030833
554.424097,3997.112087,5995.668130,6205.373534
554.424418,2960.823768,5921.647536,5669.106685
554.424739,3108.864956,5403.503377,5898.935335
554.425059,3182.885551,4663.297435,5975.544884
554.425380,3034.844362,5181.441594,6052.154434
554.425700,2812.782580,6365.771101,5439.278036
554.426021,2738.761985,7254.018232,5669.106685
554.426342,3034.844362,8216.285956,6205.373534
554.426662,3849.070898,8586.388927,6665.030833
554.426983,4145.153275,8808.450710,6435.202183
554.427303,3404.947333,8512.368333,6205.373534
554.427624,3034.844362,7698.141797,5362.668486
554.427945,3034.844362,6143.709319,5362.668486
554.428265,2664.741391,5107.421000,5286.058936
554.428586,2664.741391,4737.318029,4596.572988
554.428907,2886.803174,5181.441594,3600.648841
554.429227,3849.070898,6513.812290,3064.381992
554.429548,5255.462188,7698.141797,3217.601092
554.429868,5773.606348,9030.512492,3294.210641
554.430189,6217.729913,10436.903782,3217.601092
554.430510,6957.935855,11695.253884,3064.381992
554.430830,6957.935855,11325.150913,3294.210641
554.431151,6809.894666,10362.883188,4443.353888
554.431471,6513.812290,9844.739029,5592.497135
554.431792,5699.585753,10436.903782,5439.278036
554.432113,5255.462188,10362.883188,5209.449386
554.432433,4367.215058,8808.450710,4366.744339
554.432754,3034.844362,5699.585753,3677.258390
554.433074,2886.803174,2812.782580,2681.334243
554.433395,4293.194464,2368.659014,2528.115143
554.433716,5033.400406,5403.503377,1991.848295
554.434036,6365.771101,9770.718434,0.000000
554.434357,8142.265362,14211.954086,-1378.971896
554.434677,10362.883188,16950.716072,-995.924147
554.434998,10288.862594,17468.860231,2068.457845
554.435319,9104.533087,15322.262999,4290.134789
554.435639,7254.018232,11473.192101,5822.325785
554.435960,5107.421000,7772.162391,7048.078582
554.436281,5107.421000,6661.853478,7124.688131
554.436601,2294.638420,5921.647536,5898.935335
554.436922,962.267725,5847.626942,4673.182538
554.437242,1776.494261,5625.565159,3753.867940
554.437563,3034.844362,5403.503377,3370.820191
554.437884,3552.988522,4811.338623,2911.162892
554.438204,5477.523971,7105.977043,3907.087040
554.438525,6291.750507,10732.986159,3217.601092
554.438845,5773.606348,13249.686362,2757.943793
554.439166,7031.956449,14508.036463,1532.190996
554.439487,9474.636058,15322.262999,1838.629195
554.439807,8586.388927,13915.871710,3294.210641
554.440128,5477.523971,8808.450710,4519.963438
554.440448,5329.482782,5255.462188,5592.497135
554.440769,2220.617826,3552.988522,6741.640382
554.441090,1480.411884,4293.194464,6052.154434
554.441410,2812.782580,5403.503377,4136.915689
554.441731,4589.276840,5847.626942,3217.601092
554.442051,4071.132681,6513.812290,6435.202183
554.442372,5551.544565,7105.977043,9729.412825
554.442693,7031.956449,8586.388927,9499.584175
554.443013,5699.585753,11843.295072,7354.516781
554.443334,2664.741391,11991.336260,5592.497135
554.443655,3627.009116,10362.883188,4519.963438
554.443975,5477.523971,8142.265362,5439.278036
554.444296,4293.194464,5329.482782,8503.660028
554.444616,5181.441594,6883.915261,9499.584175
554.444937,1924.535449,8142.265362,8273.831378
554.445258,814.226536,9104.533087,6205.373534
554.445578,1702.473667,6809.894666,6358.592633
554.445899,4293.194464,4441.235652,6588.421283
554.446219,3552.988522,1924.535449,7277.907231
554.446540,5625.565159,3775.050304,8044.002729
554.446861,7031.956449,8882.471304,7277.907231
554.447181,5107.421000,12213.398043,5592.497135
554.447502,4145.153275,11103.089130,4443.353888
554.447822,5329.482782,7846.182985,5209.449386
554.448143,3775.050304,5847.626942,7048.078582
554.448464,2146.597232,3330.926739,9346.365076
554.448784,4145.153275,4441.235652,9346.365076
554.449105,2738.761985,7994.224174,7201.297681
554.449425,1184.329507,11621.233289,4136.915689
554.449746,3627.009116,12139.377449,2987.772442
554.450067,6365.771101,10362.883188,3753.867940
554.450387,3404.947333,6661.853478,5898.935335
554.450708,3775.050304,3701.029710,7660.954980
554.451028,5921.647536,3478.967927,8350.440928
554.451349,4071.132681,5477.523971,7967.393179
554.451670,1406.391290,5329.482782,4979.620737
554.451990,3997.112087,5551.544565,2528.115143
554.452311,6513.812290,8290.306550,3983.696590
554.452632,4145.153275,10288.862594,7124.688131
554.452952,6883.915261,12139.377449,7737.564530
554.453273,8734.430116,11843.295072,3294.210641
554.453593,5921.647536,9400.615463,-536.266849
554.453914,3701.029710,4885.359217,0.000000
554.454235,5847.626942,3849.070898,2681.334243
554.454555,7772.162391,7179.997637,5745.716235
554.454876,4589.276840,10288.862594,4903.011187
554.455196,4737.318029,11621.233289,2221.676944
554.455517,7254.018232,11473.192101,3217.601092
554.455838,6513.812290,11103.089130,5592.497135
554.456158,4441.235652,9178.553681,5822.325785
554.456479,3997.112087,7550.100608,3600.648841
554.456799,3034.844362,7624.121203,3217.601092
554.457120,3256.906145,7994.224174,5132.839837
554.457441,4885.359217,8660.409521,5822.325785
554.457761,6291.750507,10881.027347,3983.696590
554.458082,4737.318029,12361.439231,2604.724693
554.458402,3849.070898,11769.274478,3600.648841
554.458723,6661.853478,10362.883188,4903.011187
554.459044,7031.956449,8956.491898,6128.763984
554.459364,5403.503377,8882.471304,5286.058936
554.459685,4737.318029,9548.656652,3217.601092
554.460006,5699.585753,9992.780217,2987.772442
554.460326,6143.709319,9622.677246,4060.306139
554.460647,7105.977043,7994.224174,4519.963438
554.460967,7254.018232,6883.915261,3600.648841
554.461288,5773.606348,8142.265362,4903.011187
554.461609,4515.256246,8290.306550,4443.353888
554.461929,4589.276840,5773.606348,3600.648841
554.462250,6365.771101,4737.318029,3140.991542
554.462570,7328.038826,6217.729913,5362.668486
554.462891,6365.771101,10140.821405,6205.373534
554.463212,4219.173869,11473.192101,4903.011187
554.463532,4071.132681,10881.027347,3370.820191
554.463853,5255.462188,8660.409521,4060.306139
554.464173,5551.544565,7105.977043,5745.716235
554.464494,5329.482782,7624.121203,7354.516781
554.464815,2886.803174,8438.347739,6665.030833
554.465135,0.000000,6217.729913,4443.353888
554.465456,2368.659014,4293.194464,3677.258390
554.465776,4515.256246,5107.421000,5515.887586
554.466097,4145.153275,7550.100608,7124.688131
554.466418,3701.029710,8956.491898,5439.278036
554.466738,3108.864956,8956.491898,3524.039291
554.467059,3404.947333,7402.059420,4519.963438
554.467380,4959.379811,5181.441594,7431.126331
554.467700,6883.915261,8068.244768,7737.564530
554.468021,5921.647536,12435.459826,5669.106685
554.468341,2664.741391,12139.377449,4366.744339
554.468662,4811.338623,7994.224174,5209.449386
554.468983,6069.688724,4219.173869,8810.098227
554.469303,4959.379811,2960.823768,10725.336972
554.469624,3775.050304,4367.215058,7124.688131
554.469944,2072.576638,5995.668130,2451.505594
554.470265,2886.803174,5329.482782,1838.629195
554.470586,7105.977043,5403.503377,4826.401637
554.470906,9918.759623,7105.977043,6052.154434
554.471227,6661.853478,9400.615463,5056.230287
554.471547,4145.153275,10955.047942,3447.429741
554.471868,5921.647536,10584.944971,2451.505594
554.472189,6513.812290,9252.574275,4596.572988
554.472509,6143.709319,7550.100608,5822.325785
554.472830,6143.709319,7920.203579,6281.983084
554.473150,5255.462188,10955.047942,5669.106685
554.473471,2664.741391,10066.800811,4596.572988
554.473792,2886.803174,7846.182985,3294.210641
554.474112,3997.112087,5329.482782,4136.915689
554.474433,2220.617826,4367.215058,7354.516781
554.474754,3775.050304,7105.977043,8427.050478
554.475074,4071.132681,9548.656652,4596.572988
554.475395,3404.947333,10584.944971,2374.896044
554.475715,4737.318029,9326.594869,3064.381992
554.476036,6661.853478,9400.615463,5592.497135
554.476357,4663.297435,8216.285956,5515.887586
554.476677,3627.009116,7105.977043,2145.067394
554.476998,4441.235652,6365.771101,-1455.581446
554.477318,5921.647536,5477.523971,-1455.581446
554.477639,6291.750507,7031.956449,919.314598
554.477960,7698.141797,9400.615463,1685.410096
554.478280,6513.812290,9844.739029,76.609550
554.478601,7031.956449,9474.636058,919.314598
554.478921,6957.935855,7698.141797,1455.581446
554.479242,5773.606348,6143.709319,3140.991542
554.479563,4441.235652,3997.112087,3140.991542
554.479883,5625.565159,4515.256246,-383.047749
554.480204,5033.400406,6365.771101,-2374.896044
554.480524,4293.194464,7846.182985,-1685.410096
554.480845,5329.482782,7920.203579,-1838.629195
554.481166,6957.935855,7994.224174,-995.924147
554.481486,5329.482782,9252.574275,536.266849
554.481807,5551.544565,9844.739029,153.219100
554.482127,6217.729913,9844.739029,-1072.533697
554.482448,6143.709319,9104.533087,-1149.143247
554.482769,5699.585753,9474.636058,229.828649
554.483089,7105.977043,10955.047942,2145.067394
554.483410,5255.462188,10362.883188,2374.896044
554.483731,5403.503377,9696.697840,1608.800546
554.484051,5107.421000,8364.327145,0.000000
554.484372,3701.029710,5255.462188,-536.266849
554.484692,2368.659014,3108.864956,1762.019645
554.485013,4737.318029,4367.215058,2987.772442
554.485334,5403.503377,7254.018232,-536.266849
554.485654,4293.194464,8956.491898,-3217.601092
554.485975,5329.482782,9918.759623,-4366.744339
554.486295,8290.306550,11917.315666,-2451.505594
554.486616,8586.388927,14434.015869,383.047749
554.486937,7476.080014,13323.706956,-2221.676944
554.487257,6365.771101,10288.862594,-5056.230287
554.487578,5625.565159,8290.306550,-2221.676944
554.487898,6069.688724,9622.677246,3064.381992
554.488219,4885.359217,9326.594869,2987.772442
554.488540,3997.112087,8882.471304,0.000000
554.488860,2590.720797,8512.368333,-229.828649
554.489181,3182.885551,7772.162391,1608.800546
554.489501,1998.556043,4071.132681,1378.971896
554.489822,2960.823768,2664.741391,1149.143247
554.490143,4071.132681,5773.606348,0.000000
554.490463,4219.173869,10658.965565,-1378.971896
554.490784,3404.947333,11399.171507,-1225.752797
554.491105,6365.771101,10881.027347,-459.657299
554.491425,7698.141797,10658.965565,1302.362347
554.491746,6217.729913,10362.883188,1915.238745
554.492066,4663.297435,10807.006753,306.438199
554.492387,5033.400406,10362.883188,-383.047749
554.492708,4589.276840,7476.080014,842.705048
554.493028,6069.688724,4293.194464,1915.238745
554.493349,4441.235652,2664.741391,1149.143247
554.493669,3701.029710,3923.091493,1838.629195
554.493990,4219.173869,4441.235652,2068.457845
554.494311,4589.276840,3627.009116,459.657299
554.494631,6365.771101,3330.926739,0.000000
554.494952,7624.121203,6291.750507,612.876398
554.495272,7402.059420,9474.636058,612.876398
554.495593,5403.503377,9326.594869,-1225.752797
554.495914,7476.080014,9178.553681,-3524.039291
554.496234,7920.203579,8586.388927,-3370.820191
554.496555,5921.647536,8068.244768,-689.485948
554.496875,4885.359217,7402.059420,919.314598
554.497196,3923.091493,8142.265362,-229.828649
554.497517,2220.617826,7476.080014,-1915.238745
554.497837,1924.535449,4663.297435,-1225.752797
554.498158,3997.112087,3330.926739,995.924147
554.498479,4663.297435,6217.729913,2681.334243
554.498799,3034.844362,8438.347739,1838.629195
554.499120,2368.659014,7402.059420,-1532.190996
554.499440,4663.297435,7402.059420,-1378.971896
554.499761,5625.565159,9696.697840,1455.581446
554.500082,5255.462188,10584.944971,1072.533697
554.500402,4441.235652,10140.821405,-2221.676944
554.500723,5255.462188,10362.883188,-3753.867940
554.501043,4367.215058,9696.697840,-1608.800546
554.501364,5329.482782,8364.327145,0.000000
554.501685,5551.544565,7179.997637,-919.314598
554.502005,4293.194464,8734.430116,-1532.190996
554.502326,3997.112087,9696.697840,-1455.581446
554.502646,4663.297435,7402.059420,-842.705048
554.502967,6439.791695,4663.297435,-306.438199
554.503288,8142.265362,5329.482782,-383.047749
554.503608,6809.894666,8586.388927,-2451.505594
554.503929,4663.297435,10436.903782,-3677.258390
554.504249,6439.791695,9770.718434,-2834.553343
554.504570,6883.915261,6513.812290,-2451.505594
554.504891,8068.244768,6735.874072,-3907.087040
554.505211,7624.121203,9844.739029,-4060.306139
554.505532,4441.235652,11843.295072,-3600.648841
554.505852,3404.947333,10288.862594,-4366.744339
554.506173,6365.771101,9252.574275,-2604.724693
554.506494,6143.709319,8734.430116,-1762.019645
554.506814,4959.379811,9104.533087,-842.705048
554.507135,3849.070898,9992.780217,-383.047749
554.507456,3182.885551,9178.553681,-2221.676944
554.507776,4219.173869,7698.141797,-1838.629195
554.508097,5403.503377,6661.853478,919.314598
554.508417,4219.173869,8216.285956,2374.896044
554.508738,4145.153275,10807.006753,3370.820191
554.509059,3997.112087,11547.212695,76.609550
554.509379,2442.679609,8068.244768,-3907.087040
554.509700,4071.132681,6069.688724,-2374.896044
554.510020,6291.750507,7476.080014,766.095498
554.510341,6957.935855,11029.068536,612.876398
554.510662,3552.988522,10436.903782,-1915.238745
554.510982,5107.421000,8068.244768,-5439.278036
554.511303,6735.874072,5699.585753,-3524.039291
554.511623,6809.894666,5625.565159,1225.752797
554.511944,6809.894666,8290.306550,2451.505594
554.512265,8956.491898,11843.295072,-306.438199
554.512585,5995.668130,11325.150913,-1838.629195
554.512906,5995.668130,8438.347739,-536.266849
554.513226,6587.832884,6291.750507,2298.286494
554.513547,6365.771101,6513.812290,3524.039291
554.513868,3552.988522,6957.935855,1762.019645
554.514188,4071.132681,6217.729913,-2374.896044
554.514509,2960.823768,5107.421000,-3217.601092
554.514830,2886.803174,4737.318029,1532.190996
554.515150,3849.070898,6143.709319,4443.353888
554.515471,4145.153275,9696.697840,2451.505594
554.515791,2368.659014,12139.377449,-536.266849
554.516112,2220.617826,10362.883188,-612.876398
554.516433,5181.441594,7402.059420,76.609550
554.516753,5255.462188,4441.235652,3677.258390
554.517074,3404.947333,5403.503377,4136.915689
554.517394,1554.432478,6217.729913,-612.876398
554.517715,3108.864956,7994.224174,-4060.306139
554.518036,3849.070898,8364.327145,-2145.067394
554.518356,5255.462188,6143.709319,1378.971896
554.518677,5107.421000,5107.421000,1149.143247
554.518997,4885.359217,6365.771101,0.000000
554.519318,2664.741391,5921.647536,-1532.190996
554.519639,3923.091493,4737.318029,-3983.696590
554.519959,6661.853478,5921.647536,-4136.915689
554.520280,6217.729913,8882.471304,-689.485948
554.520600,6513.812290,10288.862594,612.876398
554.520921,7328.038826,10807.006753,-306.438199
554.521242,5329.482782,10510.924376,-2374.896044
554.521562,4441.235652,9696.697840,0.000000
554.521883,4515.256246,7920.203579,2145.067394
554.522204,2072.576638,6365.771101,1685.410096
554.522524,3034.844362,6957.935855,-229.828649
554.522845,3997.112087,8364.327145,-2834.553343
554.523165,3256.906145,7105.977043,-4443.353888
554.523486,3404.947333,5847.626942,-919.314598
554.523807,6883.915261,8734.430116,1915.238745
554.524127,5477.523971,10288.862594,-536.266849
554.524448,4071.132681,9178.553681,-3217.601092
554.524768,6217.729913,10732.986159,-2451.505594
554.525089,10584.944971,14359.995275,1072.533697
554.525410,8142.265362,14211.954086,2757.943793
554.525730,5699.585753,9696.697840,-1302.362347
554.526051,6143.709319,8438.347739,-4979.620737
554.526371,5403.503377,9474.636058,-919.314598
554.526692,4293.194464,9178.553681,3447.429741
554.527013,6143.709319,7772.162391,3294.210641
554.527333,7031.956449,9696.697840,995.924147
554.527654,3404.947333,9622.677246,383.047749
554.527974,3775.050304,7920.203579,1302.362347
554.528295,4441.235652,6883.915261,919.314598
554.528616,5625.565159,6513.812290,-306.438199
554.528936,4589.276840,5773.606348,-1762.019645
554.529257,6069.688724,7402.059420,-3677.258390
554.529578,5551.544565,9844.739029,-2528.115143
554.529898,7031.956449,12361.439231,689.485948
554.530219,8364.327145,13471.748144,76.609550
554.530539,5551.544565,9252.574275,-1532.190996
554.530860,2960.823768,6513.812290,-1455.581446
554.531181,6365.771101,5255.462188,1225.752797
554.531501,5403.503377,5773.606348,2145.067394
554.531822,3478.967927,5625.565159,0.000000
554.532142,3108.864956,6069.688724,-2221.676944
554.532463,3182.885551,4441.235652,-1149.143247
554.532784,3775.050304,3775.050304,2145.067394
554.533104,3997.112087,3182.885551,2145.067394
554.533425,2886.803174,3997.112087,-1915.238745
554.533745,1776.494261,7105.977043,-3140.991542
554.534066,3849.070898,9844.739029,-1608.800546
554.534387,4145.153275,9400.615463,76.609550
554.534707,7105.977043,9474.636058,153.219100
554.535028,6735.874072,12065.356855,-1455.581446
554.535348,2812.782580,11843.295072,-2298.286494
554.535669,2146.597232,9178.553681,-842.705048
554.535990,5181.441594,6069.688724,842.705048
554.536310,3849.070898,4441.235652,2374.896044
554.536631,2590.720797,4071.132681,3447.429741
554.536951,2442.679609,5921.647536,1225.752797
554.537272,2146.597232,7476.080014,-1608.800546
554.537593,3108.864956,7920.203579,-1455.581446
554.537913,6809.894666,7105.977043,-306.438199
554.538234,8660.409521,8586.388927,-306.438199
554.538555,6735.874072,10732.986159,1072.533697
554.538875,5329.482782,12139.377449,-383.047749
554.539196,6217.729913,10140.821405,-2298.286494
554.539516,7920.203579,9622.677246,-536.266849
554.539837,6365.771101,11399.171507,2298.286494
554.540158,7179.997637,12361.439231,2451.505594
554.540478,7476.080014,11769.274478,306.438199
554.540799,4071.132681,7772.162391,76.609550
554.541119,4071.132681,5403.503377,1378.971896
554.541440,5403.503377,3775.050304,2987.772442
554.541761,3256.906145,5329.482782,2298.286494
554.542081,3775.050304,7031.956449,919.314598
554.542402,6069.688724,10732.986159,-612.876398
554.542722,5995.668130,10362.883188,-536.266849
554.543043,5477.523971,9030.512492,229.828649
554.543364,6957.935855,9474.636058,612.876398
554.543684,6809.894666,11547.212695,-383.047749
554.544005,3849.070898,11769.274478,-842.705048
554.544325,3923.091493,10214.842000,0.000000
554.544646,4885.359217,8438.347739,1149.143247
554.544967,4885.359217,7402.059420,2911.162892
554.545287,2886.803174,5995.668130,1455.581446
554.545608,2220.617826,4145.153275,-383.047749
554.545929,2812.782580,4737.318029,0.000000
554.546249,4589.276840,5255.462188,2221.676944
554.546570,3552.988522,4071.132681,1838.629195
554.546890,6513.812290,5181.441594,383.047749
554.547211,6883.915261,10510.924376,-1072.533697
554.547531,3923.091493,10584.944971,-1915.238745
554.547852,5625.565159,7624.121203,-1915.238745
554.548173,8364.327145,7105.977043,-459.657299
554.548493,5699.585753,8660.409521,1608.800546
554.548814,4737.318029,8956.491898,383.047749
554.549134,4515.256246,9178.553681,-3294.210641
554.549455,2368.659014,8364.327145,-2451.505594
554.549776,3256.906145,5921.647536,1762.019645
554.550096,5403.503377,4071.132681,1225.752797
554.550417,3997.112087,4515.256246,153.219100
554.550737,1998.556043,7105.977043,766.095498
554.551058,4145.153275,7920.203579,1149.143247
554.551378,5181.441594,8734.430116,76.609550
554.551699,5773.606348,9104.533087,2374.896044
554.552020,6217.729913,10732.986159,3064.381992
554.552340,6587.832884,9474.636058,1455.581446
554.552661,3627.009116,7846.182985,-919.314598
554.552981,2960.823768,6809.894666,-1762.019645
554.553302,5403.503377,6957.935855,-2145.067394
554.553623,5699.585753,8364.327145,0.000000
554.553943,5477.523971,10436.903782,919.314598
554.554264,4959.379811,11769.274478,-612.876398
554.554584,4737.318029,10140.821405,-689.485948
554.554905,4441.235652,7031.956449,459.657299
554.555226,5921.647536,5995.668130,1532.190996
554.555546,6143.709319,6587.832884,919.314598
554.555867,4811.338623,7994.224174,-1149.143247
554.556187,5699.585753,9622.677246,-2604.724693
554.556508,7031.956449,11029.068536,-536.266849
554.556828,4145.153275,9696.697840,1915.238745
554.557149,6069.688724,7402.059420,1762.019645
554.557470,6661.853478,7105.977043,0.000000
554.557790,4515.256246,6291.750507,-153.219100
554.558111,4293.194464,6587.832884,-1072.533697
554.558431,5181.441594,6587.832884,-2374.896044
554.558752,4219.173869,6957.935855,-2604.724693
554.559073,6365.771101,8290.306550,0.000000
554.559393,7994.224174,9844.739029,-229.828649
554.559714,6735.874072,10362.883188,-2451.505594
554.560034,5403.503377,9474.636058,-2451.505594
554.560355,5921.647536,6883.915261,-995.924147
554.560675,6439.791695,6291.750507,1455.581446
554.560996,5773.606348,7920.203579,4136.915689
554.561317,5033.400406,8438.347739,842.705048
554.561637,3034.844362,8068.244768,-1608.800546
554.561958,3256.906145,5773.606348,-153.219100
554.562278,3701.029710,5033.400406,689.485948
554.562599,5921.647536,4885.359217,-689.485948
554.562920,5181.441594,8216.285956,-3370.820191
554.563240,2960.823768,9622.677246,-3600.648841
554.563561,4737.318029,10214.842000,-306.438199
554.563881,7402.059420,10658.965565,3140.991542
554.564202,7328.038826,12509.480420,1762.019645
554.564522,4737.318029,11695.253884,76.609550
554.564843,3775.050304,10807.006753,-1302.362347
554.565164,2812.782580,7031.956449,0.000000
554.565484,4367.215058,4737.318029,3370.820191
554.565805,5255.462188,5181.441594,3753.867940
554.566125,3627.009116,6957.935855,306.438199
554.566446,1628.453072,9770.718434,-1302.362347
554.566767,3701.029710,9400.615463,-153.219100
554.567087,5847.626942,7328.038826,919.314598
554.567408,7624.121203,7402.059420,2528.115143
554.567728,5255.462188,7994.224174,1302.362347
554.568049,3627.009116,9474.636058,-383.047749
554.568369,4885.359217,11695.253884,-1302.362347
554.568690,5551.544565,10510.924376,-76.609550
554.569011,6069.688724,9474.636058,1149.143247
554.569331,5847.626942,7550.100608,2757.943793
554.569652,4737.318029,7105.977043,2145.067394
554.569972,3478.967927,4959.379811,1378.971896
554.570293,4145.153275,5255.462188,0.000000
554.570614,1258.350101,2146.597232,-1149.143247
554.570934,3478.967927,3775.050304,-153.219100
554.571255,7698.141797,7624.121203,3064.381992
554.571575,7772.162391,10066.800811,766.095498
554.571896,6587.832884,9696.697840,-2911.162892
554.572217,7476.080014,10584.944971,-3370.820191
554.572537,6439.791695,9104.533087,-1149.143247
554.572858,6143.709319,6957.935855,1991.848295
554.573178,7328.038826,6957.935855,1762.019645
554.573499,5255.462188,6513.812290,-995.924147
554.573819,2220.617826,7254.018232,-1455.581446
554.574140,2368.659014,4959.379811,536.266849
554.574461,4885.359217,5255.462188,689.485948
554.574781,5625.565159,5255.462188,0.000000
554.575102,5329.482782,7179.997637,-2145.067394
554.575422,2220.617826,5551.544565,-2068.457845
554.575743,3923.091493,6439.791695,229.828649
554.576064,6217.729913,9030.512492,2298.286494
554.576384,6439.791695,11103.089130,153.219100
554.576705,4219.173869,10288.862594,-2834.553343
554.577025,4959.379811,9992.780217,-4596.572988
554.577346,4589.276840,9104.533087,-2374.896044
554.577666,4959.379811,8438.347739,919.314598
554.577987,4959.379811,8660.409521,-689.485948
554.578308,4293.194464,8882.471304,-3753.867940
554.578628,3552.988522,11029.068536,-4366.744339
554.578949,4071.132681,9178.553681,-2221.676944
554.579269,6069.688724,7698.141797,306.438199
554.579590,7994.224174,8142.265362,4826.401637
554.579911,6957.935855,11325.150913,4673.182538
554.580231,4663.297435,10510.924376,-229.828649
554.580552,3849.070898,9252.574275,-3830.477490
554.580872,4885.359217,7772.162391,-689.485948
554.581193,7402.059420,9030.512492,2987.772442
554.581513,6661.853478,9622.677246,3140.991542
554.581834,5181.441594,10066.800811,-1455.581446
554.582155,4441.235652,9326.594869,-3447.429741
554.582475,5107.421000,8216.285956,-1072.533697
554.582796,3404.947333,6809.894666,1991.848295
554.583116,6291.750507,7179.997637,919.314598
554.583437,5847.626942,8882.471304,-2604.724693
554.583758,5699.585753,9548.656652,-4673.182538
554.584078,6069.688724,8660.409521,-1991.848295
554.584399,7550.100608,7624.121203,1225.752797
554.584719,6661.853478,8142.265362,1608.800546
554.585040,4515.256246,7105.977043,-842.705048
554.585361,3627.009116,8438.347739,-3677.258390
554.585681,5033.400406,7920.203579,0.000000
554.586002,4885.359217,5403.503377,3140.991542
554.586322,6365.771101,3775.050304,1378.971896
554.586643,4737.318029,6735.874072,-2451.505594
554.586963,3182.885551,8290.306550,-3217.601092
554.587284,3108.864956,6809.894666,-2221.676944
554.587605,4885.359217,5699.585753,153.219100
554.587925,5477.523971,5995.668130,1838.629195
554.588246,4293.194464,7328.038826,689.485948
554.588566,4885.359217,9252.574275,-2145.067394
554.588887,4737.318029,10732.986159,-2451.505594
554.589208,4071.132681,9474.636058,-766.095498
554.589528,4811.338623,7624.121203,76.609550
554.589849,4811.338623,5477.523971,2145.067394
554.590169,2664.741391,5551.544565,3217.601092
554.590490,4145.153275,6587.832884,2145.067394
554.590810,2664.741391,6143.709319,-3370.820191
554.591131,1998.556043,3923.091493,-5132.839837
554.591452,6735.874072,6439.791695,-1455.581446
554.591772,9104.533087,9696.697840,2451.505594
554.592093,6439.791695,11547.212695,76.609550
554.592413,5107.421000,11029.068536,-4060.306139
554.592734,6735.874072,10807.006753,-4673.182538
554.593055,6809.894666,10362.883188,766.095498
554.593375,8364.327145,11103.089130,5056.230287
554.593696,6069.688724,9696.697840,2298.286494
554.594016,4293.194464,8364.327145,-1838.629195
554.594337,3256.906145,6661.853478,0.000000
554.594657,2590.720797,5995.668130,1991.848295
554.594978,1850.514855,4737.318029,1915.238745
554.595299,4885.359217,5033.400406,0.000000
554.595619,5477.523971,7624.121203,-1608.800546
554.595940,4737.318029,9992.780217,0.000000
554.596260,4811.338623,12139.377449,1149.143247
554.596581,6365.771101,12213.398043,229.828649
554.596902,5477.523971,11917.315666,-1838.629195
554.597222,5625.565159,10436.903782,-2298.286494
554.597543,6439.791695,9474.636058,-1762.019645
554.597863,5625.565159,8512.368333,766.095498
554.598184,3997.112087,7476.080014,1762.019645
554.598505,3997.112087,6217.729913,0.000000
554.598825,3330.926739,6217.729913,-1838.629195
554.599146,3923.091493,7698.141797,-1991.848295
554.599466,4885.359217,6217.729913,-1608.800546
554.599787,6661.853478,4885.359217,-689.485948
554.600107,7402.059420,7550.100608,3064.381992
554.600428,5477.523971,10732.986159,3294.210641
554.600749,5551.544565,10140.821405,-612.876398
554.601069,4663.297435,7105.977043,-3140.991542
554.601390,3997.112087,4219.173869,-2681.334243
554.601710,5773.606348,5921.647536,0.000000
554.602031,7105.977043,9844.739029,1378.971896
554.602352,4811.338623,11547.212695,-1608.800546
554.602672,3108.864956,9918.759623,-4060.306139
554.602993,3552.988522,6957.935855,-3294.210641
554.603313,2812.782580,3775.050304,383.047749
554.603634,4737.318029,4367.215058,2604.724693
554.603954,5995.668130,8364.327145,1762.019645
554.604275,4737.318029,10066.800811,-995.924147
554.604596,3701.029710,8216.285956,-1149.143247
554.604916,8290.306550,7994.224174,1455.581446
554.605237,7550.100608,8660.409521,2604.724693
554.605557,2960.823768,9178.553681,612.876398
554.605878,3478.967927,9252.574275,-3370.820191
554.606199,5181.441594,9252.574275,-3064.381992
554.606519,5033.400406,7994.224174,1455.581446
554.606840,5625.565159,5551.544565,3140.991542
554.607160,4959.379811,7328.038826,-383.047749
554.607481,1776.494261,9918.759623,-2528.115143
554.607801,2294.638420,10436.903782,-2451.505594
554.608122,5847.626942,6513.812290,-995.924147
554.608443,7994.224174,5255.462188,2145.067394
554.608763,7698.141797,7920.203579,3983.696590
554.609084,5773.606348,10066.800811,689.485948
554.609404,2146.597232,8734.430116,-3600.648841
554.609725,3108.864956,7920.203579,-2221.676944
554.610046,6587.832884,7402.059420,1532.190996
554.610366,7624.121203,7698.141797,1378.971896
554.610687,3404.947333,8142.265362,-2068.457845
554.611007,3404.947333,9400.615463,-4673.182538
554.611328,3849.070898,7179.997637,-4366.744339
554.611649,6069.688724,5551.544565,-1225.752797
554.611969,5329.482782,7920.203579,536.266849
554.612290,4737.318029,11177.109724,536.266849
554.612610,3330.926739,10214.842000,-229.828649
554.612931,4589.276840,7328.038826,-1991.848295
554.613251,5847.626942,6143.709319,-1685.410096
554.613572,6217.729913,6143.709319,306.438199
554.613893,6143.709319,9104.533087,689.485948
554.614213,3552.988522,10288.862594,-612.876398
554.614534,3478.967927,10362.883188,-383.047749
554.614854,7105.977043,9104.533087,76.609550
554.615175,7105.977043,8956.491898,689.485948
554.615496,3775.050304,8808.450710,2298.286494
554.615816,4663.297435,8956.491898,-306.438199
554.616137,5477.523971,8734.430116,-3447.429741
554.616457,3849.070898,6587.832884,-2911.162892
554.616778,3997.112087,5995.668130,612.876398
554.617098,8216.285956,9474.636058,2681.334243
554.617419,5477.523971,12361.439231,1378.971896
554.617740,4663.297435,12065.356855,-919.314598
554.618060,6291.750507,9548.656652,-1302.362347
554.618381,7179.997637,7105.977043,2451.505594
554.618701,5773.606348,8882.471304,6205.373534
554.619022,5921.647536,10066.800811,3830.477490
554.619343,4589.276840,9474.636058,-995.924147
554.619663,4071.132681,8512.368333,-229.828649
554.619984,5403.503377,7402.059420,2374.896044
554.620304,4737.318029,5477.523971,3600.648841
554.620625,3849.070898,5181.441594,2298.286494
554.620945,2960.823768,5255.462188,-766.095498
554.621266,3182.885551,6883.915261,-2528.115143
554.621587,3108.864956,6587.832884,-536.266849
554.621907,6587.832884,8068.244768,383.047749
554.622228,7402.059420,10881.027347,612.876398
554.622548,5477.523971,10214.842000,-995.924147
554.622869,3478.967927,6809.894666,-2911.162892
554.623190,7624.121203,6069.688724,-689.485948
554.623510,5329.482782,6513.812290,2987.772442
554.623831,3108.864956,6069.688724,1838.629195
554.624151,3330.926739,7105.977043,-2145.067394
554.624472,2886.803174,8068.244768,-689.485948
554.624793,1628.453072,4811.338623,842.705048
554.625113,4145.153275,1184.329507,919.314598
554.625434,2812.782580,2220.617826,-1149.143247
554.625754,1184.329507,4885.359217,-1149.143247
554.626075,4367.215058,8808.450710,-1838.629195
554.626395,4589.276840,9548.656652,-3140.991542
554.626716,4663.297435,9992.780217,-2604.724693
554.627037,7031.956449,12731.542202,-995.924147
554.627357,7550.100608,14508.036463,612.876398
554.627678,5107.421000,11695.253884,2145.067394
554.627998,6587.832884,9030.512492,995.924147
554.628319,5107.421000,6513.812290,-1762.019645
554.628640,1998.556043,3775.050304,153.219100
554.628960,3182.885551,4589.276840,2604.724693
554.629281,6735.874072,6957.935855,1685.410096
554.629601,5403.503377,7846.182985,-612.876398
554.629922,4959.379811,6217.729913,-2911.162892
554.630242,6365.771101,6291.750507,-3064.381992
554.630563,7402.059420,9474.636058,1608.800546
554.630884,7476.080014,12583.501014,2451.505594
554.631204,8068.244768,12435.459826,-3600.648841
554.631525,7994.224174,11843.295072,-6128.763984
554.631845,7550.100608,11325.150913,-1762.019645
554.632166,8808.450710,11843.295072,2987.772442
554.632487,7031.956449,11473.192101,3064.381992
554.632807,3478.967927,10732.986159,-536.266849
554.633128,2886.803174,8586.388927,-2681.334243
554.633448,2516.700203,5403.503377,0.000000
554.633769,962.267725,2368.659014,3600.648841
554.634089,3701.029710,4737.318029,3677.258390
554.634410,6143.709319,10066.800811,76.609550
554.634731,740.205942,11103.089130,-4596.572988
554.635051,740.205942,9030.512492,-4519.963438
554.635372,9030.512492,10362.883188,0.000000
554.635692,7920.203579,11843.295072,3524.039291
554.636013,4515.256246,10732.986159,1378.971896
554.636334,5847.626942,11991.336260,-3370.820191
554.636654,4589.276840,11547.212695,-2374.896044
554.636975,3404.947333,7550.100608,1991.848295
554.637295,7254.018232,4737.318029,3983.696590
554.637616,5403.503377,4293.194464,1302.362347
554.637936,370.102971,4589.276840,-536.266849
554.638257,3108.864956,3997.112087,-1149.143247
554.638578,5033.400406,1332.370696,-536.266849
554.638898,6143.709319,2146.597232,3064.381992
554.639219,7179.997637,7550.100608,3140.991542
554.639539,6217.729913,10584.944971,-3370.820191
554.639860,3330.926739,9178.553681,-5898.935335
554.640181,8364.327145,9104.533087,-2451.505594
554.640501,9178.553681,8660.409521,-306.438199
554.640822,5699.585753,6883.915261,1762.019645
554.641142,4145.153275,9474.636058,1608.800546
554.641463,3775.050304,10658.965565,-1532.190996
554.641784,1628.453072,8438.347739,-1532.190996
554.642104,3330.926739,4959.379811,1378.971896
554.642425,4885.359217,3775.050304,1838.629195
554.642745,1480.411884,3849.070898,2451.505594
554.643066,2220.617826,6143.709319,2604.724693
554.643386,4367.215058,7179.997637,612.876398
554.643707,5477.523971,9030.512492,1378.971896
554.644028,4811.338623,9622.677246,3600.648841
554.644348,6217.729913,10881.027347,1762.019645
554.644669,5625.565159,11399.171507,-536.266849
554.644989,4589.276840,9918.759623,0.000000
554.645310,4885.359217,6661.853478,0.000000
554.645631,5847.626942,5921.647536,153.219100
554.645951,3923.091493,7920.203579,76.609550
554.646272,3997.112087,9622.677246,-1838.629195
554.646592,4959.379811,9696.697840,-3370.820191
554.646913,4441.235652,6883.915261,-1838.629195
554.647233,6587.832884,5329.482782,689.485948
554.647554,8956.491898,7031.956449,3140.991542
554.647875,5551.544565,8808.450710,1838.629195
554.648195,3552.988522,7105.977043,-2068.457845
554.648516,7105.977043,7698.141797,-3524.039291
554.648836,6735.874072,7846.182985,-76.609550
554.649157,6809.894666,8142.265362,2451.505594
554.649478,8142.265362,9918.759623,689.485948
554.649798,5107.421000,9918.759623,-2987.772442
554.650119,1110.308913,7105.977043,-4290.134789
554.650439,4441.235652,4737.318029,-3524.039291
554.650760,5033.400406,4737.318029,-2451.505594
554.651080,4293.194464,7476.080014,-689.485948
554.651401,4293.194464,12731.542202,-2374.896044
554.651722,4293.194464,12361.439231,-2987.772442
554.652042,5033.400406,10066.800811,229.828649
554.652363,7994.224174,9696.697840,3600.648841
554.652683,5107.421000,9992.780217,2298.286494
554.653004,592.164754,8956.491898,689.485948
554.653324,2738.761985,8586.388927,0.000000
554.653645,4737.318029,7179.997637,1762.019645
554.653966,4663.297435,6661.853478,2681.334243
554.654286,4663.297435,7402.059420,0.000000
554.654607,2590.720797,7031.956449,-3140.991542
554.654927,2368.659014,6365.771101,-2451.505594
554.655248,7698.141797,7328.038826,-153.219100
554.655569,9696.697840,9326.594869,0.000000
554.655889,9030.512492,12139.377449,-383.047749
554.656210,8068.244768,13915.871710,-842.705048
554.656530,7476.080014,12287.418637,-1685.410096
554.656851,7550.100608,9326.594869,-306.438199
554.657171,8364.327145,6291.750507,1991.848295
554.657492,6365.771101,5107.421000,1378.971896
554.657813,3849.070898,6291.750507,1072.533697
554.658133,4293.194464,7624.121203,919.314598
554.658454,4589.276840,6809.894666,459.657299
554.658774,3552.988522,3997.112087,766.095498
554.659095,3404.947333,3034.844362,2451.505594
554.659415,4367.215058,5847.626942,1838.629195
554.659736,3034.844362,7772.162391,153.219100
554.660057,3330.926739,7179.997637,-2374.896044
554.660377,4811.338623,8142.265362,-3600.648841
554.660698,7105.977043,12287.418637,-306.438199
554.661018,3701.029710,13397.727550,2681.334243
554.661339,4367.215058,11917.315666,919.314598
554.661660,4589.276840,10732.986159,-842.705048
554.661980,1628.453072,6735.874072,0.000000
554.662301,148.041188,2738.761985,1225.752797
554.662621,3108.864956,2738.761985,1915.238745
554.662942,1628.453072,3923.091493,1225.752797
554.663262,1628.453072,4071.132681,153.219100
554.663583,4293.194464,5699.585753,-1608.800546
554.663904,4589.276840,5773.606348,-1915.238745
554.664224,5625.565159,6735.874072,-306.438199
554.664545,9918.759623,9178.553681,-1149.143247
554.664865,7994.224174,10584.944971,-5209.449386
554.665186,4737.318029,9770.718434,-4213.525239
554.665507,8734.430116,10510.924376,-1149.143247
554.665827,7846.182985,9696.697840,1149.143247
554.666148,5847.626942,9548.656652,995.924147
554.666468,4663.297435,9474.636058,-919.314598
554.666789,5033.400406,8660.409521,-2757.943793
554.667109,3182.885551,6365.771101,459.657299
554.667430,4515.256246,4441.235652,2604.724693
554.667751,4367.215058,4367.215058,919.314598
554.668071,3849.070898,5921.647536,229.828649
554.668392,3552.988522,9474.636058,842.705048
554.668712,5181.441594,10807.006753,153.219100
554.669033,6069.688724,10066.800811,-995.924147
554.669353,7105.977043,9696.697840,-1991.848295
554.669674,6883.915261,10658.965565,-2451.505594
554.669995,5699.585753,10658.965565,-766.095498
554.670315,6439.791695,12361.439231,-1608.800546
554.670636,5699.585753,10510.924376,-2987.772442
554.670956,6513.812290,10140.821405,-2374.896044
554.671277,7105.977043,10658.965565,459.657299
554.671598,4589.276840,8364.327145,536.266849
554.671918,2590.720797,3775.050304,-306.438199
554.672239,4737.318029,2294.638420,-995.924147
554.672559,4367.215058,4515.256246,-1225.752797
554.672880,4441.235652,6957.935855,0.000000
554.673200,5773.606348,9696.697840,-842.705048
554.673521,7402.059420,10881.027347,-3600.648841
554.673842,5625.565159,11473.192101,-3983.696590
554.674162,5625.565159,9770.718434,-1225.752797
554.674483,5847.626942,8882.471304,-383.047749
554.674803,4811.338623,9326.594869,0.000000
554.675124,3108.864956,10066.800811,-2145.067394
554.675445,3034.844362,7550.100608,-4366.744339
554.675765,3552.988522,7254.018232,-3447.429741
554.676086,4515.256246,8734.430116,306.438199
554.676406,5033.400406,8734.430116,2757.943793
554.676727,3034.844362,6587.832884,0.000000
554.677047,2368.659014,4589.276840,-229.828649
554.677368,2516.700203,4589.276840,2834.553343
554.677689,5625.565159,6513.812290,4290.134789
554.678009,4515.256246,9326.594869,1455.581446
554.678330,4589.276840,10214.842000,-2604.724693
554.678650,5551.544565,10362.883188,-4366.744339
554.678971,7624.121203,9918.759623,-76.609550
554.679291,6365.771101,9252.574275,1991.848295
554.679612,6291.750507,8364.327145,2145.067394
554.679933,6217.729913,9918.759623,-153.219100
554.680253,3478.967927,9770.718434,-536.266849
554.680574,4145.153275,8142.265362,383.047749
554.680894,6957.935855,5329.482782,2451.505594
554.681215,7624.121203,5995.668130,2145.067394
554.681536,4441.235652,5699.585753,1072.533697
554.681856,3849.070898,6439.791695,-383.047749
554.682177,4515.256246,6513.812290,76.609550
554.682497,6883.915261,7402.059420,3677.258390
554.682818,5921.647536,7698.141797,4673.182538
554.683138,6587.832884,9918.759623,1608.800546
554.683459,4663.297435,11843.295072,-766.095498
554.683780,4367.215058,11251.130318,-842.705048
554.684100,4441.235652,7550.100608,383.047749
554.684421,4515.256246,4589.276840,2298.286494
554.684741,3552.988522,5995.668130,2374.896044
554.685062,1258.350101,7105.977043,612.876398
554.685383,740.205942,6217.729913,-1915.238745
554.685703,3923.091493,5329.482782,-1991.848295
554.686024,5699.585753,6291.750507,-306.438199
554.686344,5033.400406,7772.162391,995.924147
554.686665,4885.359217,8956.491898,536.266849
554.686985,4219.173869,7328.038826,-1455.581446
554.687306,6883.915261,6883.915261,-842.705048
554.687627,7179.997637,7105.977043,1302.362347
554.687947,7328.038826,7328.038826,76.609550
554.688268,6661.853478,8438.347739,-1838.629195
554.688588,4959.379811,8216.285956,-2298.286494
554.688909,3034.844362,5699.585753,-1762.019645
554.689229,5921.647536,4885.359217,-536.266849
554.689550,4441.235652,5477.523971,-536.266849
554.689871,2960.823768,6809.894666,-1762.019645
554.690191,4441.235652,10066.800811,-3294.210641
554.690512,5773.606348,10510.924376,-2374.896044
554.690832,4885.359217,9252.574275,-306.438199
554.691153,7179.997637,9918.759623,1532.190996
554.691474,5847.626942,11843.295072,306.438199
554.691794,2886.803174,11177.109724,-689.485948
554.692115,5181.441594,11547.212695,842.705048
554.692435,7105.977043,10955.047942,1685.410096
554.692756,3775.050304,8216.285956,2068.457845
554.693076,2294.638420,6513.812290,1149.143247
554.693397,3182.885551,6587.832884,-2298.286494
554.693718,2738.761985,5921.647536,-2145.067394
554.694038,5625.565159,7254.018232,-612.876398
554.694359,8438.347739,10807.006753,-1838.629195
554.694679,6957.935855,11991.336260,-766.095498
554.695000,6365.771101,12583.501014,842.705048
554.695320,8586.388927,10584.944971,919.314598
554.695641,6883.915261,8438.347739,-612.876398
554.695962,5847.626942,6291.750507,-1302.362347
554.696282,6143.709319,7328.038826,-1685.410096
554.696603,5477.523971,8290.306550,-919.314598
554.696923,5699.585753,9992.780217,612.876398
554.697244,6587.832884,9696.697840,0.000000
554.697565,4367.215058,7476.080014,-1072.533697
