#time,accel_x,accel_y,accel_z
202.586691,5255.462188,8216.285956,-306.438199
202.587012,4959.379811,7994.224174,-229.828649
202.587333,4885.359217,7994.224174,0.000000
202.587654,4885.359217,7994.224174,0.000000
202.587974,5033.400406,7698.141797,-229.828649
202.588295,5181.441594,7920.203579,-306.438199
202.588616,5107.421000,7920.203579,76.609550
202.588936,5033.400406,7920.203579,-153.219100
202.589257,5107.421000,8142.265362,-229.828649
202.589578,4737.318029,8142.265362,-229.828649
202.589899,4811.338623,7994.224174,76.609550
202.590219,5107.421000,8142.265362,0.000000
202.590540,4737.318029,8068.244768,-306.438199
202.590861,4811.338623,7772.162391,-229.828649
202.591181,5181.441594,7846.182985,-306.438199
202.591502,4811.338623,8216.285956,76.609550
202.591823,4885.359217,8216.285956,-229.828649
202.592144,5033.400406,7698.141797,76.609550
202.592464,4959.379811,7994.224174,0.000000
202.592785,4959.379811,7994.224174,-229.828649
202.593106,5477.523971,8290.306550,0.000000
202.593426,5033.400406,8068.244768,0.000000
202.593747,5033.400406,8290.306550,-229.828649
202.594068,5033.400406,7920.203579,-306.438199
202.594389,5033.400406,8364.327145,0.000000
202.594709,5403.503377,8216.285956,0.000000
202.595030,4959.379811,8290.306550,0.000000
202.595351,4959.379811,7994.224174,-153.219100
202.595671,4811.338623,7994.224174,-306.438199
202.595992,5033.400406,7920.203579,-306.438199
202.596313,5403.503377,8142.265362,0.000000
202.596634,5033.400406,8068.244768,0.000000
202.596954,5255.462188,8290.306550,-306.438199
202.597275,4959.379811,8216.285956,-229.828649
202.597596,4515.256246,8290.306550,-536.266849
202.597917,4145.153275,7698.141797,0.000000
202.598237,4441.235652,7402.059420,-306.438199
202.598558,4515.256246,8956.491898,-306.438199
202.598879,4663.297435,9770.718434,-919.314598
202.599199,4737.318029,9992.780217,-1149.143247
202.599520,4885.359217,9696.697840,-1149.143247
202.599841,4145.153275,9104.533087,-459.657299
202.600162,3256.906145,8660.409521,383.047749
202.600482,3108.864956,8882.471304,842.705048
202.600803,2886.803174,9178.553681,842.705048
202.601124,2664.741391,9104.533087,766.095498
202.601444,2664.741391,8364.327145,-459.657299
202.601765,3256.906145,8438.347739,-459.657299
202.602086,3182.885551,9400.615463,0.000000
202.602407,2664.741391,9400.615463,536.266849
202.602727,2516.700203,8660.409521,995.924147
202.603048,2368.659014,8956.491898,-383.047749
202.603369,2294.638420,9770.718434,-306.438199
202.603689,1776.494261,11251.130318,-1072.533697
202.604010,1850.514855,12065.356855,-842.705048
202.604331,1554.432478,11917.315666,-995.924147
202.604652,1036.288319,11103.089130,-1302.362347
202.604972,0.000000,11029.068536,-1915.238745
202.605293,-518.144159,11325.150913,-1455.581446
202.605614,-1554.432478,12657.521608,0.000000
202.605934,-1332.370696,12435.459826,842.705048
202.606255,-1850.514855,12065.356855,995.924147
202.606576,-962.267725,11843.295072,1378.971896
202.606897,-1332.370696,12435.459826,1838.629195
202.607217,-2294.638420,12435.459826,1455.581446
202.607538,-2590.720797,11103.089130,383.047749
202.607859,-1998.556043,10214.842000,-459.657299
202.608179,-1036.288319,9844.739029,0.000000
202.608500,-740.205942,9622.677246,689.485948
202.608821,-148.041188,10066.800811,536.266849
202.609142,370.102971,11029.068536,0.000000
202.609462,1036.288319,11547.212695,-1532.190996
202.609783,1924.535449,10658.965565,-1608.800546
202.610104,2590.720797,10584.944971,-536.266849
202.610424,3330.926739,11177.109724,842.705048
202.610745,3182.885551,10658.965565,-459.657299
202.611066,2368.659014,9622.677246,-2298.286494
202.611387,1702.473667,9474.636058,-2451.505594
202.611707,2072.576638,9844.739029,-1072.533697
202.612028,1998.556043,9992.780217,-153.219100
202.612349,1554.432478,9992.780217,0.000000
202.612670,740.205942,10881.027347,-689.485948
202.612990,370.102971,11325.150913,0.000000
202.613311,-222.061783,11103.089130,766.095498
202.613632,-740.205942,10510.924376,842.705048
202.613952,-74.020594,9696.697840,995.924147
202.614273,-148.041188,9696.697840,842.705048
202.614594,-592.164754,10362.883188,689.485948
202.614915,-666.185348,10881.027347,919.314598
202.615235,296.082377,11547.212695,1455.581446
202.615556,1036.288319,11843.295072,1072.533697
202.615877,1480.411884,11177.109724,76.609550
202.616197,1258.350101,10807.006753,-612.876398
202.616518,1406.391290,10140.821405,-995.924147
202.616839,1998.556043,9696.697840,-1225.752797
202.617160,1702.473667,9030.512492,-689.485948
202.617480,1702.473667,8142.265362,0.000000
202.617801,2294.638420,8586.388927,0.000000
202.618122,2738.761985,10066.800811,0.000000
202.618442,3034.844362,11029.068536,-459.657299
202.618763,3775.050304,11103.089130,-842.705048
202.619084,4071.132681,10288.862594,-995.924147
202.619405,3552.988522,9400.615463,-842.705048
202.619725,3108.864956,9252.574275,-306.438199
202.620046,2442.679609,9770.718434,-766.095498
202.620367,1628.453072,10658.965565,-383.047749
202.620687,1332.370696,11029.068536,-689.485948
202.621008,1036.288319,11473.192101,-306.438199
202.621329,666.185348,11399.171507,-1378.971896
202.621650,-370.102971,10732.986159,-1915.238745
202.621970,-1110.308913,9474.636058,-1225.752797
202.622291,-1702.473667,8660.409521,-153.219100
202.622612,-1776.494261,9400.615463,1685.410096
202.622932,-888.247130,10955.047942,2298.286494
202.623253,-370.102971,13471.748144,1072.533697
202.623574,592.164754,14211.954086,842.705048
202.623895,370.102971,13767.830521,612.876398
202.624215,1110.308913,12657.521608,-306.438199
202.624536,1110.308913,10807.006753,0.000000
202.624857,592.164754,9992.780217,-229.828649
202.625177,-444.123565,9474.636058,-842.705048
202.625498,-1332.370696,9178.553681,-1378.971896
202.625819,-1776.494261,9030.512492,-1915.238745
202.626140,-1184.329507,9918.759623,-1378.971896
202.626460,-296.082377,11843.295072,-612.876398
202.626781,0.000000,13471.748144,0.000000
202.627102,888.247130,14063.912898,-995.924147
202.627423,592.164754,13619.789333,-842.705048
202.627743,518.144159,13249.686362,-612.876398
202.628064,1554.432478,12583.501014,-229.828649
202.628385,1332.370696,10436.903782,0.000000
202.628705,1628.453072,8586.388927,-919.314598
202.629026,1998.556043,8734.430116,-766.095498
202.629347,740.205942,9770.718434,306.438199
202.629668,-222.061783,10658.965565,1378.971896
202.629988,0.000000,10214.842000,1685.410096
202.630309,-74.020594,8882.471304,919.314598
202.630630,0.000000,8364.327145,383.047749
202.630950,370.102971,9400.615463,612.876398
202.631271,1406.391290,11547.212695,0.000000
202.631592,74.020594,13249.686362,-995.924147
202.631913,1406.391290,13841.851115,-1608.800546
202.632233,1702.473667,12731.542202,-1838.629195
202.632554,962.267725,12065.356855,-1302.362347
202.632875,0.000000,11843.295072,76.609550
202.633195,666.185348,11547.212695,842.705048
202.633516,148.041188,10658.965565,766.095498
202.633837,518.144159,9696.697840,1532.190996
202.634158,0.000000,8956.491898,1149.143247
202.634478,-1628.453072,8142.265362,919.314598
202.634799,-1480.411884,8364.327145,1225.752797
202.635120,-1036.288319,8956.491898,689.485948
202.635440,444.123565,9474.636058,0.000000
202.635761,3108.864956,11473.192101,0.000000
202.636082,3404.947333,12583.501014,-1532.190996
202.636403,1776.494261,12435.459826,-2068.457845
202.636723,1406.391290,10955.047942,-2068.457845
202.637044,1776.494261,8068.244768,-1302.362347
202.637365,2812.782580,6735.874072,459.657299
202.637685,3997.112087,8586.388927,2298.286494
202.638006,888.247130,11473.192101,-459.657299
202.638327,0.000000,13693.809927,-4213.525239
202.638648,1258.350101,13471.748144,-3370.820191
202.638968,1184.329507,10510.924376,-2604.724693
202.639289,-296.082377,6883.915261,-459.657299
202.639610,-370.102971,6587.832884,766.095498
202.639930,-518.144159,10881.027347,766.095498
202.640251,-2220.617826,15544.324782,306.438199
202.640572,-2442.679609,15914.427753,153.219100
202.640893,-666.185348,14730.098246,-1149.143247
202.641213,0.000000,13101.645173,383.047749
202.641534,-740.205942,11769.274478,2911.162892
202.641855,-1850.514855,10510.924376,2145.067394
202.642176,-2294.638420,9622.677246,459.657299
202.642496,-1258.350101,9992.780217,229.828649
202.642817,-1184.329507,9104.533087,536.266849
202.643138,-666.185348,8660.409521,1149.143247
202.643458,1628.453072,9992.780217,1762.019645
202.643779,3182.885551,11399.171507,612.876398
202.644100,3775.050304,11991.336260,-383.047749
202.644421,4737.318029,11473.192101,-2451.505594
202.644741,4885.359217,10955.047942,-2757.943793
202.645062,3775.050304,10362.883188,-2451.505594
202.645383,1776.494261,9030.512492,-2451.505594
202.645703,1850.514855,7179.997637,-2604.724693
202.646024,3775.050304,9474.636058,-1378.971896
202.646345,2368.659014,12879.583391,766.095498
202.646666,592.164754,14359.995275,229.828649
202.646986,740.205942,13027.624579,-1608.800546
202.647307,-962.267725,10510.924376,-842.705048
202.647628,-2442.679609,8512.368333,1225.752797
202.647949,-2294.638420,8438.347739,1532.190996
202.648269,-1850.514855,9918.759623,536.266849
202.648590,-1406.391290,13249.686362,-612.876398
202.648911,-2442.679609,14285.974681,-306.438199
202.649232,-1850.514855,13397.727550,-383.047749
202.649553,-1480.411884,11621.233289,1608.800546
202.649873,-1110.308913,10807.006753,3217.601092
202.650194,222.061783,11547.212695,2987.772442
202.650515,-814.226536,10955.047942,1302.362347
202.650836,-222.061783,9474.636058,-766.095498
202.651156,740.205942,8438.347739,0.000000
202.651477,1702.473667,7920.203579,1225.752797
202.651798,3034.844362,7179.997637,612.876398
202.652119,4811.338623,8142.265362,-306.438199
202.652440,4737.318029,9474.636058,-1685.410096
202.652760,4515.256246,10881.027347,-2145.067394
202.653081,5033.400406,9992.780217,-1532.190996
202.653402,5847.626942,9770.718434,-612.876398
202.653723,5403.503377,9992.780217,-1838.629195
202.654044,2590.720797,7698.141797,-2834.553343
202.654364,2368.659014,7105.977043,-2604.724693
202.654685,2220.617826,9770.718434,-612.876398
202.655006,814.226536,12435.459826,0.000000
202.655327,-592.164754,12065.356855,-1915.238745
202.655647,666.185348,10584.944971,-1378.971896
202.655968,-222.061783,10066.800811,689.485948
202.656289,-2368.659014,11473.192101,2987.772442
202.656610,-2146.597232,11991.336260,2604.724693
202.656931,-4219.173869,12731.542202,612.876398
202.657251,-3701.029710,13101.645173,689.485948
202.657572,-1332.370696,12435.459826,919.314598
202.657893,-962.267725,11695.253884,0.000000
202.658214,-2368.659014,11695.253884,-153.219100
202.658534,-2664.741391,12879.583391,766.095498
202.658855,-2220.617826,13249.686362,1915.238745
202.659176,370.102971,13027.624579,1762.019645
202.659497,666.185348,11103.089130,919.314598
202.659818,1776.494261,9992.780217,-612.876398
202.660138,888.247130,9474.636058,-459.657299
202.660459,1332.370696,8512.368333,-383.047749
202.660780,3775.050304,7105.977043,-153.219100
202.661101,5921.647536,8364.327145,-689.485948
202.661422,4441.235652,9326.594869,-1838.629195
202.661742,2738.761985,10436.903782,-2681.334243
202.662063,3404.947333,10584.944971,-3447.429741
202.662384,4589.276840,10510.924376,-2451.505594
202.662705,5773.606348,11103.089130,-1455.581446
202.663025,3034.844362,10732.986159,-1838.629195
202.663346,296.082377,11621.233289,-2145.067394
202.663667,0.000000,12361.439231,-2604.724693
202.663988,-1184.329507,12139.377449,-2145.067394
202.664309,-2516.700203,11177.109724,-76.609550
202.664629,-1110.308913,11843.295072,1915.238745
202.664950,-3627.009116,14434.015869,2528.115143
202.665271,-5477.523971,14063.912898,3064.381992
202.665592,-3923.091493,13841.851115,2528.115143
202.665912,-3034.844362,12139.377449,3294.210641
202.666233,-3701.029710,10584.944971,3217.601092
202.666554,-3627.009116,9400.615463,3447.429741
202.666875,-2960.823768,10436.903782,2145.067394
202.667196,-740.205942,12583.501014,3370.820191
202.667516,148.041188,11843.295072,3524.039291
202.667837,1184.329507,9326.594869,-536.266849
202.668158,3182.885551,7402.059420,-2757.943793
202.668479,4145.153275,8142.265362,-1149.143247
202.668800,4737.318029,8660.409521,1455.581446
202.669120,6587.832884,9326.594869,0.000000
202.669441,6957.935855,8142.265362,-2604.724693
202.669762,5921.647536,6513.812290,-4136.915689
202.670083,5847.626942,6439.791695,-2681.334243
202.670403,6883.915261,8882.471304,-919.314598
202.670724,4589.276840,10140.821405,-1532.190996
202.671045,4367.215058,8734.430116,-3217.601092
202.671366,4145.153275,6291.750507,-2911.162892
202.671687,2886.803174,6291.750507,-995.924147
202.672007,1480.411884,8512.368333,229.828649
202.672328,518.144159,12065.356855,-383.047749
202.672649,-1702.473667,10807.006753,-1838.629195
202.672970,-1258.350101,10214.842000,306.438199
202.673290,962.267725,11399.171507,3600.648841
202.673611,-4071.132681,10510.924376,2221.676944
202.673932,-4737.318029,12953.603985,689.485948
202.674253,-2220.617826,14952.160028,1378.971896
202.674574,-2590.720797,14063.912898,1455.581446
202.674894,-2368.659014,9918.759623,842.705048
202.675215,1036.288319,9400.615463,-383.047749
202.675536,-2072.576638,11177.109724,536.266849
202.675857,-2590.720797,12805.562797,2451.505594
202.676178,0.000000,10436.903782,1685.410096
202.676498,1924.535449,7846.182985,-1225.752797
202.676819,3478.967927,8512.368333,0.000000
202.677140,3627.009116,10140.821405,919.314598
202.677461,3701.029710,10140.821405,-2528.115143
202.677781,6439.791695,10510.924376,-4596.572988
202.678102,7920.203579,8660.409521,-4290.134789
202.678423,7105.977043,6143.709319,-2298.286494
202.678744,8734.430116,6883.915261,689.485948
202.679065,8364.327145,9326.594869,-153.219100
202.679385,4515.256246,9696.697840,-4903.011187
202.679706,6291.750507,7920.203579,-6052.154434
202.680027,9252.574275,8512.368333,-2834.553343
202.680348,6143.709319,8660.409521,306.438199
202.680669,3108.864956,7105.977043,-383.047749
202.680989,3701.029710,7772.162391,-1991.848295
202.681310,518.144159,9104.533087,-1915.238745
202.681631,-1110.308913,10584.944971,1149.143247
202.681952,2442.679609,11843.295072,1455.581446
202.682272,3256.906145,12731.542202,229.828649
202.682593,2368.659014,14952.160028,2068.457845
202.682914,74.020594,12879.583391,4290.134789
202.683235,-2072.576638,7772.162391,919.314598
202.683556,222.061783,4737.318029,612.876398
202.683876,1480.411884,5699.585753,2987.772442
202.684197,3478.967927,8216.285956,3370.820191
202.684518,4959.379811,8660.409521,536.266849
202.684839,5625.565159,9326.594869,-689.485948
202.685159,7550.100608,6365.771101,-995.924147
202.685480,9030.512492,5033.400406,1915.238745
202.685801,8586.388927,4219.173869,1838.629195
202.686122,8216.285956,5847.626942,-2068.457845
202.686443,9548.656652,7105.977043,-3983.696590
202.686763,9548.656652,7031.956449,-3524.039291
202.687084,9918.759623,6069.688724,-2145.067394
202.687405,9400.615463,4959.379811,-1378.971896
202.687726,7476.080014,8290.306550,-3370.820191
202.688047,5773.606348,9992.780217,-4213.525239
202.688367,4441.235652,9178.553681,-3524.039291
202.688688,5107.421000,7846.182985,-689.485948
202.689009,4737.318029,8956.491898,1455.581446
202.689330,1998.556043,10584.944971,2221.676944
202.689650,0.000000,10584.944971,1378.971896
202.689971,0.000000,9918.759623,1685.410096
202.690292,0.000000,8882.471304,2374.896044
202.690613,1036.288319,6513.812290,3524.039291
202.690934,1110.308913,5477.523971,3600.648841
202.691254,2516.700203,8512.368333,4903.011187
202.691575,2812.782580,8734.430116,4366.744339
202.691896,3034.844362,5403.503377,1455.581446
202.692217,5255.462188,2960.823768,76.609550
202.692537,7920.203579,5995.668130,1149.143247
202.692858,7031.956449,8586.388927,0.000000
202.693179,9104.533087,8882.471304,-4366.744339
202.693500,12509.480420,7846.182985,-4903.011187
202.693821,10584.944971,6439.791695,-1991.848295
202.694141,10807.006753,6883.915261,-536.266849
202.694462,11695.253884,7994.224174,-1915.238745
202.694783,7105.977043,7772.162391,-4519.963438
202.695104,8808.450710,7105.977043,-2987.772442
202.695425,8882.471304,5477.523971,-306.438199
202.695745,6809.894666,3552.988522,-229.828649
202.696066,5773.606348,4885.359217,842.705048
202.696387,4367.215058,8438.347739,1378.971896
202.696708,2368.659014,9918.759623,-1762.019645
202.697028,2516.700203,8512.368333,-1838.629195
202.697349,3404.947333,8216.285956,-306.438199
202.697670,3182.885551,7846.182985,2145.067394
202.697991,2146.597232,8734.430116,4136.915689
202.698312,1554.432478,10214.842000,612.876398
202.698632,1036.288319,10881.027347,-2987.772442
202.698953,2812.782580,12065.356855,-766.095498
202.699274,3627.009116,12435.459826,1532.190996
202.699595,3552.988522,11917.315666,1455.581446
202.699915,6291.750507,11103.089130,459.657299
202.700236,1924.535449,8660.409521,-1378.971896
202.700557,2590.720797,7179.997637,-1149.143247
202.700878,4885.359217,8216.285956,2451.505594
202.701199,2368.659014,8956.491898,1225.752797
202.701519,3775.050304,9030.512492,-766.095498
202.701840,5847.626942,10807.006753,0.000000
202.702161,3404.947333,9770.718434,-612.876398
202.702482,4737.318029,9770.718434,-612.876398
202.702803,5699.585753,8586.388927,-383.047749
202.703123,4145.153275,7476.080014,-2298.286494
202.703444,4071.132681,7550.100608,-383.047749
202.703765,5403.503377,8068.244768,-1532.190996
202.704086,4293.194464,8216.285956,-4213.525239
202.704406,3849.070898,7105.977043,-612.876398
202.704727,6883.915261,8734.430116,1225.752797
202.705048,6587.832884,9474.636058,842.705048
202.705369,4885.359217,8142.265362,76.609550
202.705690,6291.750507,7994.224174,-766.095498
202.706010,5625.565159,7254.018232,-612.876398
202.706331,3923.091493,6291.750507,229.828649
202.706652,5033.400406,4885.359217,0.000000
202.706973,4515.256246,2368.659014,-1225.752797
202.707293,6291.750507,4515.256246,612.876398
202.707614,7105.977043,8438.347739,3140.991542
202.707935,5477.523971,8808.450710,1455.581446
202.708256,6661.853478,8068.244768,536.266849
202.708577,9548.656652,6735.874072,1532.190996
202.708897,8512.368333,4441.235652,1762.019645
202.709218,7550.100608,3552.988522,229.828649
202.709539,6661.853478,3478.967927,-2528.115143
202.709860,6513.812290,6957.935855,-3294.210641
202.710181,6661.853478,8142.265362,-1915.238745
202.710501,8068.244768,8660.409521,-2068.457845
202.710822,9474.636058,8512.368333,-1378.971896
202.711143,4811.338623,7031.956449,-306.438199
202.711464,3849.070898,7920.203579,842.705048
202.711784,5033.400406,8512.368333,1762.019645
202.712105,3997.112087,7402.059420,1302.362347
202.712426,4293.194464,5921.647536,536.266849
202.712747,6735.874072,6217.729913,0.000000
202.713068,3478.967927,8660.409521,-1532.190996
202.713388,3478.967927,10140.821405,-1915.238745
202.713709,5847.626942,9178.553681,-842.705048
202.714030,6439.791695,7698.141797,-612.876398
202.714351,7031.956449,8290.306550,2298.286494
202.714672,4441.235652,9030.512492,2451.505594
202.714992,1776.494261,11769.274478,-306.438199
202.715313,3478.967927,14063.912898,229.828649
202.715634,2886.803174,12879.583391,-919.314598
202.715955,2220.617826,8808.450710,-3217.601092
202.716275,2220.617826,6069.688724,-1685.410096
202.716596,740.205942,7254.018232,-76.609550
202.716917,-222.061783,10584.944971,1838.629195
202.717238,444.123565,11103.089130,2757.943793
202.717559,3775.050304,9918.759623,1915.238745
202.717879,3997.112087,9030.512492,2145.067394
202.718200,5773.606348,8734.430116,2221.676944
202.718521,3997.112087,7402.059420,-459.657299
202.718842,5847.626942,6439.791695,-2987.772442
202.719162,7328.038826,5847.626942,-3064.381992
202.719483,7846.182985,5181.441594,-2221.676944
202.719804,8882.471304,5921.647536,-1225.752797
202.720125,7772.162391,8808.450710,306.438199
202.720446,6661.853478,9770.718434,-919.314598
202.720766,6883.915261,9252.574275,-3217.601092
202.721087,8142.265362,7994.224174,-2528.115143
202.721408,7920.203579,6291.750507,-689.485948
202.721729,6735.874072,6513.812290,2068.457845
202.722050,4145.153275,8290.306550,1455.581446
202.722370,2886.803174,8512.368333,-2068.457845
202.722691,2442.679609,6661.853478,-2451.505594
202.723012,1776.494261,4737.318029,-536.266849
202.723333,3627.009116,5477.523971,2911.162892
202.723653,5699.585753,8734.430116,4443.353888
202.723974,3775.050304,11177.109724,1225.752797
202.724295,2220.617826,9622.677246,-1991.848295
202.724616,4293.194464,9178.553681,-1072.533697
202.724937,5625.565159,9252.574275,1225.752797
202.725257,2664.741391,6217.729913,1149.143247
202.725578,7105.977043,6143.709319,459.657299
202.725899,7994.224174,7920.203579,-536.266849
202.726220,5255.462188,8068.244768,-995.924147
202.726540,6735.874072,7920.203579,-995.924147
202.726861,7920.203579,6957.935855,76.609550
202.727182,6883.915261,6957.935855,1838.629195
202.727503,9030.512492,7772.162391,2757.943793
202.727824,7698.141797,5921.647536,-1378.971896
202.728144,6735.874072,3330.926739,-4979.620737
202.728465,8586.388927,5699.585753,-1685.410096
202.728786,7994.224174,8512.368333,1532.190996
202.729107,5107.421000,9104.533087,153.219100
202.729428,5551.544565,8660.409521,-2145.067394
202.729748,5551.544565,7920.203579,-2221.676944
202.730069,5625.565159,9104.533087,-459.657299
202.730390,4737.318029,9474.636058,766.095498
202.730711,4515.256246,9696.697840,-1915.238745
202.731031,3108.864956,9400.615463,-1915.238745
202.731352,2590.720797,9400.615463,1685.410096
202.731673,1110.308913,7846.182985,3370.820191
202.731994,666.185348,7105.977043,3753.867940
202.732315,2664.741391,9770.718434,1302.362347
202.732635,2220.617826,10214.842000,-1685.410096
202.732956,2220.617826,8142.265362,-2221.676944
202.733277,5477.523971,6957.935855,919.314598
202.733598,4663.297435,7550.100608,3064.381992
202.733918,4663.297435,10436.903782,2911.162892
202.734239,4367.215058,13323.706956,-612.876398
202.734560,2738.761985,11621.233289,-4443.353888
202.734881,4885.359217,8364.327145,-3447.429741
202.735202,7179.997637,7254.018232,1378.971896
202.735522,7624.121203,7179.997637,3217.601092
202.735843,4441.235652,6661.853478,1378.971896
202.736164,1924.535449,5847.626942,-2221.676944
202.736485,3997.112087,6291.750507,-2068.457845
202.736806,5551.544565,8734.430116,0.000000
202.737126,4811.338623,7624.121203,612.876398
202.737447,5921.647536,8290.306550,0.000000
202.737768,7031.956449,8142.265362,-459.657299
202.738089,4293.194464,8660.409521,-1532.190996
202.738409,5255.462188,8216.285956,-1991.848295
202.738730,5181.441594,8808.450710,-2221.676944
202.739051,4811.338623,10510.924376,-306.438199
202.739372,6661.853478,10140.821405,306.438199
202.739693,7402.059420,9178.553681,-1225.752797
202.740013,6957.935855,6217.729913,-536.266849
202.740334,4959.379811,5699.585753,536.266849
202.740655,3627.009116,7402.059420,3064.381992
202.740976,2664.741391,6439.791695,2451.505594
202.741297,4663.297435,4441.235652,1225.752797
202.741617,7179.997637,6587.832884,1532.190996
202.741938,5921.647536,9696.697840,2068.457845
202.742259,3404.947333,10362.883188,0.000000
202.742580,4811.338623,8142.265362,-1762.019645
202.742900,4737.318029,6143.709319,-919.314598
202.743221,5847.626942,7698.141797,995.924147
202.743542,6809.894666,9992.780217,1532.190996
202.743863,4367.215058,10881.027347,-1838.629195
202.744184,4219.173869,9548.656652,-2374.896044
202.744504,6513.812290,8438.347739,-459.657299
202.744825,6957.935855,5329.482782,-306.438199
202.745146,5329.482782,3330.926739,459.657299
202.745467,6217.729913,3849.070898,689.485948
202.745787,4885.359217,5625.565159,76.609550
202.746108,4737.318029,7105.977043,-459.657299
202.746429,6513.812290,7920.203579,-1608.800546
202.746750,8290.306550,8660.409521,-1608.800546
202.747070,7105.977043,10436.903782,0.000000
202.747391,6069.688724,11103.089130,-612.876398
202.747712,5329.482782,9400.615463,-2681.334243
202.748032,5551.544565,8438.347739,-1991.848295
202.748353,3404.947333,8808.450710,612.876398
202.748674,2886.803174,11029.068536,1225.752797
202.748994,1628.453072,10214.842000,-536.266849
202.749315,1406.391290,7698.141797,-995.924147
202.749636,3997.112087,6069.688724,919.314598
202.749956,2368.659014,6587.832884,2451.505594
202.750277,1406.391290,7402.059420,1915.238745
202.750598,3182.885551,7920.203579,1762.019645
202.750918,2664.741391,8438.347739,1608.800546
202.751239,5773.606348,9474.636058,1302.362347
202.751560,6217.729913,10288.862594,0.000000
202.751880,3997.112087,8660.409521,-4596.572988
202.752201,4811.338623,9252.574275,-4290.134789
202.752522,6809.894666,10510.924376,76.609550
202.752842,6291.750507,11399.171507,842.705048
202.753163,4737.318029,9474.636058,-612.876398
202.753484,3256.906145,8512.368333,-2451.505594
202.753804,3849.070898,9400.615463,-2221.676944
202.754125,3775.050304,8216.285956,-229.828649
202.754446,5255.462188,4441.235652,-76.609550
202.754766,7476.080014,5255.462188,-229.828649
202.755087,6069.688724,7772.162391,1762.019645
202.755408,4441.235652,9696.697840,1762.019645
202.755728,5329.482782,8882.471304,1149.143247
202.756049,5773.606348,7920.203579,-995.924147
202.756370,5699.585753,6513.812290,-612.876398
202.756690,6217.729913,7402.059420,-842.705048
202.757011,7105.977043,9474.636058,-919.314598
202.757332,6439.791695,9770.718434,536.266849
202.757652,4811.338623,8808.450710,-459.657299
202.757973,4663.297435,8364.327145,-1838.629195
202.758294,3701.029710,7846.182985,-536.266849
202.758614,4293.194464,6809.894666,1378.971896
202.758935,7031.956449,7994.224174,2145.067394
202.759256,6957.935855,7476.080014,1302.362347
202.759576,6883.915261,7031.956449,1225.752797
202.759897,5921.647536,6587.832884,919.314598
202.760218,3404.947333,6069.688724,536.266849
202.760538,3997.112087,7550.100608,1532.190996
202.760859,3849.070898,6809.894666,-766.095498
202.761180,5995.668130,6439.791695,-2145.067394
202.761500,9474.636058,7624.121203,306.438199
202.761821,5477.523971,9252.574275,0.000000
202.762142,2516.700203,8586.388927,-2757.943793
202.762462,3256.906145,7698.141797,-2987.772442
202.762783,3330.926739,8512.368333,-1455.581446
202.763104,6439.791695,8882.471304,459.657299
202.763424,7179.997637,9400.615463,-612.876398
202.763745,4737.318029,8216.285956,-2987.772442
202.764066,3034.844362,7254.018232,-459.657299
202.764386,2664.741391,9104.533087,2911.162892
202.764707,1702.473667,9400.615463,3370.820191
202.765028,2590.720797,9030.512492,689.485948
202.765348,3701.029710,8290.306550,-1378.971896
202.765669,4515.256246,9104.533087,-383.047749
202.765990,4737.318029,9104.533087,1838.629195
202.766310,3849.070898,8512.368333,1072.533697
202.766631,2516.700203,6513.812290,153.219100
202.766952,1184.329507,7031.956449,1915.238745
202.767272,3330.926739,8068.244768,2068.457845
202.767593,4219.173869,6513.812290,-766.095498
202.767914,4959.379811,8068.244768,-2298.286494
202.768234,6143.709319,10584.944971,-2681.334243
202.768555,5847.626942,10510.924376,-1225.752797
202.768876,6513.812290,7994.224174,689.485948
202.769196,7031.956449,6587.832884,1149.143247
202.769517,5329.482782,6439.791695,-383.047749
202.769838,4367.215058,8290.306550,-1762.019645
202.770158,6513.812290,9474.636058,-1838.629195
202.770479,7920.203579,10214.842000,-1149.143247
202.770800,9178.553681,9178.553681,842.705048
202.771120,7105.977043,6809.894666,-612.876398
202.771441,4663.297435,5329.482782,-2374.896044
202.771762,2442.679609,4663.297435,-1838.629195
202.772082,3701.029710,6587.832884,0.000000
202.772403,7328.038826,10732.986159,1455.581446
202.772724,6143.709319,11769.274478,1225.752797
202.773044,3552.988522,8586.388927,612.876398
202.773365,6069.688724,8216.285956,1685.410096
202.773686,1776.494261,9326.594869,1455.581446
202.774006,518.144159,7179.997637,-1378.971896
202.774327,6217.729913,7031.956449,-2068.457845
202.774648,6735.874072,8216.285956,-995.924147
202.774968,4737.318029,8660.409521,0.000000
202.775289,6809.894666,9474.636058,612.876398
202.775610,3552.988522,7179.997637,-2451.505594
202.775930,3256.906145,8142.265362,-1149.143247
202.776251,5773.606348,9104.533087,3140.991542
202.776572,6291.750507,8956.491898,1685.410096
202.776892,7031.956449,8512.368333,1608.800546
202.777213,4737.318029,7550.100608,1378.971896
202.777534,4515.256246,5847.626942,-1225.752797
202.777854,4885.359217,5921.647536,-1532.190996
202.778175,4663.297435,5847.626942,-3217.601092
202.778496,5551.544565,7920.203579,-4366.744339
202.778816,6957.935855,9252.574275,-306.438199
202.779137,5477.523971,10066.800811,1302.362347
202.779458,5107.421000,9178.553681,612.876398
202.779778,2960.823768,6735.874072,-229.828649
202.780099,3923.091493,5847.626942,-1532.190996
202.780420,3701.029710,6809.894666,-1915.238745
202.780740,3478.967927,8290.306550,-2221.676944
202.781061,5625.565159,8956.491898,-995.924147
202.781382,6513.812290,9474.636058,-459.657299
202.781702,6143.709319,10955.047942,766.095498
202.782023,4367.215058,11325.150913,1762.019645
202.782344,2812.782580,9178.553681,1838.629195
202.782664,3997.112087,9696.697840,2145.067394
202.782985,3256.906145,8660.409521,3294.210641
202.783306,3775.050304,7698.141797,2681.334243
202.783626,4441.235652,8068.244768,842.705048
202.783947,1184.329507,5995.668130,-1225.752797
202.784268,2368.659014,5699.585753,-995.924147
202.784588,3701.029710,6809.894666,-1302.362347
202.784909,1924.535449,6291.750507,-2604.724693
202.785230,6883.915261,8290.306550,-76.609550
202.785550,7920.203579,11251.130318,612.876398
202.785871,6143.709319,10658.965565,0.000000
202.786192,7402.059420,10658.965565,0.000000
202.786512,7920.203579,8660.409521,-1608.800546
202.786833,6809.894666,7031.956449,-2834.553343
202.787154,8216.285956,6069.688724,-1149.143247
202.787474,8142.265362,5477.523971,-1915.238745
202.787795,9104.533087,6513.812290,-2068.457845
202.788116,8364.327145,7846.182985,76.609550
202.788436,4737.318029,7105.977043,459.657299
202.788757,4441.235652,6661.853478,995.924147
202.789078,3034.844362,5181.441594,1991.848295
202.789398,4589.276840,6587.832884,1302.362347
202.789719,5773.606348,6809.894666,1455.581446
202.790040,2812.782580,7994.224174,-1532.190996
202.790360,2516.700203,8808.450710,-3294.210641
202.790681,4589.276840,9770.718434,-842.705048
202.791002,4219.173869,9696.697840,0.000000
202.791322,4145.153275,8882.471304,842.705048
202.791643,4737.318029,9178.553681,0.000000
202.791964,4219.173869,8512.368333,-1838.629195
202.792284,4811.338623,8882.471304,-766.095498
202.792605,5625.565159,8956.491898,306.438199
202.792926,4737.318029,8586.388927,-919.314598
202.793246,4145.153275,6291.750507,-2145.067394
202.793567,4515.256246,6439.791695,-3140.991542
202.793887,6069.688724,8438.347739,-1378.971896
202.794208,3997.112087,8512.368333,1072.533697
202.794529,5107.421000,8808.450710,1378.971896
202.794849,5625.565159,8734.430116,1072.533697
202.795170,6217.729913,9252.574275,1608.800546
202.795491,4293.194464,7624.121203,919.314598
202.795811,3330.926739,8290.306550,-1225.752797
202.796132,5921.647536,12361.439231,-2068.457845
202.796453,7254.018232,13471.748144,-1072.533697
202.796773,6217.729913,9622.677246,-1378.971896
202.797094,8586.388927,6587.832884,-1378.971896
202.797415,3997.112087,5181.441594,766.095498
202.797735,74.020594,5625.565159,-1225.752797
202.798056,1998.556043,6365.771101,-153.219100
202.798377,5255.462188,7698.141797,1149.143247
202.798697,6735.874072,8660.409521,766.095498
202.799018,8142.265362,11621.233289,1762.019645
202.799339,4811.338623,11251.130318,-1225.752797
202.799659,2516.700203,10658.965565,-2068.457845
202.799980,4293.194464,7846.182985,1915.238745
202.800301,4811.338623,4145.153275,689.485948
202.800621,6883.915261,2294.638420,919.314598
202.800942,6661.853478,5181.441594,1149.143247
202.801263,3552.988522,10140.821405,-689.485948
202.801583,4737.318029,13249.686362,229.828649
202.801904,5551.544565,9770.718434,-689.485948
202.802225,5921.647536,4441.235652,-842.705048
202.802545,8512.368333,1998.556043,1991.848295
202.802866,5921.647536,5403.503377,1225.752797
202.803187,1258.350101,7402.059420,-2681.334243
202.803507,2590.720797,8068.244768,-4519.963438
202.803828,6809.894666,8956.491898,-2911.162892
202.804149,8956.491898,8142.265362,1072.533697
202.804469,7698.141797,9178.553681,2834.553343
202.804790,3775.050304,11251.130318,-459.657299
202.805111,1850.514855,10214.842000,-2451.505594
202.805431,4145.153275,8290.306550,1608.800546
202.805752,5921.647536,5995.668130,2374.896044
202.806073,5403.503377,5181.441594,1915.238745
202.806393,4219.173869,7846.182985,76.609550
202.806714,1184.329507,8882.471304,-2604.724693
202.807035,888.247130,7402.059420,-2298.286494
202.807355,4885.359217,5551.544565,306.438199
202.807676,7920.203579,5255.462188,1838.629195
202.807997,5847.626942,8068.244768,1378.971896
202.808317,2960.823768,9992.780217,-383.047749
202.808638,3330.926739,11769.274478,-2451.505594
202.808959,4737.318029,9918.759623,-995.924147
202.809279,7476.080014,7846.182985,76.609550
202.809600,8660.409521,6883.915261,-383.047749
202.809921,6439.791695,7550.100608,-2374.896044
202.810241,4885.359217,9104.533087,-2374.896044
202.810562,5033.400406,10362.883188,-1072.533697
202.810883,5847.626942,9252.574275,459.657299
202.811203,6143.709319,8216.285956,1762.019645
202.811524,6587.832884,8882.471304,1532.190996
202.811845,3701.029710,6883.915261,76.609550
202.812165,2368.659014,5329.482782,-2528.115143
202.812486,3256.906145,4441.235652,-2451.505594
202.812807,4219.173869,5033.400406,-766.095498
202.813127,4663.297435,8438.347739,0.000000
202.813448,6661.853478,13027.624579,-383.047749
202.813769,4441.235652,13989.892304,-1762.019645
202.814089,4145.153275,11177.109724,-689.485948
202.814410,6143.709319,9696.697840,2374.896044
202.814731,6069.688724,8068.244768,2374.896044
202.815051,3404.947333,5551.544565,153.219100
202.815372,5403.503377,6143.709319,-1532.190996
202.815693,4441.235652,8438.347739,-2451.505594
202.816013,2960.823768,9252.574275,-1072.533697
202.816334,5181.441594,7698.141797,-229.828649
202.816655,6365.771101,6809.894666,0.000000
202.816975,5625.565159,7476.080014,2451.505594
202.817296,4145.153275,8586.388927,2834.553343
202.817617,4811.338623,8956.491898,-459.657299
202.817937,3256.906145,7476.080014,-842.705048
202.818258,4219.173869,8142.265362,0.000000
202.818579,6439.791695,7994.224174,229.828649
202.818899,6661.853478,8068.244768,-766.095498
202.819220,6439.791695,8512.368333,-2068.457845
202.819541,7031.956449,7772.162391,-1991.848295
202.819861,6587.832884,5847.626942,-995.924147
202.820182,5847.626942,4441.235652,306.438199
202.820503,5847.626942,4737.318029,995.924147
202.820823,4959.379811,7550.100608,383.047749
202.821144,3923.091493,8660.409521,-1378.971896
202.821465,5773.606348,7698.141797,-2987.772442
202.821785,7328.038826,6957.935855,-2681.334243
202.822106,6513.812290,7550.100608,153.219100
202.822427,5255.462188,9400.615463,1302.362347
202.822747,3775.050304,11177.109724,766.095498
202.823068,2738.761985,10140.821405,1072.533697
202.823389,5625.565159,9696.697840,2068.457845
202.823709,5255.462188,7624.121203,842.705048
202.824030,2960.823768,6439.791695,459.657299
202.824351,3034.844362,6883.915261,995.924147
202.824671,2812.782580,7254.018232,2374.896044
202.824992,2072.576638,6365.771101,689.485948
202.825313,4293.194464,5625.565159,229.828649
202.825633,4663.297435,8142.265362,-1838.629195
202.825954,3849.070898,9548.656652,-1915.238745
202.826275,5107.421000,9992.780217,459.657299
202.826595,7105.977043,9104.533087,229.828649
202.826916,7105.977043,8660.409521,612.876398
202.827237,5921.647536,9104.533087,2145.067394
202.827557,5403.503377,9844.739029,995.924147
202.827878,5625.565159,11251.130318,-766.095498
202.828199,6439.791695,9992.780217,-1608.800546
202.828519,6735.874072,7254.018232,-1915.238745
202.828840,5921.647536,4071.132681,689.485948
202.829161,4441.235652,3182.885551,1991.848295
202.829481,3775.050304,4071.132681,1532.190996
202.829802,2960.823768,4885.359217,-766.095498
202.830123,2590.720797,7624.121203,-2068.457845
202.830443,4293.194464,9400.615463,-1302.362347
202.830764,6217.729913,11103.089130,306.438199
202.831085,6809.894666,12435.459826,842.705048
202.831405,5255.462188,11103.089130,76.609550
202.831726,5107.421000,8956.491898,-306.438199
202.832047,3256.906145,7105.977043,-1991.848295
202.832367,4219.173869,5921.647536,-842.705048
202.832688,5329.482782,9474.636058,1149.143247
202.833009,5329.482782,12361.439231,1072.533697
202.833329,4811.338623,10510.924376,459.657299
202.833650,5551.544565,7328.038826,536.266849
202.833971,3256.906145,5181.441594,842.705048
202.834291,2220.617826,3627.009116,1762.019645
202.834612,3330.926739,4663.297435,1302.362347
202.834933,4367.215058,5847.626942,-1149.143247
202.835253,4959.379811,8660.409521,-2068.457845
202.835574,7772.162391,10288.862594,-1532.190996
202.835895,6957.935855,10214.842000,-2068.457845
202.836215,6957.935855,10584.944971,383.047749
202.836536,4589.276840,9992.780217,2068.457845
202.836857,5403.503377,7920.203579,306.438199
202.837177,8364.327145,7179.997637,-306.438199
202.837498,6587.832884,7624.121203,-1455.581446
202.837819,5551.544565,8512.368333,-4213.525239
202.838139,4589.276840,7920.203579,-3600.648841
202.838460,3330.926739,6735.874072,-1532.190996
202.838781,5773.606348,6069.688724,842.705048
202.839101,6513.812290,7105.977043,3600.648841
202.839422,3182.885551,9400.615463,1149.143247
202.839743,1332.370696,11029.068536,0.000000
202.840063,2886.803174,9770.718434,459.657299
202.840384,5551.544565,7254.018232,76.609550
202.840705,5625.565159,4737.318029,1455.581446
202.841025,5107.421000,7031.956449,1532.190996
202.841346,4219.173869,7920.203579,-1915.238745
202.841667,3923.091493,7402.059420,-2221.676944
202.841987,7328.038826,8068.244768,-1302.362347
202.842308,8216.285956,6883.915261,-766.095498
202.842629,7402.059420,8660.409521,459.657299
202.842949,7031.956449,9770.718434,0.000000
202.843270,5847.626942,10584.944971,-153.219100
202.843591,5921.647536,9918.759623,689.485948
202.843911,6957.935855,7994.224174,383.047749
202.844232,3775.050304,5847.626942,-995.924147
202.844553,1332.370696,4293.194464,-995.924147
202.844873,1406.391290,6513.812290,842.705048
202.845194,3849.070898,8364.327145,1302.362347
202.845515,2738.761985,8438.347739,-612.876398
202.845835,4145.153275,8586.388927,-1072.533697
202.846156,5847.626942,9622.677246,1302.362347
202.846477,4071.132681,9030.512492,2987.772442
202.846797,3108.864956,6365.771101,2681.334243
202.847118,5625.565159,5181.441594,383.047749
202.847439,5255.462188,6069.688724,-2681.334243
202.847759,6069.688724,9326.594869,-4366.744339
202.848080,8512.368333,12139.377449,-3983.696590
202.848401,6957.935855,12435.459826,-4366.744339
202.848721,8216.285956,13175.665768,0.000000
202.849042,5477.523971,11547.212695,3753.867940
202.849363,2368.659014,6957.935855,3217.601092
202.849683,3108.864956,3627.009116,3064.381992
202.850004,2294.638420,2812.782580,1455.581446
202.850325,592.164754,4959.379811,306.438199
202.850645,3034.844362,7031.956449,459.657299
202.850966,4959.379811,9474.636058,536.266849
202.851287,4885.359217,9844.739029,995.924147
202.851607,5107.421000,9548.656652,2451.505594
202.851928,5255.462188,9474.636058,76.609550
202.852249,4737.318029,8734.430116,-2834.553343
202.852569,5921.647536,7994.224174,-2604.724693
202.852890,8438.347739,7476.080014,-689.485948
202.853211,9844.739029,7920.203579,153.219100
202.853531,7031.956449,8808.450710,-536.266849
202.853852,5551.544565,10955.047942,-2298.286494
202.854173,2812.782580,9992.780217,-2145.067394
202.854493,4663.297435,7550.100608,0.000000
202.854814,8068.244768,2368.659014,1149.143247
202.855135,5625.565159,296.082377,1915.238745
202.855455,6735.874072,3478.967927,2374.896044
202.855776,4071.132681,7550.100608,1149.143247
202.856097,2738.761985,10066.800811,-2145.067394
202.856417,7105.977043,9844.739029,-2145.067394
202.856738,7846.182985,7476.080014,153.219100
202.857059,6957.935855,7179.997637,229.828649
202.857379,5995.668130,9548.656652,306.438199
202.857700,3256.906145,10510.924376,-2451.505594
202.858021,4515.256246,11843.295072,-3447.429741
202.858341,4885.359217,11251.130318,-689.485948
202.858662,3256.906145,7402.059420,-1149.143247
202.858983,5181.441594,6291.750507,0.000000
202.859303,3627.009116,7105.977043,3294.210641
202.859624,1702.473667,8216.285956,2681.334243
202.859945,3404.947333,6513.812290,3064.381992
202.860265,4885.359217,7254.018232,1915.238745
202.860586,4811.338623,7994.224174,1685.410096
202.860907,2886.803174,7031.956449,995.924147
202.861227,5625.565159,6143.709319,-2221.676944
202.861548,5773.606348,6809.894666,-3600.648841
202.861869,7179.997637,7920.203579,-1991.848295
202.862189,9622.677246,9104.533087,-1225.752797
202.862510,8808.450710,10140.821405,-1991.848295
202.862831,6809.894666,11029.068536,-2451.505594
202.863151,7031.956449,12213.398043,-153.219100
202.863472,5847.626942,10584.944971,-536.266849
202.863793,7254.018232,8882.471304,459.657299
202.864113,7031.956449,7328.038826,1532.190996
202.864434,4145.153275,4811.338623,-612.876398
202.864755,0.000000,2812.782580,-766.095498
202.865075,-1332.370696,3701.029710,76.609550
202.865396,2590.720797,8956.491898,1149.143247
202.865717,3775.050304,12657.521608,2298.286494
202.866037,2146.597232,13693.809927,1072.533697
202.866358,2812.782580,11843.295072,76.609550
202.866679,3701.029710,10140.821405,1072.533697
202.866999,1480.411884,7994.224174,2451.505594
202.867320,1480.411884,7328.038826,766.095498
202.867641,4737.318029,8216.285956,-1149.143247
202.867961,4441.235652,9918.759623,-2757.943793
202.868282,6883.915261,10362.883188,-995.924147
202.868603,6513.812290,8956.491898,306.438199
202.868923,4219.173869,7254.018232,459.657299
202.869244,4589.276840,6513.812290,1302.362347
202.869565,6809.894666,6883.915261,612.876398
202.869885,5033.400406,6661.853478,-919.314598
202.870206,5477.523971,6439.791695,-995.924147
202.870527,5625.565159,5995.668130,-612.876398
202.870847,6365.771101,8512.368333,76.609550
202.871168,6809.894666,7550.100608,1225.752797
202.871489,5625.565159,6661.853478,-766.095498
202.871809,6809.894666,6143.709319,-1762.019645
202.872130,6069.688724,6735.874072,-459.657299
202.872451,6069.688724,6365.771101,689.485948
202.872771,5033.400406,3997.112087,-612.876398
202.873092,6809.894666,5551.544565,-1149.143247
202.873413,9178.553681,9400.615463,-536.266849
202.873733,6069.688724,8882.471304,-612.876398
202.874054,5847.626942,7031.956449,-2451.505594
202.874375,9770.718434,7698.141797,-536.266849
202.874695,4959.379811,9770.718434,-153.219100
202.875016,4145.153275,9030.512492,-1149.143247
202.875337,5181.441594,8068.244768,-306.438199
202.875657,4145.153275,7254.018232,0.000000
202.875978,5403.503377,9696.697840,919.314598
202.876299,3478.967927,9104.533087,919.314598
202.876619,-296.082377,7031.956449,-2834.553343
202.876940,4071.132681,8660.409521,1378.971896
202.877261,3552.988522,8216.285956,5822.325785
202.877581,3182.885551,6809.894666,3370.820191
202.877902,3997.112087,7031.956449,459.657299
202.878223,2812.782580,9622.677246,-3907.087040
202.878543,3627.009116,11769.274478,-2911.162892
202.878864,7105.977043,9918.759623,0.000000
202.879185,7550.100608,6217.729913,-1302.362347
202.879505,7179.997637,5773.606348,-1991.848295
202.879826,4959.379811,8216.285956,-1532.190996
202.880146,3552.988522,11843.295072,-3064.381992
202.880467,4515.256246,10658.965565,-3064.381992
202.880788,7624.121203,9104.533087,-842.705048
202.881108,8660.409521,9474.636058,1072.533697
202.881429,5773.606348,9770.718434,919.314598
202.881750,1776.494261,10288.862594,0.000000
202.882070,1184.329507,8438.347739,-1762.019645
202.882391,3552.988522,6439.791695,-919.314598
202.882712,5255.462188,7254.018232,995.924147
202.883032,3182.885551,9104.533087,229.828649
202.883353,2220.617826,10584.944971,-459.657299
202.883674,962.267725,10066.800811,689.485948
202.883994,1998.556043,7994.224174,1149.143247
202.884315,4737.318029,6291.750507,1455.581446
202.884636,4145.153275,5107.421000,-766.095498
202.884956,2738.761985,7105.977043,-2068.457845
202.885277,5625.565159,11991.336260,-1225.752797
202.885598,5847.626942,10066.800811,-1455.581446
202.885918,6439.791695,6365.771101,-229.828649
202.886239,11695.253884,6513.812290,2528.115143
202.886560,7105.977043,8068.244768,995.924147
202.886880,3034.844362,8216.285956,-1915.238745
202.887201,7328.038826,7105.977043,-1532.190996
202.887522,7846.182985,7402.059420,0.000000
202.887842,6809.894666,7254.018232,-306.438199
202.888163,8808.450710,6883.915261,-1225.752797
202.888484,5255.462188,5921.647536,-3064.381992
202.888804,4145.153275,6587.832884,-1225.752797
202.889125,3923.091493,6069.688724,2298.286494
202.889446,3775.050304,5551.544565,612.876398
202.889766,5625.565159,7254.018232,612.876398
202.890087,4367.215058,9696.697840,2987.772442
202.890408,4737.318029,9918.759623,76.609550
202.890728,7179.997637,9178.553681,-842.705048
202.891049,3330.926739,6143.709319,-1302.362347
202.891370,3775.050304,5847.626942,-2068.457845
202.891690,4515.256246,5995.668130,1532.190996
202.892011,3775.050304,8660.409521,766.095498
202.892332,6957.935855,9104.533087,306.438199
202.892652,6143.709319,9030.512492,0.000000
202.892973,4589.276840,10288.862594,-459.657299
202.893294,3404.947333,10066.800811,153.219100
202.893614,2812.782580,6069.688724,1149.143247
202.893935,5033.400406,4441.235652,1685.410096
202.894256,6217.729913,5403.503377,1838.629195
202.894576,4219.173869,7179.997637,-306.438199
202.894897,4293.194464,9474.636058,-2757.943793
202.895218,5403.503377,9400.615463,-3294.210641
202.895538,6365.771101,9548.656652,-229.828649
202.895859,7105.977043,8512.368333,2681.334243
202.896180,7476.080014,9178.553681,1302.362347
202.896500,5107.421000,9474.636058,-459.657299
202.896821,1850.514855,7698.141797,-2068.457845
202.897142,3627.009116,7550.100608,-1302.362347
202.897462,5181.441594,9992.780217,0.000000
202.897783,1036.288319,8734.430116,-689.485948
202.898104,2812.782580,7105.977043,-612.876398
202.898424,7254.018232,7105.977043,0.000000
202.898745,3775.050304,9104.533087,1378.971896
202.899066,2294.638420,9474.636058,1838.629195
202.899386,4367.215058,8364.327145,76.609550
202.899707,5403.503377,8808.450710,76.609550
202.900028,7698.141797,9770.718434,3064.381992
202.900348,6439.791695,9326.594869,995.924147
202.900669,4737.318029,7698.141797,-4903.011187
202.900990,5033.400406,9622.677246,-3600.648841
202.901310,4959.379811,11843.295072,-536.266849
202.901631,4145.153275,8586.388927,-383.047749
202.901952,6513.812290,5551.544565,1072.533697
202.902272,3997.112087,6587.832884,459.657299
202.902593,2590.720797,8216.285956,306.438199
202.902914,2368.659014,7179.997637,842.705048
202.903234,4737.318029,6735.874072,-306.438199
202.903555,7624.121203,6957.935855,1762.019645
202.903876,8068.244768,7772.162391,3677.258390
202.904196,5995.668130,6587.832884,306.438199
202.904517,5847.626942,5847.626942,-2451.505594
202.904838,5329.482782,5847.626942,-2834.553343
202.905158,6957.935855,6587.832884,-3217.601092
202.905479,8142.265362,6735.874072,-2298.286494
202.905800,7920.203579,8808.450710,-2068.457845
202.906120,6513.812290,11399.171507,-153.219100
202.906441,5181.441594,11695.253884,-306.438199
202.906762,3330.926739,9252.574275,-1685.410096
202.907082,3627.009116,6069.688724,-842.705048
202.907403,5477.523971,5329.482782,1991.848295
202.907724,3997.112087,6883.915261,1685.410096
202.908044,3775.050304,7105.977043,0.000000
202.908365,2442.679609,6143.709319,-612.876398
202.908686,2812.782580,5403.503377,766.095498
202.909006,4367.215058,8142.265362,2834.553343
202.909327,5403.503377,11103.089130,2681.334243
202.909648,3775.050304,10584.944971,76.609550
202.909968,5625.565159,9030.512492,-459.657299
202.910289,7402.059420,9326.594869,-153.219100
202.910610,4293.194464,10362.883188,-2451.505594
202.910930,1924.535449,7994.224174,-3907.087040
202.911251,5699.585753,8068.244768,-2374.896044
202.911572,5847.626942,8660.409521,536.266849
202.911892,5699.585753,9992.780217,1608.800546
202.912213,4885.359217,7624.121203,689.485948
202.912534,5033.400406,7402.059420,-995.924147
202.912854,5181.441594,8216.285956,1991.848295
202.913175,4515.256246,9770.718434,3907.087040
202.913496,4959.379811,5107.421000,-536.266849
202.913816,6291.750507,3256.906145,-1762.019645
202.914137,5921.647536,5107.421000,0.000000
202.914457,5625.565159,9992.780217,306.438199
202.914778,5921.647536,11177.109724,-1532.190996
202.915099,7105.977043,11695.253884,-3447.429741
202.915419,8438.347739,11843.295072,-919.314598
202.915740,5773.606348,11177.109724,1685.410096
202.916061,3775.050304,8956.491898,1072.533697
202.916381,2220.617826,5329.482782,-689.485948
202.916702,814.226536,3330.926739,-306.438199
202.917023,2738.761985,5181.441594,1838.629195
202.917343,4663.297435,6661.853478,1608.800546
202.917664,3627.009116,8216.285956,-383.047749
202.917985,4737.318029,10214.842000,-306.438199
202.918305,4959.379811,9474.636058,-306.438199
202.918626,5329.482782,7476.080014,-229.828649
202.918947,7328.038826,7402.059420,1378.971896
202.919267,7105.977043,8068.244768,1685.410096
202.919588,5033.400406,8882.471304,-612.876398
202.919909,5477.523971,9030.512492,-1455.581446
202.920229,6069.688724,7846.182985,-2221.676944
202.920550,6513.812290,6365.771101,-1378.971896
202.920871,5625.565159,7328.038826,-612.876398
202.921191,4219.173869,8364.327145,-2451.505594
202.921512,3627.009116,6365.771101,-1915.238745
202.921833,5551.544565,4885.359217,2145.067394
202.922153,8142.265362,5403.503377,4290.134789
202.922474,4811.338623,8068.244768,1838.629195
202.922795,2072.576638,7846.182985,-1608.800546
202.923115,2442.679609,6809.894666,-2298.286494
202.923436,5551.544565,6439.791695,-153.219100
202.923757,7328.038826,8734.430116,0.000000
202.924077,7105.977043,9918.759623,-2221.676944
202.924398,5255.462188,11399.171507,-4749.792088
202.924719,5921.647536,13915.871710,-919.314598
202.925039,4515.256246,12583.501014,2757.943793
202.925360,4145.153275,6513.812290,1685.410096
202.925681,4737.318029,3256.906145,2145.067394
202.926001,3182.885551,5995.668130,2757.943793
202.926322,2220.617826,8512.368333,1225.752797
202.926643,3256.906145,7846.182985,-689.485948
202.926963,5033.400406,6439.791695,-2298.286494
202.927284,5773.606348,6587.832884,612.876398
202.927605,5995.668130,8438.347739,2528.115143
202.927925,6365.771101,8882.471304,-766.095498
202.928246,6439.791695,8808.450710,-2604.724693
202.928567,6587.832884,8290.306550,-1685.410096
202.928887,6291.750507,8586.388927,536.266849
202.929208,7328.038826,10584.944971,1455.581446
202.929529,5773.606348,10658.965565,0.000000
202.929849,5329.482782,9104.533087,-2145.067394
202.930170,6883.915261,7105.977043,-3064.381992
202.930491,5921.647536,5773.606348,-1762.019645
202.930811,5995.668130,5255.462188,1149.143247
202.931132,5477.523971,6143.709319,1915.238745
202.931453,4367.215058,6809.894666,2068.457845
202.931773,4441.235652,8956.491898,1532.190996
202.932094,5921.647536,9474.636058,1302.362347
202.932415,3627.009116,7179.997637,-229.828649
202.932735,2960.823768,7624.121203,-536.266849
202.933056,3627.009116,10658.965565,-1149.143247
202.933377,2664.741391,10732.986159,-1225.752797
202.933697,2590.720797,9622.677246,-383.047749
202.934018,6069.688724,8586.388927,76.609550
202.934339,2960.823768,8882.471304,-1072.533697
202.934659,1258.350101,8216.285956,-766.095498
202.934980,2442.679609,6069.688724,1608.800546
202.935301,5995.668130,6587.832884,3370.820191
202.935621,7994.224174,8142.265362,2911.162892
202.935942,5921.647536,9104.533087,536.266849
202.936263,4589.276840,6365.771101,-3140.991542
202.936583,5477.523971,4663.297435,-2145.067394
202.936904,7179.997637,4959.379811,1685.410096
202.937225,6735.874072,5995.668130,842.705048
202.937545,7698.141797,6587.832884,-1608.800546
202.937866,7105.977043,7994.224174,-3447.429741
202.938187,6365.771101,11103.089130,-3907.087040
202.938507,7402.059420,11029.068536,-1072.533697
202.938828,6365.771101,7994.224174,-919.314598
202.939149,7254.018232,5181.441594,76.609550
202.939469,6587.832884,7328.038826,2221.676944
202.939790,4145.153275,8734.430116,919.314598
202.940111,2960.823768,6809.894666,-2145.067394
202.940431,3775.050304,6883.915261,-2681.334243
202.940752,3034.844362,8734.430116,0.000000
202.941073,4737.318029,11769.274478,3217.601092
202.941393,3775.050304,11843.295072,2298.286494
202.941714,2368.659014,11843.295072,842.705048
202.942035,2590.720797,10510.924376,1685.410096
202.942355,1036.288319,10510.924376,612.876398
202.942676,1110.308913,9252.574275,76.609550
202.942997,1850.514855,7328.038826,1149.143247
202.943317,2590.720797,7254.018232,1762.019645
202.943638,2960.823768,6957.935855,1838.629195
202.943959,5033.400406,7550.100608,842.705048
202.944279,4367.215058,7031.956449,-1608.800546
202.944600,6661.853478,7846.182985,-1915.238745
202.944921,6883.915261,9474.636058,-1149.143247
202.945241,7476.080014,9030.512492,-766.095498
202.945562,8882.471304,6143.709319,536.266849
202.945883,10214.842000,5773.606348,229.828649
202.946203,9474.636058,7772.162391,-2528.115143
202.946524,6365.771101,8586.388927,-5209.449386
202.946845,7031.956449,8438.347739,-4290.134789
202.947165,8142.265362,7254.018232,-689.485948
202.947486,7402.059420,5403.503377,2068.457845
202.947807,6735.874072,6439.791695,2834.553343
202.948127,3256.906145,5773.606348,-1685.410096
202.948448,1554.432478,5033.400406,-3064.381992
202.948769,5403.503377,6291.750507,766.095498
202.949089,5773.606348,9030.512492,1378.971896
202.949410,3849.070898,8956.491898,995.924147
202.949731,3108.864956,7994.224174,689.485948
202.950051,2368.659014,9770.718434,383.047749
202.950372,1036.288319,11769.274478,1225.752797
202.950693,1480.411884,10732.986159,0.000000
202.951013,4737.318029,9696.697840,-2451.505594
202.951334,4293.194464,9770.718434,-995.924147
202.951655,2294.638420,10362.883188,1838.629195
202.951975,3627.009116,10436.903782,1608.800546
202.952296,4145.153275,8142.265362,153.219100
202.952617,3478.967927,6217.729913,1378.971896
202.952937,5551.544565,5255.462188,3140.991542
202.953258,5477.523971,4367.215058,1225.752797
202.953579,5181.441594,4737.318029,0.000000
202.953899,5773.606348,6291.750507,383.047749
202.954220,8142.265362,7254.018232,-1685.410096
202.954541,8660.409521,7846.182985,-2681.334243
202.954861,9770.718434,8734.430116,-4366.744339
202.955182,9622.677246,8586.388927,-4979.620737
202.955503,9770.718434,10362.883188,-1685.410096
202.955823,8882.471304,10510.924376,306.438199
202.956144,7328.038826,10140.821405,-842.705048
202.956465,7476.080014,7550.100608,-766.095498
202.956786,5181.441594,5773.606348,919.314598
202.957106,1628.453072,4589.276840,1378.971896
202.957427,1110.308913,5403.503377,1302.362347
202.957748,962.267725,4959.379811,536.266849
202.958068,2220.617826,5625.565159,-536.266849
202.958389,5773.606348,9992.780217,1072.533697
202.958710,1554.432478,12879.583391,1532.190996
202.959030,-444.123565,12065.356855,0.000000
202.959351,1480.411884,11103.089130,-306.438199
202.959672,1480.411884,10362.883188,-229.828649
202.959992,2294.638420,10881.027347,612.876398
202.960313,2516.700203,11399.171507,1225.752797
202.960634,2294.638420,11251.130318,-1072.533697
202.960954,3182.885551,13175.665768,-1072.533697
202.961275,1628.453072,11695.253884,-153.219100
202.961596,3627.009116,7994.224174,0.000000
202.961916,4219.173869,2664.741391,2298.286494
202.962237,3997.112087,2590.720797,2528.115143
202.962558,5107.421000,4737.318029,1455.581446
202.962878,5107.421000,7105.977043,153.219100
202.963199,7105.977043,9104.533087,-1532.190996
202.963520,9696.697840,9696.697840,-1838.629195
202.963841,9030.512492,7624.121203,-1378.971896
202.964161,9252.574275,7476.080014,-2374.896044
202.964482,9622.677246,7772.162391,-2681.334243
202.964803,7254.018232,8734.430116,-2911.162892
202.965123,8734.430116,9030.512492,-2451.505594
202.965444,10362.883188,8216.285956,-1838.629195
202.965765,7994.224174,8290.306550,-306.438199
202.966085,5403.503377,7994.224174,1915.238745
202.966406,3034.844362,7031.956449,1149.143247
202.966727,2960.823768,3923.091493,153.219100
202.967047,5847.626942,3627.009116,2145.067394
202.967368,4293.194464,6143.709319,2374.896044
202.967689,3330.926739,8956.491898,306.438199
202.968009,1702.473667,9992.780217,-1072.533697
202.968330,-148.041188,9178.553681,-306.438199
202.968651,5255.462188,9252.574275,2068.457845
202.968971,7772.162391,8808.450710,2757.943793
202.969292,5033.400406,9104.533087,-459.657299
202.969613,3701.029710,9770.718434,-2221.676944
202.969933,3627.009116,9696.697840,-459.657299
202.970254,4145.153275,7254.018232,1149.143247
202.970575,6439.791695,4811.338623,1378.971896
202.970895,8734.430116,4959.379811,-612.876398
202.971216,6365.771101,7624.121203,-2834.553343
202.971537,3256.906145,6587.832884,-3217.601092
202.971858,6217.729913,5625.565159,-1455.581446
202.972178,9030.512492,5403.503377,306.438199
202.972499,7920.203579,8586.388927,612.876398
202.972820,5773.606348,11843.295072,-766.095498
202.973140,4293.194464,11695.253884,-4290.134789
202.973461,4885.359217,9770.718434,-2145.067394
202.973782,5921.647536,8290.306550,2145.067394
202.974102,4959.379811,7402.059420,2068.457845
202.974423,2072.576638,7994.224174,0.000000
202.974744,0.000000,8586.388927,-1838.629195
202.975064,1776.494261,8290.306550,-1455.581446
202.975385,3775.050304,8512.368333,995.924147
202.975706,3552.988522,10214.842000,76.609550
202.976026,2146.597232,10362.883188,-689.485948
202.976347,2442.679609,9770.718434,766.095498
202.976668,2812.782580,8882.471304,2528.115143
202.976988,3997.112087,7846.182985,2451.505594
202.977309,4737.318029,9696.697840,-459.657299
202.977630,4145.153275,10584.944971,-2451.505594
202.977950,4589.276840,9548.656652,-995.924147
202.978271,6735.874072,8660.409521,1838.629195
202.978592,7550.100608,7105.977043,2451.505594
202.978913,6809.894666,4515.256246,459.657299
202.979233,5033.400406,5699.585753,-2451.505594
202.979554,3775.050304,5551.544565,-3294.210641
202.979875,6291.750507,5477.523971,-1532.190996
202.980195,9104.533087,4885.359217,1378.971896
202.980516,9178.553681,6513.812290,842.705048
202.980837,7105.977043,9400.615463,-1532.190996
202.981157,4885.359217,9474.636058,-3983.696590
202.981478,5551.544565,7772.162391,-4443.353888
202.981799,7698.141797,7846.182985,-1762.019645
202.982119,5625.565159,8734.430116,383.047749
202.982440,4959.379811,9548.656652,-76.609550
202.982761,3849.070898,9400.615463,-1378.971896
202.983081,3627.009116,9252.574275,-1378.971896
202.983402,2146.597232,7476.080014,612.876398
202.983723,2442.679609,7031.956449,2451.505594
202.984043,3404.947333,7846.182985,3140.991542
202.984364,3775.050304,7772.162391,3983.696590
202.984685,4737.318029,8364.327145,4136.915689
202.985005,4737.318029,5329.482782,153.219100
202.985326,5477.523971,4515.256246,-1302.362347
202.985647,8216.285956,6735.874072,-919.314598
202.985967,7920.203579,7920.203579,-612.876398
202.986288,9844.739029,7772.162391,229.828649
202.986609,11695.253884,6143.709319,842.705048
202.986930,11621.233289,6439.791695,459.657299
202.987250,11769.274478,5847.626942,229.828649
202.987571,9178.553681,3034.844362,-1915.238745
202.987892,10288.862594,666.185348,-3907.087040
202.988212,13693.809927,1998.556043,-995.924147
202.988533,11917.315666,3923.091493,383.047749
202.988854,11399.171507,6809.894666,-1072.533697
202.989174,10955.047942,8364.327145,-2834.553343
202.989495,10436.903782,7105.977043,-3983.696590
202.989816,9104.533087,4515.256246,-612.876398
202.990136,8364.327145,4071.132681,1991.848295
202.990457,7328.038826,5995.668130,1608.800546
202.990778,5477.523971,7550.100608,612.876398
202.991098,5847.626942,7105.977043,-306.438199
202.991419,7179.997637,6587.832884,-689.485948
202.991740,5995.668130,4811.338623,-153.219100
202.992060,6587.832884,6957.935855,612.876398
202.992381,6587.832884,7328.038826,1608.800546
202.992702,5699.585753,6587.832884,1762.019645
202.993022,8142.265362,5181.441594,2298.286494
202.993343,9918.759623,4071.132681,1838.629195
202.993664,8438.347739,4071.132681,306.438199
202.993985,8808.450710,4737.318029,459.657299
202.994305,10584.944971,7994.224174,536.266849
202.994626,10807.006753,8142.265362,229.828649
202.994947,10140.821405,5107.421000,-229.828649
202.995267,13323.706956,3552.988522,-1149.143247
202.995588,11769.274478,4145.153275,-2451.505594
202.995909,7179.997637,4145.153275,-2987.772442
202.996229,8660.409521,4441.235652,-2757.943793
202.996550,11251.130318,5551.544565,-1378.971896
202.996871,10658.965565,6069.688724,919.314598
202.997191,9918.759623,8734.430116,1149.143247
202.997512,8068.244768,8216.285956,-2221.676944
202.997833,6217.729913,7179.997637,-3753.867940
202.998153,6365.771101,4219.173869,0.000000
202.998474,9400.615463,3701.029710,919.314598
202.998795,10658.965565,6291.750507,1991.848295
202.999115,7402.059420,7698.141797,1072.533697
202.999436,6143.709319,7254.018232,-689.485948
202.999757,7254.018232,6809.894666,-229.828649
203.000077,9030.512492,5625.565159,2834.553343
203.000398,10955.047942,5625.565159,4366.744339
203.000719,11029.068536,5329.482782,2374.896044
203.001040,10436.903782,5033.400406,76.609550
203.001360,9770.718434,3701.029710,153.219100
203.001681,10288.862594,1998.556043,459.657299
203.002002,10955.047942,1480.411884,-766.095498
203.002322,12953.603985,4293.194464,-995.924147
203.002643,12213.398043,6883.915261,-459.657299
203.002964,10955.047942,6439.791695,-536.266849
203.003284,10807.006753,2886.803174,-229.828649
203.003605,11251.130318,2368.659014,-383.047749
203.003926,10658.965565,4515.256246,-383.047749
203.004246,9400.615463,6661.853478,-1762.019645
203.004567,7994.224174,6735.874072,-3140.991542
203.004888,8956.491898,4959.379811,-1762.019645
203.005208,9400.615463,5181.441594,2145.067394
203.005529,8216.285956,6957.935855,2528.115143
203.005850,5477.523971,8364.327145,-76.609550
203.006170,6291.750507,8290.306550,-2757.943793
203.006491,6069.688724,5625.565159,-2757.943793
203.006812,7105.977043,3330.926739,995.924147
203.007132,7328.038826,3404.947333,4060.306139
203.007453,7402.059420,5921.647536,2987.772442
203.007774,7328.038826,7846.182985,1072.533697
203.008094,7476.080014,7328.038826,153.219100
203.008415,8882.471304,4663.297435,1455.581446
203.008736,10658.965565,2220.617826,3064.381992
203.009057,10066.800811,1628.453072,1762.019645
203.009377,9770.718434,4145.153275,-995.924147
203.009698,11695.253884,6735.874072,-3140.991542
203.010019,11547.212695,5551.544565,-3677.258390
203.010339,13471.748144,4515.256246,-1838.629195
203.010660,14137.933492,5551.544565,766.095498
203.010981,10066.800811,7254.018232,153.219100
203.011301,9252.574275,7254.018232,-1532.190996
203.011622,10362.883188,5625.565159,-1991.848295
203.011943,10362.883188,4071.132681,-1991.848295
203.012263,10066.800811,4293.194464,459.657299
203.012584,7328.038826,5773.606348,-383.047749
203.012905,4959.379811,6809.894666,-2681.334243
203.013225,5625.565159,7031.956449,-689.485948
203.013546,6735.874072,7179.997637,1838.629195
203.013867,8142.265362,7846.182985,2987.772442
203.014187,7105.977043,8438.347739,2374.896044
203.014508,4663.297435,7402.059420,0.000000
203.014829,4219.173869,6735.874072,-1762.019645
203.015149,6513.812290,5773.606348,1149.143247
203.015470,8142.265362,6291.750507,2145.067394
203.015791,8882.471304,5625.565159,766.095498
203.016112,9918.759623,5255.462188,-995.924147
203.016432,9474.636058,5921.647536,-1991.848295
203.016753,10881.027347,4959.379811,-383.047749
203.017074,13249.686362,3034.844362,1532.190996
203.017394,14211.954086,2368.659014,1225.752797
203.017715,13989.892304,2516.700203,1225.752797
203.018036,14137.933492,3775.050304,229.828649
203.018356,13471.748144,3627.009116,-2987.772442
203.018677,11991.336260,2960.823768,-3830.477490
203.018998,13323.706956,2960.823768,-1685.410096
203.019318,13767.830521,2738.761985,153.219100
203.019639,12361.439231,2886.803174,0.000000
203.019960,10658.965565,4441.235652,-1762.019645
203.020280,9622.677246,6587.832884,-2987.772442
203.020601,8438.347739,6661.853478,-1072.533697
203.020922,8512.368333,6587.832884,689.485948
203.021242,9622.677246,5255.462188,1378.971896
203.021563,9030.512492,5329.482782,536.266849
203.021884,6143.709319,6513.812290,0.000000
203.022204,3997.112087,6957.935855,-612.876398
203.022525,5995.668130,6735.874072,383.047749
203.022846,8512.368333,6291.750507,1991.848295
203.023166,9104.533087,6143.709319,2911.162892
203.023487,8068.244768,7254.018232,1915.238745
203.023808,6587.832884,7772.162391,1532.190996
203.024129,6513.812290,5995.668130,1149.143247
203.024449,9030.512492,2442.679609,2221.676944
203.024770,11843.295072,888.247130,1762.019645
203.025091,12139.377449,2516.700203,-459.657299
203.025411,11547.212695,5625.565159,-1455.581446
203.025732,11547.212695,5773.606348,-1532.190996
203.026053,13471.748144,4441.235652,-842.705048
203.026373,15026.180623,3627.009116,229.828649
203.026694,13323.706956,3923.091493,0.000000
203.027015,11029.068536,4811.338623,-2145.067394
203.027335,10214.842000,5477.523971,-2451.505594
203.027656,9992.780217,5329.482782,-2068.457845
203.027977,9696.697840,4811.338623,-306.438199
203.028297,8882.471304,4663.297435,-306.438199
203.028618,7328.038826,5551.544565,-1302.362347
203.028939,5551.544565,5995.668130,-1532.190996
203.029259,5477.523971,6513.812290,-1225.752797
203.029580,5255.462188,7698.141797,306.438199
203.029901,5625.565159,8364.327145,2068.457845
203.030221,5477.523971,9400.615463,2528.115143
203.030542,5255.462188,10584.944971,1455.581446
203.030863,3849.070898,9696.697840,306.438199
203.031184,3775.050304,6957.935855,229.828649
203.031504,5329.482782,4515.256246,1149.143247
203.031825,6883.915261,4589.276840,1532.190996
203.032146,7994.224174,5921.647536,1455.581446
203.032466,9326.594869,7105.977043,1302.362347
203.032787,10362.883188,6513.812290,612.876398
203.033108,10658.965565,4071.132681,1072.533697
203.033428,11843.295072,1406.391290,995.924147
203.033749,13619.789333,1332.370696,0.000000
203.034070,15100.201217,2590.720797,-842.705048
203.034390,15174.221811,4737.318029,-2221.676944
203.034711,14211.954086,5847.626942,-3447.429741
203.035032,14508.036463,5255.462188,-4213.525239
203.035352,14359.995275,4515.256246,-2451.505594
203.035673,13249.686362,3701.029710,-1302.362347
203.035994,11621.233289,2886.803174,-1225.752797
203.036314,10436.903782,2368.659014,-2221.676944
203.036635,9104.533087,3034.844362,-2221.676944
203.036956,9104.533087,4515.256246,-459.657299
203.037276,9326.594869,7105.977043,612.876398
203.037597,8290.306550,8808.450710,0.000000
203.037918,7254.018232,8364.327145,-842.705048
203.038238,6883.915261,6365.771101,0.000000
203.038559,6143.709319,4737.318029,1838.629195
203.038880,5329.482782,4441.235652,2834.553343
203.039201,5625.565159,5773.606348,1455.581446
203.039521,6809.894666,7031.956449,612.876398
203.039842,7698.141797,8586.388927,383.047749
203.040163,9326.594869,7994.224174,1225.752797
203.040483,10066.800811,6069.688724,1532.190996
203.040804,10288.862594,4663.297435,1608.800546
203.041125,9770.718434,3478.967927,1302.362347
203.041445,9992.780217,2516.700203,-229.828649
203.041766,11547.212695,2442.679609,-689.485948
203.042087,12139.377449,3404.947333,-689.485948
203.042407,11991.336260,4663.297435,-1378.971896
203.042728,12731.542202,6513.812290,-2451.505594
203.043049,12287.418637,7920.203579,-3064.381992
203.043369,11843.295072,6957.935855,-2068.457845
203.043690,11769.274478,5477.523971,-306.438199
203.044011,10362.883188,4145.153275,842.705048
203.044331,7550.100608,4293.194464,766.095498
203.044652,6957.935855,5255.462188,-306.438199
203.044973,7179.997637,6883.915261,-1608.800546
203.045293,7105.977043,7402.059420,-1302.362347
203.045614,7105.977043,5625.565159,-229.828649
203.045935,7105.977043,4959.379811,612.876398
203.046256,6217.729913,5773.606348,1302.362347
203.046576,4959.379811,6365.771101,1838.629195
203.046897,6069.688724,7105.977043,1685.410096
203.047218,7031.956449,6735.874072,995.924147
203.047538,7698.141797,7328.038826,1455.581446
203.047859,7846.182985,7254.018232,1225.752797
203.048180,7772.162391,7105.977043,0.000000
203.048500,7994.224174,7328.038826,-1149.143247
203.048821,8142.265362,6661.853478,-306.438199
203.049142,9326.594869,5773.606348,459.657299
203.049462,9992.780217,5033.400406,842.705048
203.049783,9104.533087,4515.256246,1072.533697
203.050104,8586.388927,3256.906145,766.095498
203.050424,9918.759623,1480.411884,76.609550
203.050745,10732.986159,1480.411884,-383.047749
203.051066,11399.171507,2220.617826,-995.924147
203.051386,12065.356855,3256.906145,-2451.505594
203.051707,13027.624579,5551.544565,-3447.429741
203.052028,13027.624579,6809.894666,-3907.087040
203.052349,12953.603985,7105.977043,-3294.210641
203.052670,13323.706956,6957.935855,-2604.724693
203.052990,11917.315666,6957.935855,-919.314598
203.053311,9918.759623,6291.750507,153.219100
203.053632,9104.533087,6069.688724,1225.752797
203.053953,8512.368333,4885.359217,1302.362347
203.054273,7031.956449,4959.379811,1302.362347
203.054594,6439.791695,4515.256246,1608.800546
203.054915,6661.853478,4441.235652,1762.019645
203.055236,6735.874072,5107.421000,1762.019645
203.055556,6069.688724,4589.276840,1532.190996
203.055877,7179.997637,5181.441594,842.705048
203.056198,8216.285956,6957.935855,459.657299
203.056519,8808.450710,8808.450710,612.876398
203.056839,9844.739029,8660.409521,229.828649
203.057160,10658.965565,8216.285956,0.000000
203.057481,10362.883188,7402.059420,-229.828649
203.057802,9918.759623,6143.709319,0.000000
203.058123,9844.739029,4293.194464,0.000000
203.058443,9770.718434,3108.864956,-919.314598
203.058764,10066.800811,2664.741391,-1072.533697
203.059085,10436.903782,2590.720797,-766.095498
203.059406,11473.192101,3627.009116,-153.219100
203.059726,11103.089130,5255.462188,-612.876398
203.060047,11103.089130,7328.038826,-306.438199
203.060368,10362.883188,7994.224174,-536.266849
203.060689,8586.388927,7994.224174,0.000000
203.061009,7550.100608,8068.244768,919.314598
203.061330,5921.647536,7994.224174,612.876398
203.061651,4737.318029,7698.141797,-229.828649
203.061972,3997.112087,7402.059420,-995.924147
203.062292,3923.091493,7179.997637,-1149.143247
203.062613,3775.050304,7698.141797,306.438199
203.062934,3034.844362,8882.471304,1762.019645
203.063255,2442.679609,10658.965565,3370.820191
203.063575,3256.906145,11177.109724,4213.525239
203.063896,4367.215058,11325.150913,4903.011187
203.064217,4441.235652,10214.842000,4749.792088
203.064538,3701.029710,8734.430116,4290.134789
203.064859,3997.112087,8216.285956,4060.306139
203.065179,3923.091493,8438.347739,3983.696590
203.065500,4737.318029,9474.636058,4136.915689
203.065821,5847.626942,10584.944971,3447.429741
203.066142,6365.771101,10214.842000,3370.820191
203.066462,6587.832884,9030.512492,4519.963438
203.066783,6587.832884,7994.224174,5669.106685
203.067104,7031.956449,7624.121203,4979.620737
203.067425,7624.121203,7476.080014,4519.963438
203.067745,7476.080014,7476.080014,3830.477490
203.068066,7328.038826,7772.162391,3907.087040
203.068387,8290.306550,8142.265362,4749.792088
203.068708,8660.409521,8586.388927,5975.544884
203.069028,7772.162391,8660.409521,6971.469032
203.069349,7402.059420,7920.203579,6741.640382
203.069670,6439.791695,6735.874072,6741.640382
203.069991,5699.585753,5699.585753,6971.469032
203.070312,5403.503377,4811.338623,6894.859482
203.070632,5773.606348,4885.359217,7124.688131
203.070953,5847.626942,6143.709319,7124.688131
203.071274,5255.462188,7105.977043,6665.030833
203.071595,5033.400406,7476.080014,6971.469032
203.071915,5033.400406,7254.018232,7737.564530
203.072236,4589.276840,7254.018232,8656.879127
203.072557,3775.050304,6735.874072,7967.393179
203.072878,3775.050304,6143.709319,7737.564530
203.073198,3182.885551,5847.626942,7354.516781
203.073519,2886.803174,5699.585753,7354.516781
203.073840,2738.761985,5403.503377,6511.811733
203.074161,2368.659014,5477.523971,5822.325785
203.074481,2590.720797,5847.626942,5209.449386
203.074802,3256.906145,6513.812290,5822.325785
203.075123,3478.967927,6957.935855,6052.154434
203.075444,3404.947333,7550.100608,5975.544884
203.075765,3775.050304,7550.100608,6358.592633
203.076085,3849.070898,7772.162391,5515.887586
203.076406,3923.091493,7624.121203,4673.182538
203.076727,3404.947333,7031.956449,4596.572988
203.077048,3478.967927,6069.688724,4213.525239
203.077368,3849.070898,5847.626942,4596.572988
203.077689,3404.947333,5921.647536,3753.867940
203.078010,3182.885551,6735.874072,2987.772442
203.078331,4367.215058,7476.080014,2528.115143
203.078651,4959.379811,8586.388927,2757.943793
203.078972,4885.359217,9326.594869,3064.381992
203.079293,5995.668130,9918.759623,3524.039291
203.079614,6217.729913,10362.883188,3524.039291
203.079934,6365.771101,11029.068536,3753.867940
203.080255,6587.832884,11547.212695,5132.839837
203.080576,6069.688724,11325.150913,5822.325785
203.080897,5477.523971,10362.883188,5592.497135
203.081217,4885.359217,8882.471304,6281.983084
203.081538,3997.112087,6883.915261,5745.716235
203.081859,3330.926739,3997.112087,3370.820191
203.082180,3552.988522,2072.576638,2068.457845
203.082501,4811.338623,3108.864956,766.095498
203.082821,6513.812290,6365.771101,153.219100
203.083142,8660.409521,11177.109724,-1149.143247
203.083463,10140.821405,15470.304188,-1915.238745
203.083784,11029.068536,17616.901420,-1072.533697
203.084104,10955.047942,17468.860231,1762.019645
203.084425,9770.718434,14434.015869,4443.353888
203.084746,6809.894666,10732.986159,5362.668486
203.085067,5255.462188,7624.121203,5745.716235
203.085387,4515.256246,6587.832884,5822.325785
203.085708,1258.350101,6513.812290,4903.011187
203.086029,888.247130,6809.894666,4749.792088
203.086350,1924.535449,6439.791695,4366.744339
203.086670,3034.844362,5477.523971,4366.744339
203.086991,3552.988522,6291.750507,4826.401637
203.087312,5921.647536,8586.388927,5209.449386
203.087633,5995.668130,12213.398043,4136.915689
203.087954,4737.318029,13397.727550,2911.162892
203.088274,6439.791695,13397.727550,2681.334243
203.088595,9622.677246,13545.768739,3140.991542
203.088916,7920.203579,10955.047942,4290.134789
203.089237,5181.441594,7031.956449,5669.106685
203.089557,5625.565159,5699.585753,6052.154434
203.089878,2590.720797,5403.503377,6205.373534
203.090199,2886.803174,5403.503377,5822.325785
203.090520,5329.482782,6735.874072,5439.278036
203.090840,5921.647536,6291.750507,4826.401637
203.091161,4663.297435,5255.462188,6281.983084
203.091482,5847.626942,5551.544565,8656.879127
203.091803,6217.729913,8216.285956,9729.412825
203.092123,4219.173869,10658.965565,7814.174080
203.092444,3108.864956,9992.780217,4903.011187
203.092765,3923.091493,8068.244768,3217.601092
203.093086,3997.112087,6069.688724,5439.278036
203.093406,4663.297435,5625.565159,9346.365076
203.093727,5107.421000,7698.141797,9576.193725
203.094048,1628.453072,9400.615463,6665.030833
203.094369,1110.308913,9178.553681,4903.011187
203.094690,2516.700203,5995.668130,6358.592633
203.095010,2960.823768,2442.679609,8120.612279
203.095331,3552.988522,1406.391290,8580.269578
203.095652,6217.729913,5181.441594,7584.345430
203.095973,5403.503377,9474.636058,5822.325785
203.096293,2960.823768,10510.924376,4826.401637
203.096614,4663.297435,7772.162391,4443.353888
203.096935,5699.585753,5403.503377,5592.497135
203.097256,3627.009116,4663.297435,7967.393179
203.097576,3701.029710,6291.750507,9116.536426
203.097897,4589.276840,8586.388927,7431.126331
203.098218,4441.235652,11251.130318,5286.058936
203.098539,3923.091493,10955.047942,4749.792088
203.098859,4737.318029,9104.533087,4060.306139
203.099180,4367.215058,6957.935855,4213.525239
203.099501,3404.947333,4441.235652,5515.887586
203.099822,4737.318029,3478.967927,5975.544884
203.100143,5329.482782,4219.173869,5745.716235
203.100463,4663.297435,5921.647536,5362.668486
203.100784,5329.482782,8438.347739,3983.696590
203.101105,6217.729913,11695.253884,3217.601092
203.101426,5255.462188,12953.603985,3753.867940
203.101746,7105.977043,12139.377449,5592.497135
203.102067,8512.368333,10288.862594,6665.030833
203.102388,6661.853478,8142.265362,5515.887586
203.102709,4515.256246,5477.523971,2145.067394
203.103029,4515.256246,5181.441594,536.266849
203.103350,5033.400406,7179.997637,2451.505594
203.103671,4663.297435,9104.533087,5975.544884
203.103992,6217.729913,10066.800811,6128.763984
203.104312,7328.038826,11325.150913,4826.401637
203.104633,4737.318029,11843.295072,3600.648841
203.104954,4293.194464,10288.862594,3370.820191
203.105275,5329.482782,8142.265362,4213.525239
203.105595,4811.338623,8068.244768,4673.182538
203.105916,4885.359217,9030.512492,4903.011187
203.106237,6069.688724,10140.821405,3907.087040
203.106558,5551.544565,11177.109724,3064.381992
203.106879,5107.421000,11843.295072,3830.477490
203.107199,5773.606348,10658.965565,4903.011187
203.107520,5995.668130,8586.388927,5439.278036
203.107841,5551.544565,7846.182985,6435.202183
203.108162,4737.318029,7920.203579,5898.935335
203.108482,4293.194464,7920.203579,4213.525239
203.108803,5033.400406,8142.265362,3140.991542
203.109124,5329.482782,8882.471304,3907.087040
203.109445,5403.503377,7994.224174,4903.011187
203.109765,6513.812290,7698.141797,4826.401637
203.110086,5255.462188,8438.347739,4213.525239
203.110407,3034.844362,7402.059420,3983.696590
203.110728,3923.091493,7550.100608,4366.744339
203.111048,5995.668130,7402.059420,4366.744339
203.111369,5551.544565,7994.224174,5132.839837
203.111690,6439.791695,8438.347739,6128.763984
203.112011,6217.729913,9178.553681,5439.278036
203.112332,2886.803174,8956.491898,5745.716235
203.112652,2590.720797,6735.874072,6358.592633
203.112973,5107.421000,5329.482782,5822.325785
203.113294,5551.544565,6587.832884,6281.983084
203.113615,3775.050304,8142.265362,6281.983084
203.113935,2738.761985,7994.224174,4673.182538
203.114256,2738.761985,6217.729913,3677.258390
203.114577,3404.947333,5107.421000,5209.449386
203.114898,4959.379811,5107.421000,5822.325785
203.115218,6735.874072,7994.224174,4673.182538
203.115539,4737.318029,10881.027347,4366.744339
203.115860,4293.194464,11251.130318,4826.401637
203.116181,6069.688724,8734.430116,5975.544884
203.116501,6883.915261,7550.100608,7737.564530
203.116822,5181.441594,8364.327145,7814.174080
203.117143,3923.091493,9326.594869,6511.811733
203.117464,2738.761985,6809.894666,6205.373534
203.117785,2442.679609,3256.906145,6741.640382
203.118105,3478.967927,1776.494261,6511.811733
203.118426,4219.173869,4293.194464,5132.839837
203.118747,2812.782580,7920.203579,3140.991542
203.119068,3034.844362,9178.553681,2451.505594
203.119388,5255.462188,8808.450710,3140.991542
203.119709,7105.977043,8290.306550,5056.230287
203.120030,6661.853478,8438.347739,5592.497135
203.120351,4885.359217,9400.615463,3600.648841
203.120671,4071.132681,10140.821405,2068.457845
203.120992,5773.606348,9918.759623,1685.410096
203.121313,7550.100608,8290.306550,2757.943793
203.121634,6809.894666,7624.121203,4290.134789
203.121954,5477.523971,7994.224174,5056.230287
203.122275,5921.647536,9918.759623,5132.839837
203.122596,4367.215058,8734.430116,4903.011187
203.122917,3182.885551,5477.523971,3983.696590
203.123237,5329.482782,5551.544565,5209.449386
203.123558,5181.441594,7920.203579,6358.592633
203.123879,2812.782580,9178.553681,5669.106685
203.124200,2664.741391,9178.553681,2757.943793
203.124521,7031.956449,11177.109724,2068.457845
203.124841,4737.318029,10881.027347,4136.915689
203.125162,3775.050304,9696.697840,5132.839837
203.125483,7031.956449,10881.027347,4443.353888
203.125804,5699.585753,11769.274478,4673.182538
203.126124,5181.441594,9918.759623,5439.278036
203.126445,7328.038826,8734.430116,6128.763984
203.126766,6809.894666,8956.491898,5822.325785
203.127087,4071.132681,6883.915261,6205.373534
203.127407,6439.791695,5033.400406,4826.401637
203.127728,6513.812290,5995.668130,2681.334243
203.128049,4589.276840,7105.977043,3677.258390
203.128370,4663.297435,5403.503377,4060.306139
203.128690,8438.347739,6735.874072,2911.162892
203.129011,6883.915261,9918.759623,4213.525239
203.129332,4441.235652,11547.212695,3830.477490
203.129653,5181.441594,10584.944971,1072.533697
203.129974,6365.771101,9104.533087,2145.067394
203.130294,5921.647536,8734.430116,6665.030833
203.130615,7772.162391,8290.306550,7354.516781
203.130936,7031.956449,9400.615463,4290.134789
203.131257,2886.803174,9548.656652,3524.039291
203.131577,2664.741391,8660.409521,5362.668486
203.131898,4663.297435,5551.544565,7354.516781
203.132219,4959.379811,4441.235652,8886.707777
203.132540,3701.029710,4589.276840,8350.440928
203.132860,3478.967927,5625.565159,5056.230287
203.133181,1406.391290,3404.947333,2604.724693
203.133502,3330.926739,2516.700203,3370.820191
203.133823,7846.182985,6735.874072,5822.325785
203.134143,8586.388927,10288.862594,4673.182538
203.134464,4663.297435,10732.986159,1685.410096
203.134785,5625.565159,10658.965565,1225.752797
203.135106,7105.977043,9474.636058,4366.744339
203.135426,5181.441594,6069.688724,6588.421283
203.135747,3256.906145,2442.679609,2681.334243
203.136068,3849.070898,4811.338623,-612.876398
203.136389,4219.173869,8512.368333,919.314598
203.136710,3478.967927,8512.368333,2757.943793
203.137030,4663.297435,6809.894666,1838.629195
203.137351,4293.194464,7994.224174,2221.676944
203.137672,1998.556043,7698.141797,3983.696590
203.137993,1110.308913,5699.585753,4213.525239
203.138313,2886.803174,5625.565159,2451.505594
203.138634,2516.700203,7254.018232,1838.629195
203.138955,3923.091493,9548.656652,766.095498
203.139276,5403.503377,11473.192101,0.000000
203.139596,5255.462188,12139.377449,-536.266849
203.139917,6143.709319,11325.150913,995.924147
203.140238,5551.544565,8956.491898,1915.238745
203.140559,3923.091493,5477.523971,2911.162892
203.140879,4441.235652,6735.874072,4979.620737
203.141200,6587.832884,9548.656652,4213.525239
203.141521,5625.565159,9770.718434,-612.876398
203.141842,4959.379811,9030.512492,-3600.648841
203.142163,7772.162391,8882.471304,-1302.362347
203.142483,8512.368333,7698.141797,2528.115143
203.142804,6291.750507,6809.894666,3064.381992
203.143125,6735.874072,7476.080014,306.438199
203.143446,4663.297435,9104.533087,-1685.410096
203.143766,3108.864956,9696.697840,612.876398
203.144087,6143.709319,10510.924376,1685.410096
203.144408,9548.656652,12287.418637,-306.438199
203.144729,7550.100608,12213.398043,-2221.676944
203.145049,3849.070898,9992.780217,-3370.820191
203.145370,4959.379811,7624.121203,-766.095498
203.145691,4663.297435,6217.729913,3064.381992
203.146012,3256.906145,7031.956449,2528.115143
203.146332,5847.626942,10288.862594,-459.657299
203.146653,4367.215058,12879.583391,-1302.362347
203.146974,3182.885551,9992.780217,689.485948
203.147295,6217.729913,4959.379811,2068.457845
203.147615,6069.688724,2368.659014,229.828649
203.147936,3997.112087,3627.009116,-536.266849
203.148257,3478.967927,6365.771101,-2068.457845
203.148578,6069.688724,9918.759623,-3907.087040
203.148899,7550.100608,10362.883188,-2528.115143
203.149219,8734.430116,9326.594869,-842.705048
203.149540,7550.100608,7328.038826,-306.438199
203.149861,6365.771101,8956.491898,536.266849
203.150182,4367.215058,9252.574275,0.000000
203.150502,3552.988522,5699.585753,-2298.286494
203.150823,4515.256246,2664.741391,-2757.943793
203.151144,6217.729913,4885.359217,919.314598
203.151465,4811.338623,8512.368333,2604.724693
203.151786,2368.659014,9104.533087,-1149.143247
203.152106,2960.823768,8216.285956,-4060.306139
203.152427,4737.318029,8068.244768,-1532.190996
203.152748,4367.215058,7476.080014,2987.772442
203.153069,3701.029710,7994.224174,4290.134789
203.153389,4367.215058,10510.924376,383.047749
203.153710,3108.864956,12139.377449,-2681.334243
203.154031,3404.947333,10510.924376,-1991.848295
203.154352,5995.668130,9918.759623,1072.533697
203.154673,6365.771101,9474.636058,3907.087040
203.154993,3775.050304,8586.388927,2987.772442
203.155314,1110.308913,5995.668130,-995.924147
203.155635,2886.803174,4589.276840,153.219100
203.155956,5551.544565,6587.832884,3830.477490
203.156277,8142.265362,9770.718434,4903.011187
203.156597,5403.503377,9326.594869,153.219100
203.156918,3997.112087,8290.306550,-3677.258390
203.157239,5329.482782,7105.977043,-1302.362347
203.157560,5699.585753,5773.606348,2374.896044
203.157880,7031.956449,5403.503377,919.314598
203.158201,6809.894666,7550.100608,-3983.696590
203.158522,5477.523971,11547.212695,-7277.907231
203.158843,5773.606348,12287.418637,-2451.505594
203.159164,6513.812290,9770.718434,2221.676944
203.159484,7105.977043,7254.018232,612.876398
203.159805,4737.318029,7698.141797,-766.095498
203.160126,2072.576638,6883.915261,-919.314598
203.160447,2960.823768,5181.441594,-612.876398
203.160768,4959.379811,3034.844362,1762.019645
203.161088,4367.215058,2664.741391,1532.190996
203.161409,4515.256246,5773.606348,-995.924147
203.161730,4663.297435,9474.636058,-2374.896044
203.162051,2220.617826,9326.594869,-1685.410096
203.162371,4959.379811,7772.162391,-229.828649
203.162692,8364.327145,8364.327145,-919.314598
203.163013,4441.235652,8290.306550,-1991.848295
203.163334,2368.659014,7772.162391,-2221.676944
203.163655,5107.421000,10584.944971,-3983.696590
203.163975,5107.421000,11843.295072,-4290.134789
203.164296,2960.823768,8734.430116,-1532.190996
203.164617,5033.400406,7328.038826,-842.705048
203.164938,5107.421000,8142.265362,689.485948
203.165259,3478.967927,9474.636058,1072.533697
203.165579,3923.091493,9178.553681,-1302.362347
203.165900,6217.729913,8882.471304,-1302.362347
203.166221,5699.585753,10510.924376,1378.971896
203.166542,5847.626942,11029.068536,3064.381992
203.166863,6809.894666,8068.244768,842.705048
203.167183,6883.915261,7328.038826,-919.314598
203.167504,5329.482782,8364.327145,-1149.143247
203.167825,4589.276840,7772.162391,-1532.190996
203.168146,7254.018232,8142.265362,-1225.752797
203.168466,8660.409521,11177.109724,-229.828649
203.168787,7328.038826,12583.501014,0.000000
203.169108,4959.379811,9992.780217,-842.705048
203.169429,5403.503377,7105.977043,153.219100
203.169750,5181.441594,6809.894666,1455.581446
203.170070,4589.276840,6069.688724,1149.143247
203.170391,5107.421000,7031.956449,-383.047749
203.170712,5477.523971,9844.739029,-1302.362347
203.171033,3478.967927,9918.759623,842.705048
203.171354,4811.338623,7994.224174,1302.362347
203.171674,5847.626942,7402.059420,0.000000
203.171995,2960.823768,7105.977043,-995.924147
203.172316,370.102971,5773.606348,536.266849
203.172637,4441.235652,5625.565159,0.000000
203.172957,4959.379811,5107.421000,-1455.581446
203.173278,3849.070898,6365.771101,-2145.067394
203.173599,5773.606348,9104.533087,-2221.676944
203.173920,3701.029710,10436.903782,-2451.505594
203.174241,4885.359217,10436.903782,229.828649
203.174561,7698.141797,6957.935855,1915.238745
203.174882,4959.379811,3849.070898,612.876398
203.175203,3775.050304,4367.215058,842.705048
203.175524,3108.864956,5847.626942,919.314598
203.175845,3330.926739,6587.832884,-1378.971896
203.176165,6735.874072,6661.853478,-536.266849
203.176486,7402.059420,7846.182985,1225.752797
203.176807,5107.421000,7624.121203,1302.362347
203.177128,4441.235652,7402.059420,1532.190996
203.177448,4293.194464,7994.224174,76.609550
203.177769,4589.276840,8364.327145,-1149.143247
203.178090,5255.462188,8512.368333,-383.047749
203.178411,6957.935855,9326.594869,0.000000
203.178732,5403.503377,10214.842000,229.828649
203.179052,2738.761985,8586.388927,-383.047749
203.179373,3701.029710,9178.553681,-1915.238745
203.179694,4071.132681,8808.450710,-842.705048
203.180015,3627.009116,8734.430116,2221.676944
203.180336,5477.523971,8882.471304,4213.525239
203.180656,4811.338623,8512.368333,1532.190996
203.180977,2516.700203,7994.224174,-1149.143247
203.181298,4515.256246,8364.327145,-76.609550
203.181619,4737.318029,8438.347739,-1762.019645
203.181939,5773.606348,8586.388927,-2221.676944
203.182260,6661.853478,9622.677246,-1378.971896
203.182581,6883.915261,8290.306550,-1225.752797
203.182902,4441.235652,7105.977043,689.485948
203.183223,6143.709319,8068.244768,842.705048
203.183543,4959.379811,9474.636058,-1762.019645
203.183864,4293.194464,8364.327145,-3447.429741
203.184185,4737.318029,8290.306550,-2834.553343
203.184506,5625.565159,7624.121203,766.095498
203.184827,5921.647536,7105.977043,2145.067394
203.185147,5995.668130,7179.997637,0.000000
203.185468,3256.906145,7476.080014,-3217.601092
203.185789,2812.782580,7920.203579,-2374.896044
203.186110,5847.626942,8882.471304,229.828649
203.186431,6143.709319,7772.162391,229.828649
203.186751,5181.441594,7846.182985,-1225.752797
203.187072,5995.668130,9918.759623,-2145.067394
203.187393,4737.318029,10288.862594,-1991.848295
203.187714,4293.194464,9104.533087,0.000000
203.188034,7105.977043,8956.491898,1608.800546
203.188355,7550.100608,9548.656652,689.485948
203.188676,3552.988522,9326.594869,536.266849
203.188997,4071.132681,7328.038826,1608.800546
203.189318,5625.565159,6069.688724,0.000000
203.189638,4737.318029,5107.421000,-689.485948
203.189959,3701.029710,5847.626942,536.266849
203.190280,4515.256246,7624.121203,153.219100
203.190601,4959.379811,9992.780217,1149.143247
203.190922,5033.400406,11177.109724,1455.581446
203.191242,5847.626942,9474.636058,-766.095498
203.191563,5551.544565,7476.080014,-1991.848295
203.191884,5033.400406,7994.224174,-689.485948
203.192205,4441.235652,8068.244768,-689.485948
203.192525,4441.235652,7105.977043,-2068.457845
203.192846,6143.709319,8438.347739,-1685.410096
203.193167,5773.606348,9696.697840,842.705048
203.193488,3404.947333,8586.388927,689.485948
203.193809,4737.318029,8142.265362,0.000000
203.194129,4885.359217,7105.977043,766.095498
203.194450,4441.235652,4737.318029,1302.362347
203.194771,3478.967927,4071.132681,1915.238745
203.195092,3849.070898,5995.668130,612.876398
203.195413,2368.659014,6661.853478,-1608.800546
203.195733,4367.215058,7550.100608,-1838.629195
203.196054,7105.977043,9622.677246,-1225.752797
203.196375,5033.400406,9104.533087,-1608.800546
203.196696,5847.626942,8438.347739,-766.095498
203.197016,6217.729913,7994.224174,-1532.190996
203.197337,3330.926739,6883.915261,-1838.629195
203.197658,3627.009116,7105.977043,0.000000
203.197979,6143.709319,9178.553681,-919.314598
203.198300,6291.750507,8586.388927,-919.314598
203.198620,5699.585753,7772.162391,766.095498
203.198941,6735.874072,7994.224174,1072.533697
203.199262,5329.482782,6957.935855,383.047749
203.199583,4367.215058,6883.915261,995.924147
203.199904,5551.544565,7402.059420,995.924147
203.200224,5625.565159,7105.977043,-306.438199
203.200545,4589.276840,7920.203579,-383.047749
203.200866,5181.441594,9474.636058,229.828649
203.201187,4811.338623,9400.615463,0.000000
203.201507,4663.297435,10066.800811,-153.219100
203.201828,7328.038826,11695.253884,-229.828649
203.202149,5625.565159,10362.883188,-1378.971896
203.202470,3182.885551,7476.080014,-612.876398
203.202791,4737.318029,5921.647536,1455.581446
203.203111,5625.565159,8364.327145,1608.800546
203.203432,6069.688724,11769.274478,2374.896044
203.203753,4885.359217,10732.986159,383.047749
203.204074,3701.029710,7920.203579,-2834.553343
203.204395,4441.235652,7624.121203,229.828649
203.204715,6217.729913,7402.059420,3753.867940
203.205036,4589.276840,7179.997637,1838.629195
203.205357,3997.112087,6661.853478,-1378.971896
203.205678,4441.235652,8734.430116,-2604.724693
203.205999,5107.421000,10066.800811,-1608.800546
203.206319,4737.318029,9178.553681,842.705048
203.206640,5477.523971,10955.047942,2068.457845
203.206961,7105.977043,12657.521608,842.705048
203.207282,3849.070898,8808.450710,-612.876398
203.207602,2442.679609,4071.132681,842.705048
203.207923,6587.832884,3404.947333,2681.334243
203.208244,4145.153275,5181.441594,2068.457845
203.208565,2072.576638,7550.100608,-1838.629195
203.208886,4219.173869,7254.018232,-3447.429741
203.209206,6587.832884,7179.997637,-306.438199
203.209527,8142.265362,6661.853478,4903.011187
203.209848,5403.503377,6365.771101,1991.848295
203.210169,2442.679609,6365.771101,-3524.039291
203.210490,3552.988522,8142.265362,-4213.525239
203.210810,5847.626942,7328.038826,-766.095498
203.211131,7105.977043,6143.709319,612.876398
203.211452,7698.141797,8586.388927,995.924147
203.211773,4293.194464,11325.150913,-229.828649
203.212093,1850.514855,10214.842000,-459.657299
203.212414,4515.256246,7402.059420,153.219100
203.212735,5995.668130,5329.482782,1685.410096
203.213056,4293.194464,3775.050304,1455.581446
203.213377,3552.988522,5477.523971,1072.533697
203.213697,3701.029710,8512.368333,-612.876398
203.214018,1924.535449,8586.388927,-2528.115143
203.214339,5255.462188,7698.141797,-2221.676944
203.214660,7105.977043,7920.203579,-766.095498
203.214981,4959.379811,9326.594869,-536.266849
203.215301,3849.070898,11251.130318,536.266849
203.215622,5847.626942,10732.986159,-1149.143247
203.215943,5921.647536,8882.471304,-2068.457845
203.216264,7328.038826,9548.656652,919.314598
203.216584,5699.585753,10066.800811,1225.752797
203.216905,3478.967927,9252.574275,-153.219100
203.217226,4293.194464,8956.491898,-306.438199
203.217547,5847.626942,7846.182985,612.876398
203.217868,4885.359217,6143.709319,919.314598
203.218188,4885.359217,6291.750507,536.266849
203.218509,3997.112087,7772.162391,-306.438199
203.218830,3775.050304,8068.244768,-459.657299
203.219151,5625.565159,8956.491898,306.438199
203.219472,6143.709319,9696.697840,-306.438199
203.219792,6735.874072,11843.295072,-842.705048
203.220113,7105.977043,12287.418637,-1378.971896
203.220434,5181.441594,9844.739029,-2221.676944
203.220755,5403.503377,6957.935855,-306.438199
203.221075,7031.956449,7920.203579,1302.362347
203.221396,4811.338623,8068.244768,153.219100
203.221717,3701.029710,8216.285956,-1455.581446
203.222038,4515.256246,7772.162391,-995.924147
203.222359,6217.729913,7550.100608,1685.410096
203.222679,6439.791695,7328.038826,2757.943793
203.223000,5551.544565,7476.080014,1838.629195
203.223321,3775.050304,7179.997637,919.314598
203.223642,3552.988522,7031.956449,2145.067394
203.223963,4885.359217,5625.565159,2298.286494
203.224283,4737.318029,5403.503377,0.000000
203.224604,4737.318029,7550.100608,-1225.752797
203.224925,4219.173869,9252.574275,-2451.505594
203.225246,5477.523971,8882.471304,-3524.039291
203.225567,5551.544565,9548.656652,-1915.238745
203.225887,5625.565159,8364.327145,-383.047749
203.226208,4737.318029,6809.894666,-1532.190996
203.226529,5033.400406,7550.100608,459.657299
203.226850,4441.235652,8882.471304,1302.362347
203.227170,4589.276840,7476.080014,1378.971896
203.227491,4959.379811,7254.018232,1838.629195
203.227812,4663.297435,6883.915261,1991.848295
203.228133,4515.256246,7105.977043,1532.190996
203.228454,3997.112087,5181.441594,-536.266849
203.228774,2072.576638,3330.926739,-2221.676944
203.229095,4441.235652,5107.421000,0.000000
203.229416,7105.977043,8512.368333,1838.629195
203.229737,4589.276840,9474.636058,536.266849
203.230058,5181.441594,10584.944971,-1685.410096
203.230378,6513.812290,11769.274478,-2911.162892
203.230699,3997.112087,9030.512492,-1608.800546
203.231020,5181.441594,7105.977043,1149.143247
203.231341,7846.182985,9770.718434,842.705048
203.231661,5699.585753,10732.986159,-689.485948
203.231982,2886.803174,8142.265362,-689.485948
203.232303,3256.906145,6217.729913,536.266849
203.232624,4737.318029,6143.709319,2834.553343
203.232945,4959.379811,7772.162391,4673.182538
203.233265,4959.379811,7624.121203,459.657299
203.233586,4145.153275,7698.141797,-2374.896044
203.233907,4293.194464,6291.750507,0.000000
203.234228,5699.585753,6217.729913,2068.457845
203.234549,5995.668130,7179.997637,0.000000
203.234869,5181.441594,11103.089130,-2757.943793
203.235190,5033.400406,12139.377449,-3064.381992
203.235511,6735.874072,10510.924376,-3447.429741
203.235832,7994.224174,9622.677246,-536.266849
203.236152,7031.956449,9770.718434,1302.362347
203.236473,5181.441594,8068.244768,-1072.533697
203.236794,3775.050304,7846.182985,-689.485948
203.237115,4737.318029,8216.285956,766.095498
203.237436,5921.647536,6365.771101,1608.800546
203.237756,6883.915261,5107.421000,1302.362347
203.238077,3849.070898,5477.523971,383.047749
203.238398,3552.988522,7994.224174,229.828649
203.238719,6143.709319,7254.018232,-229.828649
203.239040,5403.503377,5551.544565,-1685.410096
203.239360,5921.647536,7105.977043,0.000000
203.239681,5699.585753,10214.842000,689.485948
203.240002,4145.153275,11769.274478,-1455.581446
203.240323,3552.988522,10362.883188,-3677.258390
203.240643,5477.523971,10732.986159,-3600.648841
203.240964,6439.791695,10066.800811,-995.924147
203.241285,4515.256246,9474.636058,1225.752797
203.241606,2590.720797,8364.327145,-153.219100
203.241927,3256.906145,7254.018232,-1685.410096
203.242247,4441.235652,5847.626942,-1225.752797
203.242568,4441.235652,5181.441594,766.095498
203.242889,5181.441594,7624.121203,3753.867940
203.243210,4885.359217,9400.615463,3907.087040
203.243531,3923.091493,8364.327145,995.924147
203.243851,5033.400406,7105.977043,-306.438199
203.244172,5181.441594,7105.977043,-153.219100
203.244493,4367.215058,5847.626942,-919.314598
203.244814,4811.338623,5995.668130,-3447.429741
203.245135,6809.894666,8586.388927,-3524.039291
203.245455,4663.297435,9252.574275,-1685.410096
203.245776,5329.482782,9326.594869,-842.705048
203.246097,6217.729913,10955.047942,-995.924147
203.246418,5329.482782,11991.336260,-459.657299
203.246738,3478.967927,9770.718434,229.828649
203.247059,5477.523971,7402.059420,919.314598
203.247380,5847.626942,6439.791695,2834.553343
203.247701,4071.132681,6143.709319,3294.210641
203.248022,3182.885551,5995.668130,306.438199
203.248342,1628.453072,5107.421000,-2145.067394
203.248663,3775.050304,7031.956449,0.000000
203.248984,7402.059420,8364.327145,995.924147
203.249305,7031.956449,7624.121203,-153.219100
203.249626,4515.256246,7179.997637,-536.266849
203.249946,5329.482782,9178.553681,0.000000
203.250267,5625.565159,10955.047942,0.000000
203.250588,5403.503377,11103.089130,-536.266849
203.250908,7105.977043,10732.986159,-2298.286494
203.251229,7624.121203,9548.656652,-2604.724693
203.251550,5033.400406,8142.265362,-76.609550
203.251870,4515.256246,5921.647536,995.924147
203.252191,3627.009116,4219.173869,0.000000
203.252512,3701.029710,4663.297435,-459.657299
203.252832,4441.235652,6883.915261,306.438199
203.253153,4811.338623,9030.512492,306.438199
203.253473,3627.009116,8216.285956,766.095498
203.253794,4885.359217,7698.141797,1685.410096
203.254115,6661.853478,8438.347739,306.438199
203.254435,4515.256246,9104.533087,-1991.848295
203.254756,2294.638420,7624.121203,-2987.772442
203.255077,4219.173869,5995.668130,-4366.744339
203.255397,4515.256246,6957.935855,-3064.381992
203.255718,4145.153275,7624.121203,-536.266849
203.256039,3775.050304,8290.306550,-2451.505594
203.256359,6809.894666,11843.295072,-3524.039291
203.256680,4885.359217,12805.562797,-229.828649
203.257001,2368.659014,9400.615463,306.438199
203.257321,6291.750507,5921.647536,0.000000
203.257642,5773.606348,6365.771101,689.485948
203.257963,1850.514855,5847.626942,612.876398
203.258283,5921.647536,6143.709319,-919.314598
203.258604,6809.894666,7550.100608,-2298.286494
203.258925,3182.885551,6809.894666,-1302.362347
203.259245,6365.771101,7328.038826,842.705048
203.259566,8142.265362,10288.862594,536.266849
203.259886,2516.700203,10362.883188,-229.828649
203.260207,3552.988522,9548.656652,-1149.143247
203.260528,8808.450710,10362.883188,-1915.238745
203.260848,5995.668130,9326.594869,-1072.533697
203.261169,3701.029710,8882.471304,0.000000
203.261490,7179.997637,9992.780217,-2757.943793
203.261810,5329.482782,9474.636058,-3830.477490
203.262131,3552.988522,8512.368333,-153.219100
203.262452,8364.327145,9992.780217,1991.848295
203.262772,7476.080014,9622.677246,2451.505594
203.263093,3330.926739,8734.430116,3217.601092
203.263414,4515.256246,8808.450710,1378.971896
203.263734,4737.318029,9474.636058,383.047749
203.264055,3108.864956,9030.512492,2374.896044
203.264376,6587.832884,7402.059420,2221.676944
203.264696,7772.162391,5921.647536,-995.924147
203.265017,3330.926739,6957.935855,-1149.143247
203.265338,3923.091493,5995.668130,-383.047749
203.265658,4959.379811,7328.038826,383.047749
203.265979,4811.338623,9104.533087,3370.820191
203.266300,4219.173869,9326.594869,2374.896044
203.266620,5403.503377,8142.265362,-2528.115143
203.266941,3034.844362,6661.853478,-2911.162892
203.267261,3923.091493,8734.430116,0.000000
203.267582,6217.729913,9178.553681,306.438199
203.267903,4367.215058,7254.018232,-2298.286494
203.268223,2220.617826,4589.276840,-2681.334243
203.268544,5181.441594,6217.729913,-459.657299
203.268865,5625.565159,7328.038826,3217.601092
203.269185,2516.700203,6513.812290,3217.601092
203.269506,4071.132681,7254.018232,-536.266849
203.269827,4663.297435,7846.182985,-2681.334243
203.270147,4145.153275,5847.626942,153.219100
203.270468,5255.462188,4663.297435,2145.067394
203.270789,5255.462188,6513.812290,306.438199
203.271109,5107.421000,7772.162391,-1455.581446
203.271430,5107.421000,7328.038826,-2834.553343
203.271751,6661.853478,7254.018232,-1149.143247
203.272071,7105.977043,7698.141797,2068.457845
203.272392,6661.853478,9918.759623,2374.896044
203.272713,5033.400406,8882.471304,-1302.362347
203.273033,3997.112087,6365.771101,-2221.676944
203.273354,5625.565159,6513.812290,-766.095498
203.273674,7254.018232,7550.100608,1072.533697
203.273995,5181.441594,9474.636058,1149.143247
203.274316,5181.441594,11325.150913,-919.314598
203.274636,4441.235652,10658.965565,-2451.505594
203.274957,3923.091493,8364.327145,-1225.752797
203.275278,6513.812290,6957.935855,1838.629195
203.275598,5551.544565,7105.977043,2298.286494
203.275919,1776.494261,9696.697840,766.095498
203.276240,3330.926739,11991.336260,153.219100
203.276560,3775.050304,11843.295072,-919.314598
203.276881,5255.462188,11103.089130,-306.438199
203.277202,5033.400406,9474.636058,459.657299
203.277522,3034.844362,9178.553681,-919.314598
203.277843,3182.885551,9548.656652,-766.095498
203.278164,5403.503377,7698.141797,995.924147
203.278484,4811.338623,6365.771101,0.000000
203.278805,6217.729913,8290.306550,-612.876398
203.279126,5033.400406,11769.274478,-306.438199
203.279446,3849.070898,10881.027347,-1608.800546
203.279767,6513.812290,7031.956449,-1838.629195
203.280088,9178.553681,5329.482782,-995.924147
203.280408,5773.606348,4219.173869,-306.438199
203.280729,5255.462188,4515.256246,-766.095498
203.281049,6513.812290,8956.491898,-2068.457845
203.281370,6217.729913,11843.295072,-1608.800546
203.281691,7550.100608,9622.677246,-842.705048
203.282011,9326.594869,7402.059420,-383.047749
203.282332,6661.853478,6217.729913,536.266849
203.282653,2590.720797,4959.379811,2068.457845
203.282973,3849.070898,4811.338623,536.266849
203.283294,4885.359217,5477.523971,-2681.334243
203.283615,3775.050304,6957.935855,-1149.143247
203.283935,5033.400406,7920.203579,689.485948
203.284256,6513.812290,9326.594869,612.876398
203.284577,4367.215058,9548.656652,995.924147
203.284897,4737.318029,9400.615463,383.047749
203.285218,4441.235652,6587.832884,-1685.410096
203.285539,3478.967927,5921.647536,-612.876398
203.285859,4071.132681,7402.059420,1915.238745
203.286180,5773.606348,9474.636058,842.705048
203.286501,4515.256246,10066.800811,-459.657299
203.286821,4515.256246,10510.924376,-842.705048
203.287142,5551.544565,9622.677246,766.095498
203.287462,5625.565159,8216.285956,2604.724693
203.287783,3849.070898,7624.121203,3064.381992
203.288104,3034.844362,6439.791695,2451.505594
203.288424,3256.906145,6661.853478,842.705048
203.288745,4811.338623,7328.038826,459.657299
203.289066,5921.647536,9178.553681,383.047749
203.289386,5477.523971,9400.615463,153.219100
203.289707,4515.256246,8660.409521,-306.438199
203.290028,4293.194464,7920.203579,-1302.362347
203.290348,4145.153275,7624.121203,-1532.190996
203.290669,3701.029710,5995.668130,0.000000
203.290990,5625.565159,6957.935855,-612.876398
203.291310,7550.100608,11695.253884,-1072.533697
203.291631,5773.606348,13249.686362,-383.047749
203.291952,4663.297435,8956.491898,536.266849
203.292272,7772.162391,7179.997637,1685.410096
203.292593,5625.565159,5107.421000,3524.039291
203.292914,2146.597232,3330.926739,1991.848295
203.293234,4441.235652,3701.029710,-995.924147
203.293555,4589.276840,6069.688724,-1378.971896
203.293876,4737.318029,8364.327145,153.219100
203.294196,7698.141797,7994.224174,536.266849
203.294517,6587.832884,7920.203579,-1762.019645
203.294837,3552.988522,7254.018232,-459.657299
203.295158,5255.462188,7698.141797,383.047749
203.295479,5625.565159,7698.141797,-2681.334243
203.295799,4293.194464,7105.977043,-2911.162892
203.296120,5551.544565,8290.306550,-919.314598
203.296441,7254.018232,11177.109724,-229.828649
203.296761,4293.194464,10658.965565,0.000000
203.297082,2590.720797,9326.594869,-689.485948
203.297403,3997.112087,7105.977043,-1378.971896
203.297723,4515.256246,6587.832884,0.000000
203.298044,3775.050304,6587.832884,1225.752797
203.298365,3849.070898,6661.853478,76.609550
203.298685,5403.503377,8438.347739,-842.705048
203.299006,5033.400406,9844.739029,229.828649
203.299327,4367.215058,9918.759623,-229.828649
203.299647,4441.235652,9326.594869,-1378.971896
203.299968,5477.523971,9104.533087,-459.657299
203.300289,7254.018232,9474.636058,-536.266849
203.300609,7254.018232,9326.594869,-2298.286494
203.300930,4663.297435,9030.512492,-3907.087040
203.301250,5625.565159,9252.574275,-2528.115143
203.301571,7105.977043,9696.697840,689.485948
203.301892,6439.791695,9992.780217,2145.067394
203.302212,5329.482782,8512.368333,766.095498
203.302533,4885.359217,6513.812290,-995.924147
203.302854,4885.359217,6809.894666,-689.485948
203.303174,5921.647536,8808.450710,2757.943793
203.303495,3923.091493,7994.224174,2068.457845
203.303816,6069.688724,8660.409521,-306.438199
203.304136,6513.812290,9918.759623,0.000000
203.304457,4663.297435,8808.450710,1685.410096
203.304778,3775.050304,6217.729913,383.047749
203.305098,5107.421000,5625.565159,-995.924147
203.305419,4589.276840,7031.956449,-1225.752797
203.305740,6291.750507,8438.347739,-689.485948
203.306060,6439.791695,8882.471304,-1378.971896
203.306381,3701.029710,8068.244768,-1455.581446
203.306702,5107.421000,8290.306550,1455.581446
203.307022,5477.523971,8216.285956,2145.067394
203.307343,2368.659014,5625.565159,-612.876398
203.307664,3849.070898,4737.318029,-153.219100
203.307984,6957.935855,6809.894666,689.485948
203.308305,5107.421000,7624.121203,76.609550
203.308625,1702.473667,6587.832884,1072.533697
203.308946,5773.606348,7624.121203,1149.143247
203.309267,6513.812290,7846.182985,1378.971896
203.309587,4367.215058,6291.750507,2681.334243
203.309908,3997.112087,5255.462188,383.047749
203.310229,4885.359217,6957.935855,-2451.505594
203.310549,3997.112087,8290.306550,-1302.362347
203.310870,5699.585753,9104.533087,-612.876398
203.311191,7105.977043,8660.409521,-1762.019645
203.311511,4811.338623,9400.615463,-842.705048
203.311832,3108.864956,9030.512492,1149.143247
203.312153,4293.194464,7994.224174,1455.581446
203.312473,4515.256246,8364.327145,536.266849
203.312794,3552.988522,7402.059420,383.047749
203.313115,4589.276840,8512.368333,-1378.971896
203.313435,5773.606348,9104.533087,612.876398
203.313756,2664.741391,7624.121203,1838.629195
203.314077,5921.647536,7105.977043,536.266849
203.314397,7179.997637,8734.430116,-1302.362347
203.314718,5625.565159,9178.553681,0.000000
203.315038,6661.853478,9104.533087,919.314598
203.315359,8512.368333,9918.759623,1838.629195
203.315680,5255.462188,8216.285956,1532.190996
203.316000,5773.606348,8882.471304,306.438199
203.316321,6439.791695,9178.553681,-1225.752797
203.316642,2738.761985,7031.956449,-2221.676944
203.316962,4737.318029,5995.668130,-1762.019645
203.317283,7105.977043,7031.956449,-1378.971896
203.317604,4885.359217,8808.450710,-1225.752797
203.317924,3182.885551,9178.553681,306.438199
203.318245,5181.441594,10510.924376,-842.705048
203.318566,4515.256246,10807.006753,-229.828649
203.318886,3775.050304,9918.759623,1838.629195
203.319207,4885.359217,7476.080014,612.876398
203.319528,3849.070898,6291.750507,-1532.190996
203.319848,2368.659014,6735.874072,153.219100
203.320169,3182.885551,7624.121203,-1532.190996
203.320490,4663.297435,8068.244768,-2834.553343
203.320810,4737.318029,9252.574275,-153.219100
203.321131,5625.565159,10807.006753,1762.019645
203.321452,5921.647536,9918.759623,1762.019645
203.321772,3330.926739,6439.791695,-306.438199
203.322093,3478.967927,4441.235652,-919.314598
203.322413,6365.771101,6439.791695,-76.609550
203.322734,5255.462188,8438.347739,-689.485948
203.323055,4219.173869,8734.430116,-3064.381992
203.323375,6809.894666,9844.739029,-3677.258390
203.323696,6439.791695,9474.636058,-383.047749
203.324017,3627.009116,7698.141797,2374.896044
203.324337,5699.585753,6217.729913,1532.190996
203.324658,5995.668130,8512.368333,-1149.143247
203.324979,3701.029710,8734.430116,-1762.019645
203.325299,5625.565159,8364.327145,-383.047749
203.325620,8660.409521,8364.327145,536.266849
203.325941,7402.059420,8438.347739,1302.362347
203.326261,6883.915261,9622.677246,919.314598
203.326582,3404.947333,6217.729913,-383.047749
203.326903,1998.556043,3478.967927,-842.705048
203.327223,5921.647536,6143.709319,1608.800546
203.327544,6439.791695,8734.430116,2068.457845
203.327865,3923.091493,9178.553681,-919.314598
203.328185,6143.709319,10955.047942,-1838.629195
203.328506,5921.647536,11177.109724,-1608.800546
203.328826,3552.988522,8734.430116,229.828649
203.329147,5181.441594,6513.812290,2374.896044
203.329468,5329.482782,6735.874072,919.314598
203.329788,2812.782580,7105.977043,1225.752797
203.330109,3404.947333,9178.553681,842.705048
203.330430,4885.359217,10362.883188,-1838.629195
203.330750,2960.823768,9326.594869,0.000000
203.331071,4515.256246,8956.491898,2987.772442
203.331392,6217.729913,8142.265362,919.314598
203.331712,2664.741391,5625.565159,-383.047749
203.332033,2368.659014,3478.967927,229.828649
203.332354,5625.565159,5551.544565,1072.533697
203.332674,4811.338623,8364.327145,842.705048
203.332995,3552.988522,9770.718434,-459.657299
203.333316,5921.647536,9178.553681,-3753.867940
203.333636,6809.894666,8956.491898,-3064.381992
203.333957,4959.379811,7994.224174,1685.410096
203.334278,5699.585753,6069.688724,1302.362347
203.334598,6513.812290,6735.874072,-2451.505594
203.334919,4737.318029,8512.368333,-2757.943793
203.335240,4145.153275,7550.100608,-995.924147
203.335560,6587.832884,6735.874072,229.828649
203.335881,6365.771101,7105.977043,1762.019645
203.336201,5773.606348,7476.080014,1225.752797
203.336522,5995.668130,8734.430116,-2451.505594
203.336843,3330.926739,7105.977043,-3294.210641
203.337163,2590.720797,5699.585753,0.000000
203.337484,7328.038826,6291.750507,2451.505594
203.337805,6883.915261,8512.368333,76.609550
203.338125,3478.967927,9548.656652,-3524.039291
203.338446,4737.318029,11547.212695,-4060.306139
203.338767,7476.080014,12805.562797,-1532.190996
203.339087,5329.482782,9622.677246,1838.629195
203.339408,5773.606348,7624.121203,2911.162892
203.339729,6365.771101,8586.388927,1762.019645
203.340049,3478.967927,9474.636058,1608.800546
203.340370,1776.494261,8956.491898,1072.533697
203.340691,4441.235652,8216.285956,-842.705048
203.341011,5181.441594,7550.100608,-459.657299
203.341332,5107.421000,7994.224174,995.924147
203.341653,5181.441594,8660.409521,766.095498
203.341973,3701.029710,8512.368333,-459.657299
203.342294,2368.659014,6735.874072,-229.828649
203.342614,4293.194464,6883.915261,383.047749
203.342935,4515.256246,8660.409521,1455.581446
203.343256,5329.482782,11843.295072,-536.266849
203.343576,6217.729913,11917.315666,-3753.867940
203.343897,6069.688724,11103.089130,-4213.525239
203.344218,4811.338623,8808.450710,-1149.143247
203.344538,5329.482782,7031.956449,1532.190996
203.344859,5995.668130,6291.750507,1378.971896
203.345180,2960.823768,6439.791695,-536.266849
203.345500,3330.926739,6143.709319,-1455.581446
203.345821,3849.070898,5403.503377,-612.876398
203.346142,5477.523971,6291.750507,1302.362347
203.346462,6809.894666,7550.100608,3217.601092
203.346783,5107.421000,6957.935855,-919.314598
203.347104,4663.297435,5773.606348,-4213.525239
203.347424,5181.441594,7550.100608,-2604.724693
203.347745,5625.565159,6439.791695,-383.047749
203.348066,5773.606348,5773.606348,-306.438199
203.348386,7994.224174,8586.388927,-1455.581446
203.348707,5625.565159,10584.944971,-2834.553343
203.349028,5329.482782,9474.636058,-1455.581446
203.349348,6365.771101,8142.265362,0.000000
203.349669,4663.297435,6365.771101,689.485948
203.349989,4885.359217,6365.771101,689.485948
203.350310,4737.318029,7105.977043,-1225.752797
203.350631,3034.844362,7698.141797,-689.485948
203.350951,5181.441594,9178.553681,3447.429741
203.351272,6809.894666,9696.697840,3600.648841
203.351593,2886.803174,7254.018232,-1455.581446
203.351913,1332.370696,7105.977043,-2451.505594
203.352234,5477.523971,8734.430116,-1072.533697
203.352555,5181.441594,8216.285956,766.095498
203.352875,4589.276840,8438.347739,1838.629195
203.353196,5329.482782,10214.842000,-1225.752797
203.353517,2960.823768,12361.439231,-4443.353888
203.353837,2368.659014,12879.583391,-1915.238745
203.354158,5995.668130,11547.212695,1149.143247
203.354479,8512.368333,9104.533087,612.876398
203.354799,4441.235652,6069.688724,0.000000
203.355120,3849.070898,5921.647536,612.876398
203.355441,2886.803174,7402.059420,1378.971896
203.355762,4441.235652,9474.636058,3370.820191
203.356082,5329.482782,7846.182985,1838.629195
203.356403,6291.750507,6587.832884,-1685.410096
203.356724,6069.688724,6883.915261,-459.657299
203.357044,3775.050304,6513.812290,1225.752797
203.357365,6143.709319,6587.832884,0.000000
203.357686,8290.306550,9252.574275,-1915.238745
203.358006,5477.523971,9030.512492,-3830.477490
203.358327,5773.606348,8290.306550,-2834.553343
203.358648,8438.347739,9326.594869,-306.438199
203.358968,6587.832884,9844.739029,1685.410096
203.359289,5625.565159,8660.409521,995.924147
203.359610,5773.606348,7476.080014,-2145.067394
203.359930,3701.029710,6735.874072,-2145.067394
203.360251,3775.050304,7105.977043,2987.772442
203.360572,4885.359217,6143.709319,3753.867940
203.360893,5033.400406,7624.121203,2911.162892
203.361213,4367.215058,10214.842000,2451.505594
203.361534,3108.864956,8290.306550,229.828649
203.361855,4071.132681,4811.338623,0.000000
203.362175,3775.050304,4589.276840,2451.505594
203.362496,3404.947333,6957.935855,2298.286494
203.362817,4219.173869,8660.409521,-76.609550
203.363137,4885.359217,10807.006753,-2145.067394
203.363458,4811.338623,10807.006753,-3064.381992
203.363779,5699.585753,9770.718434,-1149.143247
203.364099,4737.318029,8882.471304,1149.143247
203.364420,4737.318029,8882.471304,1608.800546
203.364741,5255.462188,8956.491898,536.266849
203.365061,3478.967927,6513.812290,-1378.971896
203.365382,3108.864956,3256.906145,-1838.629195
203.365703,5255.462188,4589.276840,1149.143247
203.366024,4885.359217,7402.059420,3600.648841
203.366344,4367.215058,7994.224174,995.924147
203.366665,4737.318029,7698.141797,-2451.505594
203.366986,5255.462188,5699.585753,-1838.629195
203.367306,4959.379811,5699.585753,842.705048
203.367627,5033.400406,7994.224174,995.924147
203.367948,5921.647536,9992.780217,-3064.381992
203.368268,4515.256246,8216.285956,-6281.983084
203.368589,6809.894666,7772.162391,-4290.134789
203.368910,7105.977043,8364.327145,-536.266849
203.369230,4367.215058,8216.285956,1378.971896
203.369551,4959.379811,9326.594869,0.000000
203.369872,5255.462188,9844.739029,-2451.505594
203.370192,3478.967927,8068.244768,-689.485948
203.370513,5033.400406,5847.626942,2374.896044
203.370834,5329.482782,5107.421000,2068.457845
203.371155,3775.050304,6217.729913,459.657299
203.371475,3256.906145,9252.574275,-1991.848295
203.371796,4811.338623,9770.718434,-5209.449386
203.372117,5995.668130,8808.450710,-3064.381992
203.372437,7920.203579,8808.450710,1991.848295
203.372758,7994.224174,10214.842000,2451.505594
203.373079,4737.318029,11177.109724,-383.047749
203.373399,3478.967927,12065.356855,-3064.381992
203.373720,4219.173869,11103.089130,-3983.696590
203.374041,5329.482782,8956.491898,-2221.676944
203.374361,6143.709319,8068.244768,0.000000
203.374682,6217.729913,8808.450710,229.828649
203.375003,4885.359217,10584.944971,-1532.190996
203.375323,3923.091493,9696.697840,-1225.752797
203.375644,3552.988522,7624.121203,306.438199
203.375965,5995.668130,7031.956449,3140.991542
203.376286,6661.853478,8512.368333,4903.011187
203.376606,4219.173869,9696.697840,2298.286494
203.376927,3627.009116,10288.862594,-1378.971896
203.377248,5477.523971,8512.368333,-1378.971896
203.377568,5107.421000,7550.100608,-995.924147
203.377889,5255.462188,7698.141797,459.657299
203.378210,4811.338623,8142.265362,-1762.019645
203.378530,3182.885551,7846.182985,-4366.744339
203.378851,3775.050304,7550.100608,-2068.457845
203.379172,4663.297435,7698.141797,766.095498
203.379492,6735.874072,8364.327145,1838.629195
203.379813,6143.709319,9474.636058,2298.286494
203.380134,2886.803174,8438.347739,0.000000
203.380454,4145.153275,6809.894666,-612.876398
203.380775,5847.626942,5403.503377,-612.876398
203.381096,4663.297435,2590.720797,459.657299
203.381417,5551.544565,3034.844362,1915.238745
203.381737,7550.100608,7402.059420,153.219100
203.382058,3997.112087,7698.141797,-1838.629195
203.382379,4515.256246,6735.874072,306.438199
203.382699,7920.203579,7254.018232,3294.210641
203.383020,6809.894666,7920.203579,4519.963438
203.383341,4441.235652,7846.182985,2298.286494
203.383661,5329.482782,7994.224174,-2451.505594
203.383982,4515.256246,6143.709319,-4290.134789
203.384303,3108.864956,4145.153275,-229.828649
203.384623,6365.771101,5847.626942,1685.410096
203.384944,3775.050304,7476.080014,-612.876398
203.385265,1332.370696,8882.471304,-1302.362347
203.385585,4367.215058,9696.697840,1532.190996
203.385906,6365.771101,9178.553681,3370.820191
203.386227,5033.400406,8216.285956,4366.744339
203.386548,4737.318029,8364.327145,3140.991542
203.386868,4663.297435,8216.285956,0.000000
203.387189,3108.864956,7476.080014,-2374.896044
203.387510,5625.565159,7105.977043,-612.876398
203.387830,5847.626942,6069.688724,0.000000
203.388151,7031.956449,8290.306550,-919.314598
203.388472,4959.379811,9474.636058,-1762.019645
203.388792,4663.297435,9400.615463,-2757.943793
203.389113,6513.812290,9400.615463,76.609550
203.389434,7846.182985,9696.697840,2528.115143
203.389754,5773.606348,8586.388927,1378.971896
203.390075,6069.688724,9474.636058,153.219100
203.390396,4959.379811,10881.027347,-1838.629195
203.390716,3404.947333,7920.203579,-1685.410096
203.391037,4737.318029,5477.523971,1225.752797
203.391358,5329.482782,6439.791695,1685.410096
203.391678,3034.844362,7550.100608,689.485948
203.391999,2442.679609,8734.430116,-306.438199
203.392320,3923.091493,8956.491898,-1455.581446
203.392641,5773.606348,10066.800811,-229.828649
203.392961,5625.565159,9918.759623,2374.896044
203.393282,4219.173869,9622.677246,995.924147
203.393603,4885.359217,10436.903782,-2374.896044
203.393923,2590.720797,10881.027347,-2757.943793
203.394244,1332.370696,7179.997637,-2604.724693
203.394565,3478.967927,3923.091493,-2528.115143
203.394885,5625.565159,6143.709319,-1455.581446
203.395206,4515.256246,8512.368333,-1225.752797
203.395527,4293.194464,9474.636058,-2604.724693
203.395847,5921.647536,10658.965565,-1378.971896
203.396168,7105.977043,9104.533087,2145.067394
203.396489,6809.894666,6661.853478,3064.381992
203.396809,7920.203579,5921.647536,689.485948
203.397130,4515.256246,5551.544565,-2221.676944
203.397451,3923.091493,4885.359217,-1915.238745
203.397772,9326.594869,5921.647536,-1685.410096
203.398092,8142.265362,6957.935855,-2374.896044
203.398413,4737.318029,7031.956449,-3370.820191
203.398734,6661.853478,7105.977043,-3294.210641
203.399054,7105.977043,8734.430116,-2911.162892
203.399375,3923.091493,8438.347739,-229.828649
203.399696,6217.729913,7920.203579,919.314598
203.400016,8438.347739,9548.656652,-919.314598
203.400337,4737.318029,10807.006753,-766.095498
203.400658,3330.926739,10881.027347,0.000000
203.400978,5625.565159,8808.450710,-1149.143247
203.401299,4589.276840,6513.812290,-766.095498
203.401620,2960.823768,4071.132681,919.314598
203.401940,3256.906145,4885.359217,-229.828649
203.402261,3034.844362,7179.997637,-1072.533697
203.402582,2220.617826,9992.780217,536.266849
203.402903,5995.668130,11473.192101,1072.533697
