#time,accel_x,accel_y,accel_z
544.581933,4959.379811,7994.224174,-229.828649
544.582254,4811.338623,7994.224174,-229.828649
544.582575,5255.462188,7994.224174,-153.219100
544.582895,4885.359217,7698.141797,0.000000
544.583216,4811.338623,8142.265362,0.000000
544.583536,4959.379811,7920.203579,-229.828649
544.583857,5033.400406,7994.224174,-153.219100
544.584178,4959.379811,8216.285956,-459.657299
544.584498,4737.318029,8068.244768,0.000000
544.584819,4885.359217,8142.265362,0.000000
544.585139,4737.318029,7994.224174,0.000000
544.585460,4885.359217,7698.141797,0.000000
544.585781,5477.523971,8068.244768,-383.047749
544.586101,4737.318029,8068.244768,-153.219100
544.586422,5033.400406,7920.203579,-229.828649
544.586742,4811.338623,8068.244768,-153.219100
544.587063,5033.400406,7698.141797,459.657299
544.587383,5033.400406,8068.244768,-459.657299
544.587704,4737.318029,8290.306550,0.000000
544.588025,4737.318029,8142.265362,0.000000
544.588345,5033.400406,8142.265362,-153.219100
544.588666,4959.379811,7994.224174,-76.609550
544.588986,4959.379811,8068.244768,-459.657299
544.589307,4811.338623,8068.244768,-306.438199
544.589628,4959.379811,8142.265362,-153.219100
544.589948,4811.338623,8142.265362,0.000000
544.590269,5107.421000,7994.224174,229.828649
544.590589,5181.441594,7846.182985,-153.219100
544.590910,5181.441594,7994.224174,0.000000
544.591231,4959.379811,8142.265362,0.000000
544.591551,4885.359217,8068.244768,0.000000
544.591872,4885.359217,7994.224174,306.438199
544.592192,4737.318029,8068.244768,-306.438199
544.592513,4811.338623,7624.121203,-383.047749
544.592834,4441.235652,7105.977043,-229.828649
544.593154,4293.194464,7994.224174,0.000000
544.593475,4367.215058,8808.450710,-536.266849
544.593795,4737.318029,9696.697840,-919.314598
544.594116,4663.297435,9696.697840,-1455.581446
544.594437,4515.256246,9178.553681,-919.314598
544.594757,3997.112087,8882.471304,-383.047749
544.595078,3256.906145,8808.450710,689.485948
544.595398,2960.823768,8956.491898,919.314598
544.595719,2886.803174,9252.574275,383.047749
544.596039,2738.761985,8808.450710,-383.047749
544.596360,3108.864956,7772.162391,-306.438199
544.596681,3256.906145,8438.347739,0.000000
544.597001,2960.823768,9326.594869,76.609550
544.597322,2886.803174,9400.615463,229.828649
544.597642,2516.700203,8956.491898,229.828649
544.597963,2590.720797,8808.450710,229.828649
544.598284,2442.679609,10140.821405,0.000000
544.598604,2220.617826,11547.212695,-1302.362347
544.598925,1628.453072,11917.315666,-1455.581446
544.599245,1332.370696,11621.233289,-1685.410096
544.599566,740.205942,11399.171507,-1455.581446
544.599887,0.000000,11547.212695,-1302.362347
544.600207,-888.247130,11769.274478,-766.095498
544.600528,-1628.453072,12731.542202,0.000000
544.600848,-1998.556043,12953.603985,536.266849
544.601169,-1998.556043,12287.418637,1149.143247
544.601490,-1332.370696,11695.253884,1991.848295
544.601810,-1628.453072,12065.356855,1838.629195
544.602131,-2368.659014,11843.295072,1225.752797
544.602451,-2812.782580,11029.068536,-306.438199
544.602772,-1850.514855,10066.800811,-842.705048
544.603092,-1110.308913,9844.739029,229.828649
544.603413,-444.123565,10066.800811,1149.143247
544.603734,0.000000,11103.089130,306.438199
544.604054,74.020594,11695.253884,-842.705048
544.604375,888.247130,11917.315666,-1302.362347
544.604695,1924.535449,11177.109724,-1072.533697
544.605016,2368.659014,10510.924376,-153.219100
544.605337,3256.906145,9992.780217,153.219100
544.605657,2590.720797,9696.697840,-1149.143247
544.605978,2072.576638,9474.636058,-2757.943793
544.606298,1776.494261,9178.553681,-2068.457845
544.606619,2220.617826,9548.656652,-536.266849
544.606940,2294.638420,9770.718434,0.000000
544.607260,2146.597232,10066.800811,0.000000
544.607581,1110.308913,10807.006753,0.000000
544.607901,370.102971,10955.047942,0.000000
544.608222,0.000000,10584.944971,-76.609550
544.608543,0.000000,9770.718434,229.828649
544.608863,0.000000,9696.697840,842.705048
544.609184,0.000000,10362.883188,1302.362347
544.609504,-592.164754,10658.965565,1072.533697
544.609825,-888.247130,10881.027347,612.876398
544.610146,370.102971,10955.047942,1149.143247
544.610466,1110.308913,11473.192101,612.876398
544.610787,1184.329507,11177.109724,-612.876398
544.611107,1406.391290,10807.006753,-1072.533697
544.611428,1554.432478,10362.883188,-1225.752797
544.611748,1628.453072,9622.677246,-459.657299
544.612069,1406.391290,9030.512492,306.438199
544.612390,1776.494261,8216.285956,689.485948
544.612710,2072.576638,8882.471304,612.876398
544.613031,2294.638420,10140.821405,153.219100
544.613351,2368.659014,10140.821405,-306.438199
544.613672,2516.700203,10214.842000,-689.485948
544.613993,3775.050304,9844.739029,-1455.581446
544.614313,3552.988522,9770.718434,-1378.971896
544.614634,3627.009116,9770.718434,-1149.143247
544.614954,2960.823768,10066.800811,-1225.752797
544.615275,1998.556043,10807.006753,-306.438199
544.615596,1480.411884,11547.212695,0.000000
544.615916,1036.288319,11473.192101,-536.266849
544.616237,592.164754,11251.130318,-1532.190996
544.616557,0.000000,10362.883188,-1762.019645
544.616878,-1554.432478,9770.718434,-1838.629195
544.617199,-1850.514855,8808.450710,153.219100
544.617519,-1258.350101,9622.677246,1915.238745
544.617840,-666.185348,11473.192101,2451.505594
544.618160,-222.061783,13027.624579,2298.286494
544.618481,0.000000,13693.809927,995.924147
544.618801,296.082377,13397.727550,76.609550
544.619122,1332.370696,11843.295072,-153.219100
544.619443,1554.432478,10288.862594,-306.438199
544.619763,1258.350101,9252.574275,-612.876398
544.620084,0.000000,9178.553681,-1532.190996
544.620404,-962.267725,9844.739029,-2221.676944
544.620725,-1924.535449,10510.924376,-2068.457845
544.621046,-2072.576638,11843.295072,-1378.971896
544.621366,-518.144159,12509.480420,-229.828649
544.621687,814.226536,13397.727550,536.266849
544.622007,740.205942,14063.912898,383.047749
544.622328,-296.082377,13767.830521,0.000000
544.622649,-444.123565,13175.665768,-536.266849
544.622969,296.082377,11917.315666,-383.047749
544.623290,592.164754,8956.491898,-612.876398
544.623610,1554.432478,7105.977043,-383.047749
544.623931,2146.597232,8068.244768,229.828649
544.624252,296.082377,10658.965565,383.047749
544.624572,148.041188,11177.109724,919.314598
544.624893,592.164754,10584.944971,842.705048
544.625213,962.267725,9030.512492,383.047749
544.625534,1850.514855,7772.162391,76.609550
544.625855,1406.391290,9030.512492,0.000000
544.626175,1036.288319,11547.212695,-1608.800546
544.626496,74.020594,13027.624579,-2451.505594
544.626816,518.144159,13175.665768,-2451.505594
544.627137,1332.370696,13027.624579,-1762.019645
544.627457,962.267725,13323.706956,0.000000
544.627778,0.000000,12583.501014,1072.533697
544.628099,592.164754,11621.233289,1149.143247
544.628419,0.000000,10214.842000,1072.533697
544.628740,-370.102971,9104.533087,1378.971896
544.629060,-666.185348,7624.121203,995.924147
544.629381,-1110.308913,7846.182985,2068.457845
544.629702,-888.247130,8808.450710,1685.410096
544.630022,296.082377,8956.491898,459.657299
544.630343,1628.453072,9992.780217,-766.095498
544.630663,2146.597232,12213.398043,-612.876398
544.630984,2072.576638,13545.768739,-153.219100
544.631305,1924.535449,11991.336260,-995.924147
544.631625,2442.679609,9252.574275,-2374.896044
544.631946,2368.659014,7698.141797,-1915.238745
544.632266,2294.638420,9474.636058,153.219100
544.632587,1480.411884,11695.253884,383.047749
544.632908,1184.329507,13619.789333,-766.095498
544.633228,592.164754,12731.542202,-2298.286494
544.633549,740.205942,9992.780217,-1762.019645
544.633869,-592.164754,7179.997637,-459.657299
544.634190,-814.226536,7328.038826,153.219100
544.634510,-1332.370696,9474.636058,536.266849
544.634831,-1480.411884,11843.295072,383.047749
544.635152,-962.267725,14285.974681,76.609550
544.635472,-740.205942,14730.098246,689.485948
544.635793,-1258.350101,14359.995275,383.047749
544.636113,-518.144159,14211.954086,536.266849
544.636434,-1258.350101,12509.480420,-153.219100
544.636755,-2220.617826,10807.006753,-766.095498
544.637075,370.102971,9474.636058,0.000000
544.637396,0.000000,9548.656652,1149.143247
544.637716,-1332.370696,8956.491898,995.924147
544.638037,1036.288319,9252.574275,1302.362347
544.638358,2072.576638,10436.903782,919.314598
544.638678,1628.453072,11029.068536,-383.047749
544.638999,3701.029710,11769.274478,-995.924147
544.639319,5625.565159,12065.356855,-919.314598
544.639640,4145.153275,10955.047942,-842.705048
544.639961,2368.659014,8586.388927,-1455.581446
544.640281,1036.288319,6513.812290,-3983.696590
544.640602,814.226536,7254.018232,-2451.505594
544.640922,2886.803174,11769.274478,1838.629195
544.641243,2294.638420,14359.995275,919.314598
544.641563,1702.473667,13693.809927,-2528.115143
544.641884,1036.288319,12435.459826,-2604.724693
544.642204,-1702.473667,10436.903782,-383.047749
544.642525,-3108.864956,8660.409521,1378.971896
544.642845,-1702.473667,8512.368333,1302.362347
544.643165,-1258.350101,10807.006753,-153.219100
544.643486,-592.164754,13619.789333,-1072.533697
544.643806,-1110.308913,14952.160028,-766.095498
544.644127,-2220.617826,13249.686362,-842.705048
544.644447,-666.185348,11251.130318,2145.067394
544.644768,666.185348,10955.047942,5132.839837
544.645088,-74.020594,10066.800811,2374.896044
544.645408,-1554.432478,9400.615463,-536.266849
544.645729,0.000000,9770.718434,-306.438199
544.646049,370.102971,9622.677246,612.876398
544.646370,2146.597232,7476.080014,1455.581446
544.646690,3775.050304,7179.997637,689.485948
544.647011,4589.276840,9474.636058,-995.924147
544.647331,3701.029710,12583.501014,-1608.800546
544.647651,3182.885551,12805.562797,-1915.238745
544.647972,4071.132681,10510.924376,-1762.019645
544.648292,4959.379811,9104.533087,-1149.143247
544.648613,3330.926739,7846.182985,-536.266849
544.648933,1554.432478,7698.141797,-1532.190996
544.649254,814.226536,9548.656652,-1378.971896
544.649574,-296.082377,12361.439231,-1762.019645
544.649895,222.061783,12213.398043,-2374.896044
544.650215,1184.329507,9992.780217,-2068.457845
544.650535,222.061783,9474.636058,536.266849
544.650856,-962.267725,10510.924376,2374.896044
544.651176,-1554.432478,12213.398043,3217.601092
544.651497,-2664.741391,12879.583391,1455.581446
544.651817,-2442.679609,12065.356855,0.000000
544.652138,-1480.411884,11029.068536,0.000000
544.652458,518.144159,11103.089130,383.047749
544.652778,1036.288319,12213.398043,1838.629195
544.653099,518.144159,12879.583391,1685.410096
544.653419,-740.205942,10807.006753,-153.219100
544.653740,666.185348,7920.203579,0.000000
544.654060,1406.391290,7920.203579,1378.971896
544.654381,2886.803174,9474.636058,1532.190996
544.654701,3182.885551,8882.471304,689.485948
544.655021,5403.503377,8290.306550,-689.485948
544.655342,6291.750507,7402.059420,-766.095498
544.655662,5921.647536,7846.182985,-1378.971896
544.655983,6809.894666,7698.141797,-1455.581446
544.656303,6735.874072,7402.059420,-2221.676944
544.656624,5921.647536,7328.038826,-2451.505594
544.656944,7105.977043,7624.121203,-2374.896044
544.657264,7179.997637,9252.574275,-2834.553343
544.657585,5181.441594,10362.883188,-3524.039291
544.657905,3404.947333,10955.047942,-1838.629195
544.658226,2960.823768,10881.027347,-1302.362347
544.658546,2072.576638,9104.533087,-1685.410096
544.658867,1184.329507,7772.162391,153.219100
544.659187,1480.411884,10436.903782,1762.019645
544.659507,0.000000,13323.706956,3064.381992
544.659828,-2220.617826,11621.233289,2221.676944
544.660148,592.164754,9030.512492,536.266849
544.660469,1924.535449,7846.182985,2528.115143
544.660789,962.267725,9030.512492,5209.449386
544.661110,592.164754,10140.821405,4213.525239
544.661430,1332.370696,9696.697840,536.266849
544.661750,3108.864956,7476.080014,-459.657299
544.662071,5699.585753,5625.565159,1685.410096
544.662391,6809.894666,5477.523971,1455.581446
544.662712,6513.812290,6513.812290,-766.095498
544.663032,6735.874072,7031.956449,-2221.676944
544.663353,9548.656652,8216.285956,-2068.457845
544.663673,11473.192101,7550.100608,-995.924147
544.663993,11399.171507,7105.977043,-1225.752797
544.664314,13101.645173,7328.038826,-2221.676944
544.664634,9696.697840,6957.935855,-2987.772442
544.664955,7624.121203,4959.379811,-2681.334243
544.665275,9770.718434,3701.029710,-1378.971896
544.665596,8808.450710,3849.070898,-1225.752797
544.665916,7105.977043,4219.173869,-1762.019645
544.666236,7772.162391,6587.832884,-1225.752797
544.666557,4737.318029,7402.059420,-919.314598
544.666877,3849.070898,6883.915261,-919.314598
544.667198,5847.626942,7328.038826,995.924147
544.667518,4145.153275,7846.182985,2451.505594
544.667839,2146.597232,8438.347739,2757.943793
544.668159,3182.885551,8956.491898,1378.971896
544.668479,1628.453072,9178.553681,-2298.286494
544.668800,962.267725,10288.862594,-842.705048
544.669120,2738.761985,11621.233289,1915.238745
544.669441,2812.782580,10214.842000,1532.190996
544.669761,2664.741391,8734.430116,766.095498
544.670082,3108.864956,9252.574275,383.047749
544.670402,1332.370696,8512.368333,-766.095498
544.670722,1776.494261,7624.121203,1378.971896
544.671043,4737.318029,8290.306550,2451.505594
544.671363,7105.977043,7920.203579,995.924147
544.671684,6439.791695,6957.935855,-536.266849
544.672004,7105.977043,7254.018232,-1378.971896
544.672325,6291.750507,7105.977043,-3294.210641
544.672645,7105.977043,8512.368333,-2451.505594
544.672965,8068.244768,7994.224174,-2681.334243
544.673286,9844.739029,6809.894666,-2911.162892
544.673606,9104.533087,6809.894666,-1915.238745
544.673927,7254.018232,8586.388927,-1455.581446
544.674247,5699.585753,9548.656652,-2834.553343
544.674568,5477.523971,10140.821405,-2451.505594
544.674888,5773.606348,8660.409521,-1378.971896
544.675208,6365.771101,7994.224174,-612.876398
544.675529,4885.359217,6365.771101,-306.438199
544.675849,2368.659014,6587.832884,76.609550
544.676170,2146.597232,7550.100608,1149.143247
544.676490,1776.494261,8290.306550,1149.143247
544.676811,2072.576638,8216.285956,842.705048
544.677131,3256.906145,9474.636058,0.000000
544.677451,2146.597232,11103.089130,0.000000
544.677772,1258.350101,11621.233289,153.219100
544.678092,2664.741391,9696.697840,536.266849
544.678413,2368.659014,9178.553681,0.000000
544.678733,3923.091493,8438.347739,919.314598
544.679054,4367.215058,9696.697840,919.314598
544.679374,3256.906145,10140.821405,0.000000
544.679694,3552.988522,10436.903782,306.438199
544.680015,6439.791695,9474.636058,536.266849
544.680335,6661.853478,5181.441594,383.047749
544.680656,8142.265362,3997.112087,612.876398
544.680976,6883.915261,4811.338623,229.828649
544.681297,5995.668130,5995.668130,-1302.362347
544.681617,7772.162391,5921.647536,-1532.190996
544.681937,10214.842000,4959.379811,-1532.190996
544.682258,10584.944971,5847.626942,-1532.190996
544.682578,10288.862594,7550.100608,536.266849
544.682899,8068.244768,7994.224174,-1072.533697
544.683219,7624.121203,7772.162391,-3447.429741
544.683540,7254.018232,7179.997637,-2681.334243
544.683860,7179.997637,6661.853478,-1762.019645
544.684180,6809.894666,6957.935855,-612.876398
544.684501,6661.853478,8290.306550,842.705048
544.684821,4219.173869,8512.368333,689.485948
544.685142,2294.638420,7846.182985,383.047749
544.685462,2738.761985,7105.977043,689.485948
544.685783,2886.803174,7254.018232,1915.238745
544.686103,2368.659014,7550.100608,2757.943793
544.686423,1924.535449,8882.471304,2145.067394
544.686744,2368.659014,9252.574275,1532.190996
544.687064,1924.535449,8068.244768,1072.533697
544.687385,4071.132681,7994.224174,1608.800546
544.687705,4145.153275,8216.285956,1532.190996
544.688026,3923.091493,8808.450710,536.266849
544.688346,4441.235652,8364.327145,229.828649
544.688666,6513.812290,8068.244768,-229.828649
544.688987,6365.771101,7920.203579,536.266849
544.689307,6735.874072,6957.935855,0.000000
544.689628,6809.894666,6587.832884,-1378.971896
544.689948,7254.018232,7105.977043,-1915.238745
544.690269,7550.100608,8290.306550,-1149.143247
544.690589,7698.141797,8734.430116,-1378.971896
544.690909,6809.894666,6957.935855,-2221.676944
544.691230,5847.626942,6513.812290,-1991.848295
544.691550,6439.791695,8660.409521,76.609550
544.691871,4145.153275,8586.388927,689.485948
544.692191,3182.885551,7328.038826,-689.485948
544.692512,5551.544565,6661.853478,-536.266849
544.692832,4219.173869,7105.977043,536.266849
544.693152,3478.967927,8882.471304,766.095498
544.693473,4367.215058,9622.677246,306.438199
544.693793,2960.823768,8512.368333,-1532.190996
544.694114,3849.070898,7402.059420,-536.266849
544.694434,4441.235652,7698.141797,1991.848295
544.694755,2886.803174,7994.224174,536.266849
544.695075,2960.823768,9252.574275,-842.705048
544.695395,4663.297435,10584.944971,-383.047749
544.695716,3997.112087,9918.759623,-919.314598
544.696036,5551.544565,9178.553681,766.095498
544.696357,5847.626942,8216.285956,153.219100
544.696677,5329.482782,9400.615463,-1532.190996
544.696998,4441.235652,8808.450710,-76.609550
544.697318,5181.441594,7624.121203,229.828649
544.697638,6143.709319,6439.791695,612.876398
544.697959,7624.121203,7105.977043,1685.410096
544.698279,7105.977043,9326.594869,1225.752797
544.698600,5255.462188,7624.121203,-1378.971896
544.698920,5921.647536,5551.544565,-2145.067394
544.699241,7179.997637,5033.400406,-995.924147
544.699561,6439.791695,5921.647536,-919.314598
544.699881,5847.626942,7105.977043,-383.047749
544.700202,6809.894666,7550.100608,-1378.971896
544.700522,6365.771101,8290.306550,-2068.457845
544.700843,6661.853478,8290.306550,-995.924147
544.701163,6291.750507,8142.265362,0.000000
544.701484,6513.812290,8068.244768,-383.047749
544.701804,6365.771101,7994.224174,306.438199
544.702124,6957.935855,8364.327145,229.828649
544.702445,5329.482782,7105.977043,-766.095498
544.702765,4811.338623,6143.709319,-1225.752797
544.703086,4885.359217,6883.915261,842.705048
544.703406,5181.441594,8142.265362,1225.752797
544.703727,4663.297435,8364.327145,995.924147
544.704047,4737.318029,7624.121203,459.657299
544.704367,3997.112087,7846.182985,306.438199
544.704688,3256.906145,9326.594869,1378.971896
544.705008,2960.823768,9622.677246,1455.581446
544.705329,2960.823768,10140.821405,-306.438199
544.705649,3108.864956,9696.697840,-1378.971896
544.705970,4293.194464,9992.780217,-459.657299
544.706290,3256.906145,9770.718434,0.000000
544.706610,2664.741391,9474.636058,-383.047749
544.706931,3997.112087,8660.409521,536.266849
544.707251,4367.215058,8216.285956,1072.533697
544.707572,4367.215058,7105.977043,919.314598
544.707892,3034.844362,7254.018232,766.095498
544.708213,4145.153275,8364.327145,766.095498
544.708533,4959.379811,9030.512492,153.219100
544.708853,5107.421000,8438.347739,-306.438199
544.709174,6587.832884,6883.915261,-1762.019645
544.709494,6809.894666,6291.750507,-1762.019645
544.709815,5181.441594,7105.977043,-766.095498
544.710135,5477.523971,8142.265362,-612.876398
544.710456,5255.462188,9178.553681,-919.314598
544.710776,6439.791695,7550.100608,-383.047749
544.711096,7698.141797,7179.997637,306.438199
544.711417,6661.853478,7254.018232,536.266849
544.711737,3034.844362,7328.038826,-995.924147
544.712058,3552.988522,7328.038826,-995.924147
544.712378,5255.462188,7105.977043,-766.095498
544.712699,6217.729913,5995.668130,153.219100
544.713019,5847.626942,5625.565159,76.609550
544.713339,5699.585753,7476.080014,-536.266849
544.713660,4293.194464,8956.491898,76.609550
544.713980,4367.215058,8660.409521,1455.581446
544.714301,5699.585753,7846.182985,689.485948
544.714621,7105.977043,7105.977043,153.219100
544.714942,6809.894666,7179.997637,-536.266849
544.715262,6143.709319,7772.162391,-1532.190996
544.715582,4959.379811,8290.306550,-1685.410096
544.715903,6365.771101,9326.594869,0.000000
544.716223,6883.915261,8438.347739,459.657299
544.716544,6365.771101,7476.080014,612.876398
544.716864,4663.297435,6957.935855,306.438199
544.717185,4589.276840,7994.224174,383.047749
544.717505,5255.462188,7920.203579,-766.095498
544.717825,4737.318029,6439.791695,-1915.238745
544.718146,6661.853478,7994.224174,-1225.752797
544.718466,6883.915261,9918.759623,0.000000
544.718787,4515.256246,9844.739029,-76.609550
544.719107,3108.864956,8364.327145,-1762.019645
544.719428,5181.441594,8512.368333,-766.095498
544.719748,4367.215058,9326.594869,1225.752797
544.720068,4663.297435,9474.636058,2374.896044
544.720389,4071.132681,9030.512492,-1378.971896
544.720709,3923.091493,9696.697840,-2911.162892
544.721030,2368.659014,10436.903782,-1532.190996
544.721350,3256.906145,8956.491898,-383.047749
544.721671,3404.947333,7328.038826,0.000000
544.721991,5181.441594,8882.471304,1225.752797
544.722311,3182.885551,10807.006753,1915.238745
544.722632,1924.535449,11103.089130,766.095498
544.722952,1480.411884,9992.780217,-689.485948
544.723273,2738.761985,8808.450710,-995.924147
544.723593,4293.194464,9030.512492,1072.533697
544.723914,3997.112087,8438.347739,1838.629195
544.724234,2220.617826,7476.080014,383.047749
544.724554,2294.638420,7698.141797,-229.828649
544.724875,3182.885551,9696.697840,689.485948
544.725195,3182.885551,9548.656652,306.438199
544.725516,4737.318029,8290.306550,-459.657299
544.725836,5995.668130,6809.894666,-229.828649
544.726157,4515.256246,6217.729913,-842.705048
544.726477,5255.462188,5625.565159,0.000000
544.726797,5403.503377,7105.977043,229.828649
544.727118,4589.276840,7624.121203,-1991.848295
544.727438,6587.832884,8734.430116,-1838.629195
544.727759,6439.791695,8734.430116,-1838.629195
544.728079,5699.585753,8068.244768,-1991.848295
544.728400,7772.162391,8512.368333,76.609550
544.728720,6957.935855,7105.977043,383.047749
544.729040,5551.544565,6365.771101,-153.219100
544.729361,6883.915261,6513.812290,0.000000
544.729681,5921.647536,7772.162391,0.000000
544.730002,5107.421000,8438.347739,1608.800546
544.730322,5625.565159,7920.203579,2987.772442
544.730643,4959.379811,7179.997637,383.047749
544.730963,4737.318029,5995.668130,-689.485948
544.731283,4885.359217,6957.935855,0.000000
544.731604,5255.462188,8290.306550,459.657299
544.731924,3701.029710,8364.327145,459.657299
544.732245,5255.462188,9178.553681,842.705048
544.732565,5107.421000,9104.533087,229.828649
544.732886,4219.173869,8216.285956,383.047749
544.733206,5551.544565,8808.450710,1838.629195
544.733526,5477.523971,9030.512492,383.047749
544.733847,4145.153275,6809.894666,-1378.971896
544.734167,5995.668130,5477.523971,-1378.971896
544.734488,7105.977043,6661.853478,-612.876398
544.734808,6513.812290,8586.388927,306.438199
544.735129,5699.585753,8734.430116,306.438199
544.735449,6809.894666,7994.224174,-919.314598
544.735769,6661.853478,7994.224174,-1149.143247
544.736090,6217.729913,8734.430116,0.000000
544.736410,3849.070898,7772.162391,-1149.143247
544.736731,4959.379811,8142.265362,-2068.457845
544.737051,4737.318029,9696.697840,-689.485948
544.737372,4515.256246,8956.491898,0.000000
544.737692,4811.338623,8290.306550,-383.047749
544.738012,4367.215058,9178.553681,-383.047749
544.738333,2516.700203,10214.842000,-306.438199
544.738653,2220.617826,9844.739029,689.485948
544.738974,3034.844362,9030.512492,1378.971896
544.739294,4663.297435,7031.956449,1685.410096
544.739615,3034.844362,5699.585753,2298.286494
544.739935,2442.679609,6365.771101,229.828649
544.740255,2738.761985,8808.450710,-995.924147
544.740576,3256.906145,10288.862594,-1072.533697
544.740896,5181.441594,10140.821405,-1302.362347
544.741217,6957.935855,9104.533087,-1378.971896
544.741538,5181.441594,8586.388927,-612.876398
544.741858,4219.173869,9400.615463,306.438199
544.742179,4441.235652,9474.636058,229.828649
544.742499,4145.153275,7920.203579,-995.924147
544.742820,5477.523971,8142.265362,-842.705048
544.743140,5625.565159,8512.368333,-229.828649
544.743461,4959.379811,8290.306550,-459.657299
544.743781,4737.318029,8216.285956,0.000000
544.744102,4293.194464,7846.182985,-383.047749
544.744423,4663.297435,6735.874072,-306.438199
544.744743,5181.441594,6143.709319,0.000000
544.745064,5033.400406,7772.162391,229.828649
544.745384,4441.235652,9770.718434,76.609550
544.745705,3997.112087,9400.615463,0.000000
544.746025,5403.503377,7994.224174,-689.485948
544.746346,5847.626942,7105.977043,229.828649
544.746666,5847.626942,8142.265362,1455.581446
544.746987,4959.379811,9326.594869,536.266849
544.747308,4071.132681,8142.265362,-1991.848295
544.747628,5255.462188,7402.059420,0.000000
544.747949,6883.915261,6809.894666,1991.848295
544.748269,5921.647536,6143.709319,1302.362347
544.748590,6217.729913,7031.956449,459.657299
544.748910,5921.647536,9622.677246,76.609550
544.749231,4663.297435,9474.636058,-1762.019645
544.749551,4811.338623,7105.977043,-1378.971896
544.749872,6069.688724,6069.688724,-536.266849
544.750193,6587.832884,7846.182985,1685.410096
544.750513,4885.359217,9400.615463,2451.505594
544.750834,4293.194464,9030.512492,306.438199
544.751154,4589.276840,7846.182985,-2145.067394
544.751475,5329.482782,7328.038826,-306.438199
544.751795,4811.338623,7550.100608,1685.410096
544.752116,4959.379811,6661.853478,842.705048
544.752436,5625.565159,7105.977043,-842.705048
544.752757,5551.544565,6809.894666,-689.485948
544.753078,5107.421000,5625.565159,-383.047749
544.753398,5847.626942,6439.791695,0.000000
544.753719,5699.585753,8734.430116,306.438199
544.754039,6069.688724,9844.739029,-766.095498
544.754360,6957.935855,8586.388927,-995.924147
544.754680,7105.977043,6587.832884,-1302.362347
544.755001,5551.544565,5403.503377,-842.705048
544.755322,5403.503377,6513.812290,0.000000
544.755642,5477.523971,9252.574275,0.000000
544.755963,4589.276840,9622.677246,-1225.752797
544.756283,5181.441594,8438.347739,-1608.800546
544.756604,7105.977043,7550.100608,0.000000
544.756924,4219.173869,7698.141797,1685.410096
544.757245,2886.803174,10066.800811,1762.019645
544.757565,2812.782580,10288.862594,229.828649
544.757886,2072.576638,7402.059420,-995.924147
544.758207,4515.256246,6735.874072,766.095498
544.758527,4663.297435,8364.327145,1685.410096
544.758848,1628.453072,8956.491898,-383.047749
544.759168,3182.885551,9400.615463,-2068.457845
544.759489,4441.235652,10807.006753,-612.876398
544.759809,4367.215058,10584.944971,229.828649
544.760130,4959.379811,8734.430116,1225.752797
544.760450,5551.544565,8216.285956,-459.657299
544.760771,3997.112087,8956.491898,-536.266849
544.761092,3701.029710,8882.471304,919.314598
544.761412,6291.750507,8512.368333,229.828649
544.761733,6661.853478,6957.935855,-1225.752797
544.762053,6365.771101,7846.182985,1072.533697
544.762374,5995.668130,8364.327145,842.705048
544.762694,4145.153275,7624.121203,-1838.629195
544.763015,5255.462188,6439.791695,-1915.238745
544.763335,7328.038826,6217.729913,76.609550
544.763656,6661.853478,6735.874072,1685.410096
544.763977,6217.729913,8216.285956,1302.362347
544.764297,4737.318029,8956.491898,-1685.410096
544.764618,4811.338623,8290.306550,-4290.134789
544.764938,5403.503377,7698.141797,-1991.848295
544.765259,5847.626942,7031.956449,766.095498
544.765579,5847.626942,6291.750507,1685.410096
544.765900,5255.462188,6439.791695,536.266849
544.766220,5181.441594,7476.080014,-689.485948
544.766541,3923.091493,8660.409521,-383.047749
544.766862,4959.379811,8290.306550,153.219100
544.767182,6439.791695,6069.688724,76.609550
544.767503,7179.997637,4589.276840,689.485948
544.767823,7254.018232,5329.482782,1455.581446
544.768144,6217.729913,6735.874072,76.609550
544.768464,5107.421000,6957.935855,-2221.676944
544.768785,5921.647536,8734.430116,-1762.019645
544.769106,7105.977043,9474.636058,-153.219100
544.769426,7031.956449,9400.615463,689.485948
544.769747,6365.771101,7920.203579,766.095498
544.770067,6143.709319,7772.162391,-153.219100
544.770388,4663.297435,7698.141797,-612.876398
544.770708,3256.906145,7254.018232,-842.705048
544.771029,3923.091493,8068.244768,-383.047749
544.771349,5181.441594,9474.636058,229.828649
544.771670,3701.029710,9992.780217,1302.362347
544.771991,4589.276840,8512.368333,612.876398
544.772311,4959.379811,7031.956449,383.047749
544.772632,4663.297435,7920.203579,0.000000
544.772952,4441.235652,8290.306550,0.000000
544.773273,3478.967927,8512.368333,-612.876398
544.773593,3627.009116,7994.224174,-1149.143247
544.773914,5033.400406,9252.574275,0.000000
544.774234,5107.421000,8734.430116,612.876398
544.774555,4737.318029,8586.388927,-1608.800546
544.774876,5107.421000,9178.553681,-1838.629195
544.775196,5329.482782,9104.533087,-766.095498
544.775517,6217.729913,7994.224174,229.828649
544.775837,6069.688724,7624.121203,612.876398
544.776158,5181.441594,9104.533087,-536.266849
544.776478,4145.153275,8882.471304,-306.438199
544.776799,5255.462188,7402.059420,229.828649
544.777119,5033.400406,7328.038826,0.000000
544.777440,4441.235652,7328.038826,-153.219100
544.777761,3997.112087,7846.182985,-383.047749
544.778081,3552.988522,8734.430116,-612.876398
544.778402,3404.947333,8734.430116,0.000000
544.778722,5181.441594,9104.533087,612.876398
544.779043,4589.276840,7105.977043,-995.924147
544.779363,3923.091493,7624.121203,-995.924147
544.779684,3627.009116,8734.430116,229.828649
544.780005,4663.297435,9104.533087,229.828649
544.780325,5107.421000,8586.388927,153.219100
544.780646,6217.729913,8364.327145,0.000000
544.780966,5921.647536,7920.203579,229.828649
544.781287,5255.462188,7772.162391,0.000000
544.781607,4663.297435,6735.874072,-383.047749
544.781928,5625.565159,6661.853478,-612.876398
544.782248,6365.771101,7105.977043,0.000000
544.782569,6143.709319,7550.100608,459.657299
544.782890,5847.626942,8142.265362,229.828649
544.783210,6661.853478,8290.306550,76.609550
544.783531,7179.997637,8216.285956,1225.752797
544.783851,5625.565159,8290.306550,459.657299
544.784172,5625.565159,8142.265362,-153.219100
544.784492,5625.565159,7179.997637,-536.266849
544.784813,4589.276840,6513.812290,0.000000
544.785133,5329.482782,6291.750507,153.219100
544.785454,5329.482782,7105.977043,229.828649
544.785775,5329.482782,7402.059420,-383.047749
544.786095,5625.565159,7476.080014,-766.095498
544.786416,5699.585753,7624.121203,-153.219100
544.786736,5995.668130,8808.450710,153.219100
544.787057,4737.318029,7105.977043,306.438199
544.787377,5477.523971,6143.709319,-383.047749
544.787698,6883.915261,5995.668130,76.609550
544.788018,5773.606348,7550.100608,-383.047749
544.788339,5699.585753,8364.327145,-1302.362347
544.788660,5995.668130,9030.512492,-1608.800546
544.788980,6217.729913,8808.450710,-842.705048
544.789301,6735.874072,8660.409521,383.047749
544.789621,6439.791695,7550.100608,1072.533697
544.789942,3849.070898,6513.812290,229.828649
544.790262,3552.988522,7920.203579,0.000000
544.790583,4441.235652,9252.574275,153.219100
544.790903,4219.173869,8216.285956,-459.657299
544.791224,4959.379811,8142.265362,-1455.581446
544.791545,4589.276840,9400.615463,-1225.752797
544.791865,2886.803174,10807.006753,-229.828649
544.792186,2368.659014,9992.780217,536.266849
544.792506,2960.823768,8586.388927,459.657299
544.792827,3034.844362,8142.265362,995.924147
544.793147,2368.659014,8808.450710,536.266849
544.793468,2886.803174,9992.780217,-536.266849
544.793789,2442.679609,10140.821405,-1225.752797
544.794109,5403.503377,9548.656652,689.485948
544.794430,5773.606348,8216.285956,919.314598
544.794750,4589.276840,7402.059420,0.000000
544.795071,3923.091493,7920.203579,-229.828649
544.795391,4367.215058,9030.512492,-383.047749
544.795712,4367.215058,9844.739029,-383.047749
544.796032,6513.812290,9696.697840,0.000000
544.796353,6291.750507,8956.491898,-536.266849
544.796674,5699.585753,7994.224174,0.000000
544.796994,6143.709319,8512.368333,1838.629195
544.797315,4293.194464,8438.347739,1225.752797
544.797635,3478.967927,6143.709319,-1532.190996
544.797956,5477.523971,4885.359217,-612.876398
544.798276,5181.441594,5181.441594,612.876398
544.798597,5625.565159,7105.977043,689.485948
544.798917,6143.709319,8808.450710,-459.657299
544.799238,5699.585753,9030.512492,-2911.162892
544.799559,5033.400406,8586.388927,-2451.505594
544.799879,5847.626942,8068.244768,76.609550
544.800200,5477.523971,7550.100608,-229.828649
544.800520,5181.441594,7698.141797,0.000000
544.800841,5551.544565,7698.141797,-76.609550
544.801161,5181.441594,7476.080014,-842.705048
544.801482,4663.297435,8216.285956,-536.266849
544.801802,4737.318029,8142.265362,1072.533697
544.802123,5995.668130,8586.388927,1455.581446
544.802444,4885.359217,7105.977043,1532.190996
544.802764,5107.421000,5995.668130,459.657299
544.803085,5181.441594,4219.173869,-383.047749
544.803405,4737.318029,5403.503377,76.609550
544.803726,5995.668130,7624.121203,459.657299
544.804046,4737.318029,8512.368333,-612.876398
544.804367,5477.523971,8438.347739,-1762.019645
544.804687,7105.977043,8956.491898,-1532.190996
544.805008,5995.668130,9030.512492,-1072.533697
544.805329,4367.215058,8808.450710,-1378.971896
544.805649,5255.462188,8216.285956,-766.095498
544.805970,4737.318029,7920.203579,-766.095498
544.806290,5403.503377,7105.977043,153.219100
544.806611,6069.688724,8216.285956,0.000000
544.806931,5107.421000,9104.533087,-1149.143247
544.807252,4441.235652,8882.471304,-919.314598
544.807573,5847.626942,7698.141797,153.219100
544.807893,7031.956449,7550.100608,995.924147
544.808214,4663.297435,6883.915261,842.705048
544.808534,2812.782580,7254.018232,153.219100
544.808855,3627.009116,9104.533087,-689.485948
544.809175,2960.823768,10881.027347,-612.876398
544.809496,5107.421000,11177.109724,0.000000
544.809816,5625.565159,9474.636058,-306.438199
544.810137,4885.359217,9474.636058,0.000000
544.810458,3775.050304,11547.212695,1685.410096
544.810778,1628.453072,10658.965565,689.485948
544.811099,2294.638420,7920.203579,-1302.362347
544.811419,3552.988522,7031.956449,-383.047749
544.811740,3256.906145,8290.306550,1762.019645
544.812060,2738.761985,9696.697840,1455.581446
544.812381,2590.720797,9992.780217,-612.876398
544.812701,2960.823768,9400.615463,-1685.410096
544.813022,3923.091493,8290.306550,-995.924147
544.813343,4145.153275,7698.141797,0.000000
544.813663,4071.132681,7105.977043,0.000000
544.813984,4367.215058,7624.121203,383.047749
544.814304,5847.626942,8364.327145,0.000000
544.814625,6587.832884,9030.512492,-306.438199
544.814945,6069.688724,9104.533087,-1532.190996
544.815266,6069.688724,8586.388927,-1685.410096
544.815586,6217.729913,8068.244768,0.000000
544.815907,5921.647536,6661.853478,766.095498
544.816228,5625.565159,5329.482782,306.438199
544.816548,5773.606348,4959.379811,-1072.533697
544.816869,5773.606348,5403.503377,-1838.629195
544.817189,4959.379811,7254.018232,-1225.752797
544.817510,4737.318029,9104.533087,-229.828649
544.817830,5403.503377,9326.594869,-306.438199
544.818151,6143.709319,8364.327145,306.438199
544.818471,5625.565159,7105.977043,689.485948
544.818792,4145.153275,6957.935855,306.438199
544.819113,3182.885551,7105.977043,-229.828649
544.819433,4589.276840,7624.121203,-383.047749
544.819754,4589.276840,7328.038826,-689.485948
544.820074,5995.668130,6883.915261,-383.047749
544.820395,6661.853478,8216.285956,612.876398
544.820715,5255.462188,8956.491898,0.000000
544.821036,5181.441594,8438.347739,-689.485948
544.821357,5921.647536,7550.100608,-229.828649
544.821677,5625.565159,5699.585753,-153.219100
544.821998,6809.894666,6069.688724,995.924147
544.822318,6291.750507,7402.059420,0.000000
544.822639,5625.565159,9474.636058,-1915.238745
544.822959,5921.647536,10362.883188,-2298.286494
544.823280,7105.977043,9252.574275,-2145.067394
544.823600,7031.956449,8290.306550,-612.876398
544.823921,6143.709319,8882.471304,1225.752797
544.824242,4811.338623,9696.697840,536.266849
544.824562,3404.947333,9030.512492,-306.438199
544.824883,4367.215058,8512.368333,229.828649
544.825203,4441.235652,7624.121203,536.266849
544.825524,2886.803174,7105.977043,612.876398
544.825844,2886.803174,8734.430116,612.876398
544.826165,3478.967927,10362.883188,0.000000
544.826485,2368.659014,10066.800811,-842.705048
544.826806,2516.700203,9104.533087,-1455.581446
544.827127,3627.009116,7994.224174,-689.485948
544.827447,3182.885551,9252.574275,995.924147
544.827768,2960.823768,10584.944971,1455.581446
544.828088,2960.823768,10436.903782,459.657299
544.828409,3775.050304,9992.780217,-536.266849
544.828729,5033.400406,9326.594869,536.266849
544.829050,4589.276840,8290.306550,766.095498
544.829370,4737.318029,7328.038826,-766.095498
544.829691,5255.462188,6291.750507,-536.266849
544.830012,4959.379811,5551.544565,-689.485948
544.830332,6143.709319,7105.977043,-383.047749
544.830653,6291.750507,9400.615463,536.266849
544.830973,3997.112087,10140.821405,-536.266849
544.831294,5255.462188,9326.594869,-306.438199
544.831614,5847.626942,7105.977043,612.876398
544.831935,6143.709319,6809.894666,1225.752797
544.832255,5995.668130,6365.771101,536.266849
544.832576,3849.070898,5329.482782,-612.876398
544.832897,5255.462188,7105.977043,-1608.800546
544.833217,5403.503377,7476.080014,-229.828649
544.833538,5107.421000,7105.977043,0.000000
544.833858,8068.244768,5921.647536,459.657299
544.834179,7846.182985,6143.709319,919.314598
544.834499,5773.606348,7179.997637,459.657299
544.834820,4811.338623,6439.791695,-689.485948
544.835141,5033.400406,6217.729913,-1302.362347
544.835461,6883.915261,6291.750507,-766.095498
544.835782,7328.038826,7698.141797,459.657299
544.836102,6143.709319,9474.636058,-995.924147
544.836423,4441.235652,10066.800811,-2298.286494
544.836743,4811.338623,9770.718434,-766.095498
544.837064,4367.215058,7402.059420,1225.752797
544.837384,4515.256246,6957.935855,2221.676944
544.837705,4663.297435,7105.977043,2221.676944
544.838026,3701.029710,8808.450710,0.000000
544.838346,2886.803174,8734.430116,-229.828649
544.838667,3997.112087,8364.327145,306.438199
544.838987,4145.153275,7550.100608,536.266849
544.839308,4663.297435,7031.956449,842.705048
544.839628,5033.400406,9252.574275,153.219100
544.839949,4071.132681,10214.842000,-1915.238745
544.840269,3330.926739,8956.491898,-2757.943793
544.840590,5773.606348,8068.244768,-1532.190996
544.840911,6809.894666,7550.100608,-383.047749
544.841231,5921.647536,8660.409521,612.876398
544.841552,5255.462188,9474.636058,0.000000
544.841872,5995.668130,10362.883188,-1072.533697
544.842193,5921.647536,9252.574275,-689.485948
544.842513,5773.606348,7105.977043,-612.876398
544.842834,6439.791695,6439.791695,-766.095498
544.843154,6143.709319,7105.977043,0.000000
544.843475,5773.606348,7550.100608,-459.657299
544.843796,5107.421000,7105.977043,-919.314598
544.844116,5255.462188,7920.203579,-1149.143247
544.844437,3404.947333,8364.327145,-536.266849
544.844757,5181.441594,9400.615463,-229.828649
544.845078,4441.235652,9030.512492,-689.485948
544.845398,4293.194464,9326.594869,-919.314598
544.845719,4737.318029,10066.800811,536.266849
544.846040,3552.988522,8586.388927,-306.438199
544.846360,3478.967927,8142.265362,-1608.800546
544.846681,4071.132681,8808.450710,-919.314598
544.847001,3849.070898,8660.409521,-153.219100
544.847322,4737.318029,8216.285956,689.485948
544.847642,6513.812290,7920.203579,1685.410096
544.847963,5551.544565,7550.100608,766.095498
544.848283,4145.153275,6439.791695,0.000000
544.848604,5477.523971,7105.977043,0.000000
544.848925,5625.565159,7846.182985,-383.047749
544.849245,6587.832884,7402.059420,0.000000
544.849566,8808.450710,7105.977043,-76.609550
544.849886,7328.038826,6587.832884,-1302.362347
544.850207,5995.668130,7179.997637,-842.705048
544.850527,6957.935855,7994.224174,383.047749
544.850848,5699.585753,7402.059420,-229.828649
544.851169,6069.688724,6661.853478,536.266849
544.851489,7994.224174,7994.224174,1302.362347
544.851810,4811.338623,7105.977043,-306.438199
544.852130,3404.947333,7402.059420,-1225.752797
544.852451,4811.338623,7328.038826,612.876398
544.852771,4219.173869,7031.956449,0.000000
544.853092,5477.523971,7105.977043,383.047749
544.853412,4737.318029,8216.285956,-612.876398
544.853733,3034.844362,9474.636058,-1532.190996
544.854054,3256.906145,9400.615463,459.657299
544.854374,5551.544565,8734.430116,1532.190996
544.854695,4589.276840,8438.347739,1225.752797
544.855015,4367.215058,8882.471304,1608.800546
544.855336,4737.318029,9770.718434,1072.533697
544.855656,3552.988522,7846.182985,0.000000
544.855977,4219.173869,6735.874072,842.705048
544.856298,6069.688724,6069.688724,1072.533697
544.856618,5403.503377,5255.462188,-306.438199
544.856939,6439.791695,7624.121203,229.828649
544.857259,5699.585753,8512.368333,0.000000
544.857580,3775.050304,8142.265362,-1225.752797
544.857900,5773.606348,7624.121203,-995.924147
544.858221,6291.750507,7179.997637,-459.657299
544.858541,5699.585753,7550.100608,-842.705048
544.858862,5477.523971,8364.327145,-306.438199
544.859183,4515.256246,9178.553681,-1302.362347
544.859503,4219.173869,7994.224174,-1991.848295
544.859824,3997.112087,7698.141797,-1225.752797
544.860144,5181.441594,8586.388927,-383.047749
544.860465,5033.400406,8882.471304,306.438199
544.860785,5255.462188,7476.080014,842.705048
544.861106,6291.750507,7476.080014,76.609550
544.861427,5625.565159,9104.533087,-612.876398
544.861747,2960.823768,8364.327145,-536.266849
544.862068,4737.318029,7402.059420,-842.705048
544.862388,6143.709319,7105.977043,-229.828649
544.862709,5329.482782,8956.491898,612.876398
544.863029,5847.626942,9252.574275,459.657299
544.863350,4589.276840,7254.018232,-1455.581446
544.863670,3997.112087,7402.059420,-1915.238745
544.863991,5255.462188,9548.656652,1072.533697
544.864312,4293.194464,9696.697840,1838.629195
544.864632,4959.379811,8956.491898,1685.410096
544.864953,6439.791695,7698.141797,842.705048
544.865273,4071.132681,7698.141797,0.000000
544.865594,2960.823768,7920.203579,-1225.752797
544.865914,4811.338623,7105.977043,-1149.143247
544.866235,5255.462188,7550.100608,-1225.752797
544.866556,6143.709319,8660.409521,-459.657299
544.866876,7179.997637,9030.512492,-76.609550
544.867197,5033.400406,8512.368333,-1608.800546
544.867517,4737.318029,8586.388927,-1225.752797
544.867838,6069.688724,10510.924376,306.438199
544.868158,5551.544565,9622.677246,0.000000
544.868479,5995.668130,7698.141797,1149.143247
544.868799,7179.997637,7624.121203,1072.533697
544.869120,4885.359217,7476.080014,153.219100
544.869441,3404.947333,6513.812290,-306.438199
544.869761,5699.585753,6143.709319,-229.828649
544.870082,6957.935855,6809.894666,-612.876398
544.870402,7105.977043,7179.997637,536.266849
544.870723,5773.606348,9548.656652,459.657299
544.871043,3849.070898,9326.594869,-1149.143247
544.871364,4663.297435,8068.244768,76.609550
544.871685,6883.915261,6291.750507,1378.971896
544.872005,5403.503377,5255.462188,0.000000
544.872326,4959.379811,7105.977043,-306.438199
544.872646,3775.050304,8734.430116,0.000000
544.872967,4737.318029,8364.327145,-153.219100
544.873287,5255.462188,6957.935855,0.000000
544.873608,5181.441594,5773.606348,-383.047749
544.873928,5847.626942,7624.121203,-689.485948
544.874249,4959.379811,8660.409521,995.924147
544.874570,3552.988522,8660.409521,306.438199
544.874890,5329.482782,7550.100608,-612.876398
544.875211,4367.215058,6735.874072,-1149.143247
544.875531,4811.338623,8438.347739,-536.266849
544.875852,3923.091493,9622.677246,0.000000
544.876172,2442.679609,9992.780217,-1378.971896
544.876493,4071.132681,8660.409521,-1225.752797
544.876813,5551.544565,7698.141797,766.095498
544.877134,3775.050304,8512.368333,536.266849
544.877455,3108.864956,10140.821405,1378.971896
544.877775,2812.782580,10955.047942,1378.971896
544.878096,4219.173869,10066.800811,995.924147
544.878416,4293.194464,7698.141797,1991.848295
544.878737,3923.091493,5551.544565,153.219100
544.879057,2886.803174,6143.709319,-995.924147
544.879378,3701.029710,8586.388927,-229.828649
544.879699,5033.400406,9696.697840,-766.095498
544.880019,6069.688724,9474.636058,-1838.629195
544.880340,6365.771101,9622.677246,-1455.581446
544.880660,6513.812290,9474.636058,0.000000
544.880981,4737.318029,8882.471304,766.095498
544.881301,6735.874072,8512.368333,766.095498
544.881622,6365.771101,7254.018232,-383.047749
544.881942,4959.379811,5551.544565,-1072.533697
544.882263,6365.771101,6365.771101,153.219100
544.882584,5551.544565,8586.388927,-383.047749
544.882904,3404.947333,8142.265362,-766.095498
544.883225,5773.606348,6513.812290,-1378.971896
544.883545,7624.121203,6809.894666,-306.438199
544.883866,4367.215058,7402.059420,612.876398
544.884186,3701.029710,8808.450710,919.314598
544.884507,5033.400406,9400.615463,76.609550
544.884828,4885.359217,9326.594869,-995.924147
544.885148,4441.235652,8142.265362,-919.314598
544.885469,5033.400406,7698.141797,-1302.362347
544.885789,4441.235652,7254.018232,-1915.238745
544.886110,5033.400406,8142.265362,229.828649
544.886430,4589.276840,7402.059420,383.047749
544.886751,5847.626942,6957.935855,-1225.752797
544.887071,5625.565159,7476.080014,229.828649
544.887392,4959.379811,8364.327145,689.485948
544.887713,6291.750507,8216.285956,1762.019645
544.888033,6809.894666,7920.203579,995.924147
544.888354,4959.379811,6957.935855,-842.705048
544.888674,5033.400406,5477.523971,-1991.848295
544.888995,5033.400406,6439.791695,-1302.362347
544.889315,5329.482782,9474.636058,-536.266849
544.889636,5477.523971,10140.821405,-229.828649
544.889957,6439.791695,9548.656652,-995.924147
544.890277,5995.668130,8882.471304,-1991.848295
544.890598,4737.318029,9400.615463,919.314598
544.890918,4145.153275,9474.636058,2451.505594
544.891239,3330.926739,8142.265362,766.095498
544.891559,3849.070898,7550.100608,0.000000
544.891880,2960.823768,7402.059420,-995.924147
544.892200,4441.235652,7994.224174,0.000000
544.892521,3997.112087,7402.059420,1302.362347
544.892842,4737.318029,7920.203579,995.924147
544.893162,4737.318029,8216.285956,-306.438199
544.893483,4441.235652,10140.821405,-1149.143247
544.893803,4219.173869,8882.471304,-766.095498
544.894124,6513.812290,8512.368333,383.047749
544.894444,7698.141797,7920.203579,1532.190996
544.894765,5329.482782,8142.265362,383.047749
544.895086,4589.276840,7994.224174,-383.047749
544.895406,6069.688724,8364.327145,0.000000
544.895727,6661.853478,8364.327145,0.000000
544.896047,6661.853478,8216.285956,0.000000
544.896368,4441.235652,6883.915261,-1225.752797
544.896688,4959.379811,6143.709319,-1455.581446
544.897009,4811.338623,7254.018232,842.705048
544.897329,3997.112087,8734.430116,2451.505594
544.897650,4145.153275,7994.224174,1149.143247
544.897971,4219.173869,7698.141797,0.000000
544.898291,3256.906145,8438.347739,-1455.581446
544.898612,2664.741391,8956.491898,-612.876398
544.898932,3108.864956,7994.224174,306.438199
544.899253,4811.338623,6957.935855,919.314598
544.899573,5107.421000,7402.059420,995.924147
544.899894,3775.050304,7624.121203,-842.705048
544.900215,2812.782580,8586.388927,-2681.334243
544.900535,4219.173869,8734.430116,-1225.752797
544.900856,7328.038826,9252.574275,1608.800546
544.901176,7994.224174,7105.977043,1915.238745
544.901497,5699.585753,5403.503377,0.000000
544.901817,5403.503377,7772.162391,-1455.581446
544.902138,4737.318029,9104.533087,-1685.410096
544.902458,4367.215058,9400.615463,-995.924147
544.902779,6735.874072,8068.244768,-995.924147
544.903100,6883.915261,7179.997637,-766.095498
544.903420,6439.791695,8956.491898,229.828649
544.903741,4293.194464,9178.553681,842.705048
544.904061,3552.988522,9770.718434,383.047749
544.904382,3997.112087,8882.471304,0.000000
544.904702,3923.091493,7920.203579,229.828649
544.905023,3775.050304,6661.853478,0.000000
544.905344,3182.885551,7254.018232,-306.438199
544.905664,3182.885551,8882.471304,229.828649
544.905985,3404.947333,10140.821405,-383.047749
544.906305,5033.400406,9548.656652,-842.705048
544.906626,4071.132681,9178.553681,-1762.019645
544.906946,4515.256246,10140.821405,-1225.752797
544.907267,4737.318029,10214.842000,1225.752797
544.907587,4959.379811,8882.471304,1608.800546
544.907908,5107.421000,8586.388927,459.657299
544.908229,5477.523971,8364.327145,-229.828649
544.908549,5329.482782,7772.162391,-383.047749
544.908870,5847.626942,7920.203579,1149.143247
544.909190,5699.585753,7476.080014,995.924147
544.909511,5847.626942,6735.874072,-766.095498
544.909831,5773.606348,4737.318029,-1455.581446
544.910152,7179.997637,6735.874072,-153.219100
544.910473,5699.585753,8290.306550,536.266849
544.910793,4737.318029,7994.224174,-306.438199
544.911114,6883.915261,7994.224174,-536.266849
544.911434,5477.523971,7846.182985,-1455.581446
544.911755,5403.503377,8290.306550,-1608.800546
544.912075,6439.791695,8586.388927,-383.047749
544.912396,4811.338623,8438.347739,-1608.800546
544.912716,5551.544565,7550.100608,-1532.190996
544.913037,6365.771101,6809.894666,0.000000
544.913358,4663.297435,7105.977043,-612.876398
544.913678,4959.379811,7550.100608,842.705048
544.913999,5329.482782,7772.162391,2374.896044
544.914319,7031.956449,7179.997637,1072.533697
544.914640,6439.791695,7254.018232,919.314598
544.914960,4589.276840,6809.894666,-612.876398
544.915281,4441.235652,6439.791695,-2221.676944
544.915602,5477.523971,7105.977043,0.000000
544.915922,4737.318029,8512.368333,995.924147
544.916243,4959.379811,8808.450710,612.876398
544.916563,4737.318029,8882.471304,-383.047749
544.916884,4663.297435,9548.656652,-1302.362347
544.917204,3108.864956,9548.656652,306.438199
544.917525,4293.194464,9474.636058,1225.752797
544.917845,4737.318029,8734.430116,842.705048
544.918166,3997.112087,7179.997637,306.438199
544.918487,3478.967927,6513.812290,689.485948
544.918807,3552.988522,8068.244768,536.266849
544.919128,3108.864956,9178.553681,153.219100
544.919448,3478.967927,10214.842000,-229.828649
544.919769,4589.276840,8956.491898,-1302.362347
544.920089,5995.668130,9326.594869,-1685.410096
544.920410,3997.112087,8586.388927,-229.828649
544.920731,3627.009116,7920.203579,229.828649
544.921051,5033.400406,8808.450710,842.705048
544.921372,4737.318029,9918.759623,229.828649
544.921692,4071.132681,9252.574275,-459.657299
544.922013,5625.565159,9474.636058,-842.705048
544.922333,5551.544565,8216.285956,-842.705048
544.922654,4515.256246,8068.244768,919.314598
544.922974,4959.379811,7179.997637,1302.362347
544.923295,4737.318029,6513.812290,-306.438199
544.923616,5699.585753,7328.038826,-536.266849
544.923936,4589.276840,6957.935855,-612.876398
544.924257,3330.926739,8142.265362,-306.438199
544.924577,4293.194464,8512.368333,689.485948
544.924898,5329.482782,8882.471304,459.657299
544.925218,5551.544565,7994.224174,-383.047749
544.925539,5477.523971,8290.306550,-306.438199
544.925860,4959.379811,9696.697840,-995.924147
544.926180,4959.379811,8290.306550,-1455.581446
544.926501,5625.565159,6143.709319,-1608.800546
544.926821,6513.812290,5255.462188,-842.705048
544.927142,7105.977043,5847.626942,-306.438199
544.927462,7105.977043,7698.141797,306.438199
544.927783,5773.606348,8216.285956,-612.876398
544.928103,6587.832884,7476.080014,-1532.190996
544.928424,6143.709319,5847.626942,-1762.019645
544.928745,6957.935855,5477.523971,-995.924147
544.929065,7402.059420,6439.791695,383.047749
544.929386,6513.812290,8734.430116,459.657299
544.929706,6217.729913,8068.244768,-766.095498
544.930027,7105.977043,7550.100608,-1685.410096
544.930347,7179.997637,7994.224174,-919.314598
544.930668,5477.523971,9030.512492,0.000000
544.930989,4737.318029,8734.430116,919.314598
544.931309,5773.606348,7698.141797,1302.362347
544.931630,5107.421000,7105.977043,1225.752797
544.931950,4367.215058,7105.977043,383.047749
544.932271,2738.761985,7550.100608,-1608.800546
544.932591,2368.659014,8734.430116,-2221.676944
544.932912,3849.070898,10955.047942,-766.095498
544.933232,4293.194464,10658.965565,0.000000
544.933553,6735.874072,9104.533087,612.876398
544.933874,4811.338623,8216.285956,0.000000
544.934194,2146.597232,7550.100608,-1532.190996
544.934515,2368.659014,9474.636058,0.000000
544.934835,4219.173869,10955.047942,612.876398
544.935156,4441.235652,8882.471304,306.438199
544.935476,8512.368333,8364.327145,153.219100
544.935797,6217.729913,8734.430116,-229.828649
544.936117,2516.700203,9474.636058,-1762.019645
544.936438,2294.638420,8290.306550,0.000000
544.936759,4589.276840,6809.894666,459.657299
544.937079,5255.462188,6809.894666,919.314598
544.937400,5033.400406,7772.162391,2068.457845
544.937720,2516.700203,9030.512492,-306.438199
544.938041,3182.885551,10584.944971,-2068.457845
544.938361,2812.782580,10288.862594,-153.219100
544.938682,4663.297435,9178.553681,-229.828649
544.939003,5773.606348,7476.080014,766.095498
544.939323,4293.194464,7328.038826,153.219100
544.939644,2146.597232,7698.141797,-536.266849
544.939964,2294.638420,7550.100608,-306.438199
544.940285,4367.215058,7846.182985,0.000000
544.940605,5921.647536,7920.203579,612.876398
544.940926,7402.059420,7179.997637,919.314598
544.941246,6291.750507,8586.388927,0.000000
544.941567,3404.947333,7179.997637,-766.095498
544.941888,4441.235652,5403.503377,-306.438199
544.942208,7254.018232,4959.379811,-612.876398
544.942529,7031.956449,4737.318029,-919.314598
544.942849,7772.162391,7920.203579,-612.876398
544.943170,6883.915261,9030.512492,-536.266849
544.943491,6217.729913,9622.677246,-1149.143247
544.943812,6661.853478,9548.656652,153.219100
544.944132,5699.585753,7920.203579,0.000000
544.944453,5773.606348,5847.626942,1072.533697
544.944774,7550.100608,5477.523971,2374.896044
544.945094,4515.256246,5107.421000,919.314598
544.945415,3108.864956,5625.565159,-919.314598
544.945736,4441.235652,6661.853478,-1072.533697
544.946057,5551.544565,7994.224174,-689.485948
544.946377,7031.956449,9548.656652,153.219100
544.946698,7328.038826,9844.739029,-153.219100
544.947019,5995.668130,9400.615463,-1915.238745
544.947339,4737.318029,7994.224174,-1762.019645
544.947660,4145.153275,6957.935855,-383.047749
544.947981,4959.379811,7550.100608,459.657299
544.948302,6217.729913,8882.471304,229.828649
544.948622,6735.874072,10881.027347,-229.828649
544.948943,6661.853478,9696.697840,-919.314598
544.949264,5625.565159,7772.162391,-459.657299
544.949585,5625.565159,6439.791695,0.000000
544.949905,5773.606348,6291.750507,536.266849
544.950226,4737.318029,6809.894666,842.705048
544.950547,5181.441594,7550.100608,-766.095498
544.950867,5847.626942,8956.491898,-1302.362347
544.951188,3849.070898,9622.677246,-1302.362347
544.951509,5477.523971,10362.883188,-1149.143247
544.951830,4811.338623,11325.150913,766.095498
544.952150,4885.359217,10881.027347,76.609550
544.952471,2886.803174,8364.327145,0.000000
544.952792,2738.761985,7105.977043,-612.876398
544.953112,1628.453072,7254.018232,-842.705048
544.953433,1480.411884,9104.533087,153.219100
544.953754,3330.926739,8660.409521,76.609550
544.954075,5773.606348,9770.718434,-842.705048
544.954395,4737.318029,9178.553681,0.000000
544.954716,2146.597232,9400.615463,-1149.143247
544.955037,2294.638420,8882.471304,-842.705048
544.955357,2812.782580,7328.038826,0.000000
544.955678,5107.421000,7624.121203,536.266849
544.955999,5995.668130,8512.368333,0.000000
544.956320,4885.359217,9474.636058,-1378.971896
544.956640,4959.379811,11251.130318,-995.924147
544.956961,5107.421000,10066.800811,-612.876398
544.957282,6143.709319,8216.285956,0.000000
544.957602,6883.915261,5699.585753,689.485948
544.957923,4959.379811,4737.318029,1762.019645
544.958244,4441.235652,6439.791695,1455.581446
544.958565,3256.906145,7994.224174,919.314598
544.958885,3478.967927,8290.306550,-383.047749
544.959206,5181.441594,7328.038826,-536.266849
544.959527,7031.956449,7550.100608,-153.219100
544.959847,4885.359217,7698.141797,612.876398
544.960168,4145.153275,8438.347739,0.000000
544.960489,3775.050304,7550.100608,-536.266849
544.960810,4885.359217,7179.997637,-1149.143247
544.961130,5847.626942,7254.018232,-536.266849
544.961451,6883.915261,8660.409521,0.000000
544.961772,5625.565159,9474.636058,0.000000
544.962092,6809.894666,9252.574275,229.828649
544.962413,7105.977043,7328.038826,1072.533697
544.962734,6957.935855,5847.626942,-306.438199
544.963055,5921.647536,4589.276840,-842.705048
544.963375,5847.626942,5033.400406,-536.266849
544.963696,5921.647536,5773.606348,459.657299
544.964017,6661.853478,8438.347739,919.314598
544.964337,6069.688724,8586.388927,0.000000
544.964658,6069.688724,7550.100608,-766.095498
544.964979,6143.709319,8660.409521,76.609550
544.965300,5329.482782,9326.594869,1302.362347
544.965620,3701.029710,8586.388927,1532.190996
544.965941,6291.750507,6365.771101,306.438199
544.966262,5921.647536,6217.729913,-766.095498
544.966582,3923.091493,7328.038826,-1149.143247
544.966903,3701.029710,8364.327145,-1072.533697
544.967224,4737.318029,8808.450710,-306.438199
544.967545,6365.771101,8734.430116,-612.876398
544.967865,6069.688724,9400.615463,306.438199
544.968186,3775.050304,8734.430116,-229.828649
544.968507,2294.638420,8068.244768,-766.095498
544.968827,3849.070898,8882.471304,536.266849
544.969148,4293.194464,9030.512492,536.266849
544.969469,5773.606348,9844.739029,-1225.752797
544.969790,5625.565159,9622.677246,-2374.896044
544.970110,4663.297435,11177.109724,-2834.553343
544.970431,2960.823768,9696.697840,536.266849
544.970752,4071.132681,8808.450710,1762.019645
544.971073,4071.132681,8512.368333,2451.505594
544.971393,3182.885551,7920.203579,2221.676944
544.971714,2664.741391,7624.121203,459.657299
544.972035,2368.659014,8364.327145,-536.266849
544.972355,1776.494261,8734.430116,-1072.533697
544.972676,4293.194464,9326.594869,-995.924147
544.972997,5255.462188,8142.265362,-1762.019645
544.973318,4441.235652,9104.533087,-2068.457845
544.973638,4293.194464,9918.759623,-766.095498
544.973959,3034.844362,8734.430116,536.266849
544.974280,4219.173869,9030.512492,0.000000
544.974600,4811.338623,10066.800811,-153.219100
544.974921,5477.523971,10807.006753,-919.314598
544.975242,5773.606348,9992.780217,-306.438199
544.975563,6513.812290,8364.327145,0.000000
544.975883,5033.400406,6735.874072,-536.266849
544.976204,4145.153275,5847.626942,-689.485948
544.976525,3997.112087,5329.482782,-766.095498
544.976845,5107.421000,6217.729913,76.609550
544.977166,6143.709319,7105.977043,1302.362347
544.977487,6513.812290,9030.512492,1685.410096
544.977808,5625.565159,9104.533087,76.609550
544.978128,4885.359217,8142.265362,-1378.971896
544.978449,5107.421000,7031.956449,-995.924147
544.978770,6217.729913,7772.162391,383.047749
544.979090,5477.523971,7179.997637,1532.190996
544.979411,7179.997637,6957.935855,689.485948
544.979732,6513.812290,5921.647536,-1225.752797
544.980053,4589.276840,5773.606348,-1455.581446
544.980373,5181.441594,7476.080014,-229.828649
544.980694,7476.080014,8364.327145,76.609550
544.981015,7179.997637,6883.915261,0.000000
544.981335,8586.388927,7105.977043,0.000000
544.981656,6587.832884,5995.668130,229.828649
544.981977,3775.050304,5699.585753,-1072.533697
544.982298,5477.523971,7105.977043,76.609550
544.982618,5921.647536,8808.450710,0.000000
544.982939,6217.729913,9400.615463,-1608.800546
544.983260,7031.956449,8808.450710,-1685.410096
544.983580,4589.276840,7031.956449,-1685.410096
544.983901,3775.050304,7550.100608,153.219100
544.984222,3997.112087,9400.615463,2911.162892
544.984543,2664.741391,8660.409521,2145.067394
544.984863,5033.400406,7105.977043,612.876398
544.985184,4071.132681,7105.977043,0.000000
544.985505,1332.370696,8142.265362,-689.485948
544.985825,370.102971,7179.997637,0.000000
544.986146,5033.400406,7254.018232,306.438199
544.986467,6291.750507,7846.182985,0.000000
544.986788,5403.503377,9400.615463,-766.095498
544.987108,4219.173869,9918.759623,-1072.533697
544.987429,4219.173869,11251.130318,-1838.629195
544.987750,4589.276840,9474.636058,306.438199
544.988070,6587.832884,8956.491898,1149.143247
544.988391,6365.771101,7698.141797,-153.219100
544.988712,5033.400406,7994.224174,-842.705048
544.989033,2886.803174,9104.533087,-306.438199
544.989353,3182.885551,9696.697840,-1532.190996
544.989674,4441.235652,8290.306550,-1378.971896
544.989995,5329.482782,8290.306550,-1072.533697
544.990316,6513.812290,8216.285956,76.609550
544.990636,4737.318029,9252.574275,1685.410096
544.990957,2368.659014,9770.718434,1532.190996
544.991278,2812.782580,8882.471304,-306.438199
544.991598,4293.194464,8290.306550,-1302.362347
544.991919,4293.194464,9326.594869,-1455.581446
544.992240,4589.276840,10214.842000,-229.828649
544.992561,3997.112087,9696.697840,-919.314598
544.992881,5255.462188,7031.956449,0.000000
544.993202,4589.276840,6957.935855,612.876398
544.993523,3849.070898,7105.977043,383.047749
544.993843,4367.215058,7994.224174,-689.485948
544.994164,7402.059420,8956.491898,229.828649
544.994485,6291.750507,9548.656652,1225.752797
544.994806,7476.080014,7105.977043,766.095498
544.995126,6291.750507,3923.091493,-459.657299
544.995447,6143.709319,3849.070898,-1685.410096
544.995768,6217.729913,7550.100608,-612.876398
544.996088,5477.523971,8882.471304,-383.047749
544.996409,5181.441594,8216.285956,-2604.724693
544.996730,9844.739029,7772.162391,-1302.362347
544.997051,7105.977043,7476.080014,76.609550
544.997371,5255.462188,7254.018232,306.438199
544.997692,4589.276840,6513.812290,229.828649
544.998013,4589.276840,6661.853478,-229.828649
544.998333,4737.318029,6365.771101,76.609550
544.998654,5921.647536,6587.832884,919.314598
544.998975,4071.132681,6735.874072,-2068.457845
544.999296,4515.256246,7179.997637,-1455.581446
544.999616,6439.791695,8512.368333,306.438199
544.999937,5995.668130,9252.574275,0.000000
545.000258,5477.523971,8808.450710,76.609550
545.000578,4959.379811,8290.306550,-842.705048
545.000899,5033.400406,8734.430116,-1455.581446
545.001220,3701.029710,8512.368333,1838.629195
545.001541,5329.482782,9178.553681,3217.601092
545.001861,5625.565159,8142.265362,1378.971896
545.002182,4959.379811,6439.791695,153.219100
545.002503,4367.215058,7624.121203,-459.657299
545.002823,3404.947333,8734.430116,-766.095498
545.003144,3478.967927,6735.874072,76.609550
545.003465,6735.874072,7031.956449,612.876398
545.003786,5921.647536,8142.265362,612.876398
545.004106,5329.482782,9918.759623,536.266849
545.004427,3256.906145,10214.842000,229.828649
545.004748,3701.029710,9400.615463,-1685.410096
545.005068,4737.318029,8660.409521,-1608.800546
545.005389,5699.585753,8660.409521,-536.266849
545.005710,4737.318029,8142.265362,-612.876398
545.006031,5699.585753,8290.306550,0.000000
545.006351,5255.462188,8068.244768,459.657299
545.006672,3404.947333,7550.100608,0.000000
545.006993,4145.153275,8142.265362,-383.047749
545.007313,5033.400406,8438.347739,-842.705048
545.007634,5329.482782,8142.265362,0.000000
545.007955,6587.832884,8068.244768,612.876398
545.008276,6143.709319,8068.244768,229.828649
545.008596,3627.009116,6735.874072,-1608.800546
545.008917,4515.256246,6735.874072,-1225.752797
545.009238,4737.318029,8438.347739,-536.266849
545.009559,4367.215058,9548.656652,-306.438199
545.009879,5551.544565,9104.533087,919.314598
545.010200,8142.265362,8438.347739,459.657299
545.010521,4959.379811,7624.121203,-689.485948
545.010841,3108.864956,6143.709319,-459.657299
545.011162,4589.276840,6735.874072,0.000000
545.011483,6291.750507,7846.182985,0.000000
545.011804,4441.235652,6365.771101,383.047749
545.012124,6735.874072,7105.977043,-536.266849
545.012445,6069.688724,7328.038826,-1762.019645
545.012766,5625.565159,8660.409521,-1378.971896
545.013086,5625.565159,8068.244768,383.047749
545.013407,6143.709319,7550.100608,-842.705048
545.013728,6217.729913,6883.915261,-1685.410096
545.014049,7179.997637,8438.347739,-306.438199
545.014369,5255.462188,8142.265362,-1149.143247
545.014690,5403.503377,9252.574275,-919.314598
545.015011,6291.750507,10214.842000,1072.533697
545.015331,5625.565159,9030.512492,459.657299
545.015652,5033.400406,7624.121203,919.314598
545.015973,4293.194464,6735.874072,383.047749
545.016294,2738.761985,7476.080014,-536.266849
545.016614,2072.576638,7624.121203,612.876398
545.016935,4737.318029,8068.244768,919.314598
545.017256,4737.318029,8512.368333,1072.533697
545.017576,3775.050304,9326.594869,1685.410096
545.017897,3552.988522,10436.903782,995.924147
545.018218,3256.906145,9992.780217,-995.924147
545.018539,3256.906145,9030.512492,-1608.800546
545.018859,6217.729913,8142.265362,459.657299
545.019180,5921.647536,6809.894666,0.000000
545.019501,5551.544565,7402.059420,-306.438199
545.019821,4737.318029,8956.491898,536.266849
545.020142,3404.947333,8660.409521,-689.485948
545.020463,4145.153275,7105.977043,-995.924147
545.020784,7328.038826,6069.688724,0.000000
545.021104,7698.141797,6809.894666,0.000000
545.021425,6957.935855,7476.080014,536.266849
545.021746,5181.441594,6439.791695,-995.924147
545.022066,5181.441594,5921.647536,-2221.676944
545.022387,5847.626942,6957.935855,-1149.143247
545.022708,5773.606348,8882.471304,383.047749
545.023029,5477.523971,9326.594869,-306.438199
545.023349,5625.565159,9474.636058,-1378.971896
545.023670,5107.421000,8512.368333,-1225.752797
545.023991,4811.338623,7994.224174,0.000000
545.024311,3256.906145,7994.224174,1072.533697
545.024632,2072.576638,8068.244768,0.000000
545.024953,2886.803174,7772.162391,459.657299
545.025274,3182.885551,7698.141797,1302.362347
545.025594,4589.276840,8438.347739,1991.848295
545.025915,4293.194464,7105.977043,1072.533697
545.026236,3701.029710,6291.750507,-1225.752797
545.026556,4441.235652,8882.471304,-2145.067394
545.026877,4959.379811,10362.883188,-766.095498
545.027198,4737.318029,8956.491898,-536.266849
545.027519,8882.471304,7179.997637,-1149.143247
545.027839,8216.285956,8512.368333,-995.924147
545.028160,5773.606348,9992.780217,-306.438199
545.028481,5033.400406,8882.471304,383.047749
545.028802,7550.100608,7994.224174,-229.828649
545.029122,6587.832884,7550.100608,0.000000
545.029443,7105.977043,7994.224174,306.438199
545.029764,5403.503377,7031.956449,-153.219100
545.030084,4737.318029,6587.832884,-1532.190996
545.030405,5773.606348,7920.203579,842.705048
545.030726,5921.647536,9178.553681,766.095498
545.031047,4441.235652,8142.265362,0.000000
545.031367,4811.338623,7994.224174,76.609550
545.031688,4589.276840,8660.409521,-612.876398
545.032009,3034.844362,9104.533087,0.000000
545.032329,3775.050304,8142.265362,689.485948
545.032650,5181.441594,8216.285956,0.000000
545.032971,3775.050304,7476.080014,-229.828649
545.033292,3256.906145,8068.244768,-306.438199
545.033612,4441.235652,8512.368333,-306.438199
545.033933,4145.153275,7846.182985,-536.266849
545.034254,6513.812290,7328.038826,1149.143247
545.034574,6217.729913,6883.915261,842.705048
545.034895,6143.709319,6365.771101,-1072.533697
545.035216,4811.338623,7254.018232,0.000000
545.035537,4737.318029,7476.080014,-306.438199
545.035857,4959.379811,8290.306550,-1532.190996
545.036178,5995.668130,9326.594869,-1838.629195
545.036499,5329.482782,8660.409521,-1608.800546
545.036819,7254.018232,8068.244768,-842.705048
545.037140,5107.421000,7772.162391,919.314598
545.037461,3701.029710,9178.553681,612.876398
545.037782,3627.009116,7994.224174,-76.609550
545.038102,3108.864956,7920.203579,-842.705048
545.038423,4441.235652,7846.182985,229.828649
545.038744,4663.297435,7254.018232,995.924147
545.039064,3404.947333,7920.203579,-153.219100
545.039385,4663.297435,8290.306550,-919.314598
545.039706,4367.215058,8808.450710,-383.047749
545.040027,3552.988522,9104.533087,-1072.533697
545.040347,3108.864956,8586.388927,-766.095498
545.040668,4737.318029,8512.368333,153.219100
545.040989,5477.523971,9474.636058,1455.581446
545.041309,5477.523971,9622.677246,1302.362347
545.041630,5033.400406,8586.388927,536.266849
545.041951,4515.256246,8808.450710,-612.876398
545.042272,3923.091493,9400.615463,306.438199
545.042592,3701.029710,8808.450710,1072.533697
545.042913,5329.482782,7179.997637,-306.438199
545.043234,6883.915261,6735.874072,-1225.752797
545.043554,5625.565159,8290.306550,-306.438199
545.043875,3552.988522,8364.327145,-229.828649
545.044196,4293.194464,9992.780217,229.828649
545.044517,4515.256246,9326.594869,76.609550
545.044837,5625.565159,8142.265362,-612.876398
545.045158,5773.606348,8364.327145,-1225.752797
545.045470,4293.194464,8882.471304,-1378.971896
545.045791,3256.906145,8512.368333,153.219100
545.046111,5551.544565,8364.327145,459.657299
545.046432,5551.544565,7624.121203,-229.828649
545.046753,4885.359217,6661.853478,229.828649
545.047074,4737.318029,6883.915261,-229.828649
545.047394,5995.668130,7772.162391,-306.438199
545.047715,5477.523971,6883.915261,1072.533697
545.048036,6735.874072,6735.874072,1225.752797
545.048356,5921.647536,5551.544565,0.000000
545.048677,4737.318029,6883.915261,-459.657299
545.048998,4737.318029,7772.162391,-1302.362347
545.049318,5477.523971,8882.471304,-1149.143247
545.049639,6439.791695,8512.368333,-1072.533697
545.049960,7179.997637,7920.203579,-689.485948
545.050280,6587.832884,7402.059420,-995.924147
545.050601,4959.379811,8438.347739,-536.266849
545.050922,4367.215058,8512.368333,1608.800546
545.051242,3108.864956,7105.977043,536.266849
545.051563,4885.359217,6143.709319,-536.266849
545.051884,4737.318029,6587.832884,0.000000
545.052204,4515.256246,7994.224174,-306.438199
545.052525,4293.194464,8808.450710,0.000000
545.052846,4441.235652,8956.491898,-919.314598
545.053166,3997.112087,8512.368333,-1149.143247
545.053487,4441.235652,8808.450710,-919.314598
545.053808,4219.173869,9474.636058,-459.657299
545.054128,5255.462188,9770.718434,-459.657299
545.054449,4737.318029,10066.800811,229.828649
545.054770,5329.482782,10436.903782,306.438199
545.055090,4737.318029,9548.656652,842.705048
545.055411,4737.318029,8364.327145,153.219100
545.055732,3627.009116,7624.121203,0.000000
545.056052,4071.132681,8290.306550,612.876398
545.056373,3997.112087,7772.162391,1149.143247
545.056694,5329.482782,7328.038826,-306.438199
545.057014,5699.585753,7105.977043,383.047749
545.057335,4663.297435,8068.244768,689.485948
545.057656,3182.885551,8808.450710,459.657299
545.057977,3923.091493,8512.368333,0.000000
545.058297,4589.276840,8734.430116,-1225.752797
545.058618,5773.606348,9326.594869,-766.095498
545.058939,6439.791695,8956.491898,-306.438199
545.059259,5403.503377,8734.430116,-995.924147
545.059580,5699.585753,8290.306550,-1072.533697
545.059901,3552.988522,7328.038826,-766.095498
545.060221,4219.173869,5921.647536,-1072.533697
545.060542,6439.791695,6957.935855,-536.266849
545.060863,6883.915261,7994.224174,-153.219100
545.061183,4145.153275,7476.080014,-995.924147
545.061504,5107.421000,7254.018232,-383.047749
545.061825,4737.318029,7105.977043,0.000000
545.062145,4589.276840,7476.080014,229.828649
545.062466,4071.132681,7179.997637,229.828649
545.062787,5403.503377,8882.471304,-1838.629195
545.063107,4071.132681,9400.615463,-1762.019645
545.063428,5477.523971,9178.553681,-153.219100
545.063749,5551.544565,8660.409521,1608.800546
545.064069,4737.318029,9030.512492,1838.629195
545.064390,3478.967927,8586.388927,2221.676944
545.064711,4293.194464,7328.038826,536.266849
545.065031,3627.009116,5477.523971,-612.876398
545.065352,4885.359217,5699.585753,306.438199
545.065673,5107.421000,5625.565159,459.657299
545.065993,5995.668130,6957.935855,-1302.362347
545.066314,7105.977043,8882.471304,-459.657299
545.066635,5329.482782,10881.027347,-995.924147
545.066955,5181.441594,10066.800811,-1685.410096
545.067276,6661.853478,8142.265362,-1225.752797
545.067597,7105.977043,7920.203579,-1072.533697
545.067918,6143.709319,7994.224174,612.876398
545.068238,5921.647536,7550.100608,229.828649
545.068559,5107.421000,8290.306550,-1072.533697
545.068880,4071.132681,8290.306550,-1378.971896
545.069200,5107.421000,8956.491898,-612.876398
545.069521,5107.421000,8438.347739,153.219100
545.069842,4663.297435,7772.162391,-383.047749
545.070162,4737.318029,7254.018232,0.000000
545.070483,4071.132681,7402.059420,766.095498
545.070804,3330.926739,8956.491898,919.314598
545.071124,2294.638420,9992.780217,612.876398
545.071445,3404.947333,10955.047942,-1302.362347
545.071766,4441.235652,10584.944971,-1532.190996
545.072086,3849.070898,10066.800811,-306.438199
545.072407,3775.050304,8216.285956,995.924147
545.072728,4441.235652,6291.750507,1149.143247
545.073048,2590.720797,6513.812290,689.485948
545.073369,2442.679609,8512.368333,306.438199
545.073690,3849.070898,9844.739029,612.876398
545.074010,6439.791695,9252.574275,-306.438199
545.074331,8142.265362,8512.368333,-306.438199
545.074652,6735.874072,7179.997637,0.000000
545.074972,5551.544565,5847.626942,0.000000
545.075293,5255.462188,5033.400406,0.000000
545.075614,5403.503377,5921.647536,-1225.752797
545.075934,6143.709319,7550.100608,-1532.190996
545.076255,7698.141797,10288.862594,-2374.896044
545.076576,6735.874072,9548.656652,-2221.676944
545.076896,7031.956449,8660.409521,-842.705048
545.077217,7402.059420,8512.368333,1149.143247
545.077538,5847.626942,8734.430116,995.924147
545.077858,2516.700203,7254.018232,153.219100
545.078179,3478.967927,7031.956449,-766.095498
545.078500,3627.009116,8068.244768,-306.438199
545.078821,3775.050304,7624.121203,842.705048
545.079141,3775.050304,7105.977043,2068.457845
545.079462,5773.606348,8586.388927,612.876398
545.079783,2812.782580,9696.697840,842.705048
545.080103,1480.411884,9474.636058,612.876398
545.080424,2442.679609,7105.977043,0.000000
545.080745,5847.626942,7031.956449,689.485948
545.081065,5921.647536,7476.080014,2068.457845
545.081386,5403.503377,8882.471304,-766.095498
545.081707,4737.318029,8660.409521,-2834.553343
545.082027,5403.503377,7920.203579,-1915.238745
545.082348,7698.141797,7550.100608,229.828649
545.082669,6809.894666,8512.368333,1149.143247
545.082989,6883.915261,7994.224174,0.000000
545.083310,6291.750507,7994.224174,-919.314598
545.083631,5995.668130,6069.688724,229.828649
545.083951,6291.750507,6217.729913,1608.800546
545.084272,6291.750507,6365.771101,612.876398
545.084593,4145.153275,5847.626942,-2145.067394
545.084913,6587.832884,7179.997637,-2528.115143
545.085234,5847.626942,8142.265362,-842.705048
545.085555,5181.441594,8512.368333,383.047749
545.085875,6217.729913,8438.347739,306.438199
545.086196,5329.482782,7994.224174,-612.876398
545.086517,3775.050304,8438.347739,-995.924147
545.086837,4663.297435,9178.553681,-459.657299
545.087158,4071.132681,9252.574275,-766.095498
545.087479,3849.070898,8734.430116,-1302.362347
545.087799,3034.844362,8290.306550,0.000000
545.088120,2960.823768,8512.368333,153.219100
545.088441,3108.864956,8438.347739,995.924147
545.088761,3108.864956,7920.203579,1532.190996
545.089082,3775.050304,8512.368333,-229.828649
545.089403,3330.926739,10584.944971,-536.266849
545.089724,2368.659014,10214.842000,306.438199
545.090044,6513.812290,9178.553681,536.266849
545.090365,7105.977043,7550.100608,1608.800546
545.090686,5403.503377,8512.368333,1225.752797
545.091006,3997.112087,8512.368333,-689.485948
545.091327,3775.050304,7402.059420,-2451.505594
545.091648,7179.997637,7994.224174,-1838.629195
545.091968,7476.080014,6883.915261,76.609550
545.092289,7476.080014,6069.688724,-383.047749
545.092610,7402.059420,8586.388927,-766.095498
545.092930,6143.709319,9696.697840,-689.485948
545.093251,4145.153275,8660.409521,-689.485948
545.093572,8660.409521,6661.853478,536.266849
545.093892,7402.059420,7105.977043,-459.657299
545.094213,6809.894666,7105.977043,-842.705048
545.094534,5847.626942,7179.997637,0.000000
545.094854,6143.709319,7105.977043,-689.485948
545.095175,6883.915261,6735.874072,689.485948
545.095496,8586.388927,7328.038826,1608.800546
545.095816,6587.832884,5625.565159,76.609550
545.096137,6291.750507,5477.523971,842.705048
545.096458,7920.203579,5847.626942,2528.115143
545.096778,9844.739029,5329.482782,1838.629195
545.097099,9770.718434,3923.091493,153.219100
545.097420,8956.491898,3034.844362,-1838.629195
545.097740,9104.533087,4219.173869,-2451.505594
545.098061,9474.636058,5107.421000,-842.705048
545.098382,10807.006753,6143.709319,-766.095498
545.098702,10955.047942,6439.791695,-689.485948
545.099023,9844.739029,6291.750507,-612.876398
545.099344,8660.409521,5847.626942,0.000000
545.099664,7254.018232,5107.421000,-842.705048
545.099985,7920.203579,4367.215058,-919.314598
545.100306,9030.512492,5403.503377,-229.828649
545.100627,7624.121203,4219.173869,-995.924147
545.100947,8216.285956,4737.318029,-995.924147
545.101268,9474.636058,6143.709319,919.314598
545.101589,9474.636058,7328.038826,1838.629195
545.101909,9992.780217,6661.853478,2451.505594
545.102230,8882.471304,4885.359217,-459.657299
545.102551,8438.347739,3775.050304,-1225.752797
545.102871,11103.089130,4589.276840,1455.581446
545.103192,11177.109724,4663.297435,2451.505594
545.103513,12139.377449,4885.359217,0.000000
545.103833,11399.171507,4737.318029,-2145.067394
545.104154,9622.677246,4589.276840,-3064.381992
545.104475,10881.027347,4441.235652,0.000000
545.104795,12953.603985,5699.585753,3294.210641
545.105116,11103.089130,4293.194464,1378.971896
545.105437,10881.027347,3849.070898,-1532.190996
545.105757,11325.150913,5625.565159,-1762.019645
545.106078,8290.306550,5995.668130,-1378.971896
545.106399,8586.388927,5107.421000,229.828649
545.106719,10066.800811,5477.523971,459.657299
545.107040,9178.553681,6809.894666,-919.314598
545.107361,7179.997637,7920.203579,-383.047749
545.107681,5699.585753,7624.121203,-995.924147
545.108002,5773.606348,7476.080014,-1378.971896
545.108323,6587.832884,6809.894666,1302.362347
545.108643,6661.853478,5773.606348,1838.629195
545.108964,7402.059420,5921.647536,-153.219100
545.109285,6069.688724,7254.018232,-383.047749
545.109605,6143.709319,7476.080014,383.047749
545.109926,7402.059420,6143.709319,1532.190996
545.110247,9844.739029,5181.441594,919.314598
545.110568,10214.842000,5329.482782,0.000000
545.110888,9844.739029,5625.565159,-689.485948
545.111209,10066.800811,4737.318029,0.000000
545.111530,11177.109724,4515.256246,1149.143247
545.111850,12065.356855,2590.720797,1455.581446
545.112171,12361.439231,3330.926739,-766.095498
545.112492,11399.171507,4737.318029,-1991.848295
545.112812,11473.192101,4811.338623,-1685.410096
545.113133,12213.398043,3997.112087,-766.095498
545.113454,11547.212695,2590.720797,-459.657299
545.113774,11621.233289,4589.276840,-1225.752797
545.114095,10881.027347,7105.977043,-2298.286494
545.114416,8512.368333,7698.141797,-2681.334243
545.114736,9178.553681,6661.853478,-1149.143247
545.115057,8956.491898,4367.215058,536.266849
545.115378,7920.203579,4441.235652,1532.190996
545.115698,5403.503377,5921.647536,919.314598
545.116019,4219.173869,7476.080014,-153.219100
545.116340,5995.668130,7994.224174,0.000000
545.116660,6809.894666,6587.832884,1149.143247
545.116981,5921.647536,4737.318029,1302.362347
545.117302,6809.894666,5995.668130,306.438199
545.117622,6735.874072,8142.265362,229.828649
545.117943,6365.771101,9104.533087,0.000000
545.118264,8364.327145,7550.100608,1072.533697
545.118584,9104.533087,4441.235652,2145.067394
545.118905,8882.471304,4663.297435,1991.848295
545.119226,9104.533087,5551.544565,995.924147
545.119546,10362.883188,5773.606348,-1608.800546
545.119867,11177.109724,4367.215058,-1991.848295
545.120188,13249.686362,3330.926739,-612.876398
545.120508,13915.871710,3256.906145,689.485948
545.120829,12509.480420,3627.009116,0.000000
545.121150,12805.562797,3701.029710,-1838.629195
545.121471,12583.501014,5329.482782,-2374.896044
545.121791,11843.295072,5403.503377,-1608.800546
545.122112,12139.377449,5255.462188,-536.266849
545.122433,11843.295072,5551.544565,229.828649
545.122753,9918.759623,6291.750507,-689.485948
545.123074,6365.771101,5921.647536,-689.485948
545.123395,5921.647536,4811.338623,-1532.190996
545.123715,6883.915261,4811.338623,-995.924147
545.124036,7698.141797,6735.874072,2145.067394
545.124357,7105.977043,7328.038826,2068.457845
545.124677,6365.771101,7772.162391,766.095498
545.124998,5181.441594,7105.977043,842.705048
545.125319,5255.462188,5551.544565,842.705048
545.125639,5773.606348,3775.050304,919.314598
545.125960,7846.182985,3478.967927,842.705048
545.126281,9326.594869,5255.462188,0.000000
545.126601,9400.615463,6809.894666,-689.485948
545.126922,10214.842000,7179.997637,-766.095498
545.127243,11547.212695,6143.709319,0.000000
545.127563,12361.439231,4071.132681,689.485948
545.127884,13101.645173,2812.782580,536.266849
545.128205,12287.418637,2072.576638,-612.876398
545.128525,11917.315666,1850.514855,-2374.896044
545.128846,13175.665768,2664.741391,-1685.410096
545.129167,14508.036463,4441.235652,-766.095498
545.129487,14137.933492,5329.482782,-842.705048
545.129808,12731.542202,6143.709319,-1762.019645
545.130129,11177.109724,6291.750507,-2221.676944
545.130449,9252.574275,5033.400406,-689.485948
545.130770,9104.533087,4293.194464,1072.533697
545.131091,8808.450710,4737.318029,919.314598
545.131411,7179.997637,5847.626942,-689.485948
545.131732,5773.606348,7328.038826,-1455.581446
545.132053,5551.544565,8364.327145,-919.314598
545.132374,6291.750507,8586.388927,1149.143247
545.132694,7031.956449,7698.141797,2451.505594
545.133015,6587.832884,6883.915261,2298.286494
545.133336,5773.606348,6291.750507,1149.143247
545.133656,5847.626942,6069.688724,459.657299
545.133977,5773.606348,5551.544565,536.266849
545.134298,7846.182985,4589.276840,1149.143247
545.134618,9474.636058,5033.400406,459.657299
545.134939,10214.842000,6217.729913,-995.924147
545.135260,10807.006753,7179.997637,-1762.019645
545.135580,11843.295072,6809.894666,-1149.143247
545.135901,11917.315666,5107.421000,229.828649
545.136222,11843.295072,3552.988522,1225.752797
545.136542,11621.233289,3923.091493,459.657299
545.136863,10584.944971,5255.462188,-1378.971896
545.137184,9844.739029,5699.585753,-2528.115143
545.137504,10658.965565,5403.503377,-2221.676944
545.137825,10658.965565,4589.276840,-1455.581446
545.138146,9992.780217,3627.009116,-306.438199
545.138466,9178.553681,4219.173869,383.047749
545.138787,7772.162391,5329.482782,383.047749
545.139108,7031.956449,5329.482782,1302.362347
545.139428,7476.080014,5107.421000,919.314598
545.139749,8364.327145,4589.276840,0.000000
545.140070,7920.203579,5477.523971,-766.095498
545.140390,7105.977043,7328.038826,-689.485948
545.140711,7550.100608,7846.182985,-995.924147
545.141032,8438.347739,7328.038826,-383.047749
545.141352,8660.409521,6365.771101,229.828649
545.141673,8586.388927,5403.503377,612.876398
545.141994,8512.368333,4737.318029,536.266849
545.142315,7994.224174,4515.256246,842.705048
545.142635,8808.450710,3701.029710,919.314598
545.142956,10955.047942,2664.741391,689.485948
545.143277,11769.274478,3256.906145,0.000000
545.143597,10881.027347,4441.235652,-536.266849
545.143918,10214.842000,5181.441594,-1302.362347
545.144239,11843.295072,5699.585753,-1838.629195
545.144559,12435.459826,5773.606348,-1225.752797
545.144880,12287.418637,5921.647536,-766.095498
545.145200,11843.295072,5921.647536,-919.314598
545.145521,10510.924376,5551.544565,-612.876398
545.145842,9622.677246,5403.503377,612.876398
545.146162,9400.615463,4885.359217,1072.533697
545.146483,9622.677246,4811.338623,536.266849
545.146804,8956.491898,5181.441594,-612.876398
545.147124,7772.162391,5181.441594,-383.047749
545.147445,8068.244768,4737.318029,-383.047749
545.147766,7994.224174,4663.297435,0.000000
545.148086,8364.327145,5847.626942,-536.266849
545.148407,9030.512492,7402.059420,-1072.533697
545.148727,8660.409521,8586.388927,-612.876398
545.149048,8586.388927,8734.430116,919.314598
545.149369,9104.533087,7254.018232,1915.238745
545.149689,9104.533087,6217.729913,2451.505594
545.150010,8512.368333,5181.441594,1685.410096
545.150331,7772.162391,4737.318029,689.485948
545.150651,8216.285956,3627.009116,0.000000
545.150972,9326.594869,2886.803174,-153.219100
545.151292,9992.780217,3108.864956,0.000000
545.151613,10510.924376,4811.338623,-612.876398
545.151934,10362.883188,6883.915261,-766.095498
545.152254,10214.842000,8142.265362,-689.485948
545.152575,9992.780217,8142.265362,306.438199
545.152896,8956.491898,7550.100608,919.314598
545.153216,7994.224174,6513.812290,766.095498
545.153537,6069.688724,6291.750507,995.924147
545.153857,5403.503377,6291.750507,-383.047749
545.154178,5329.482782,5329.482782,-383.047749
545.154499,5403.503377,5551.544565,0.000000
545.154819,4959.379811,6513.812290,306.438199
545.155140,4811.338623,8142.265362,1225.752797
545.155461,4885.359217,10288.862594,1915.238745
545.155781,5625.565159,10881.027347,2604.724693
545.156102,5995.668130,10510.924376,2987.772442
545.156422,5921.647536,9474.636058,3447.429741
545.156743,5625.565159,8586.388927,3064.381992
545.157064,5181.441594,8586.388927,3370.820191
545.157384,5033.400406,8808.450710,4060.306139
545.157705,5773.606348,8956.491898,3677.258390
545.158026,6957.935855,8734.430116,3217.601092
545.158346,6365.771101,8290.306550,4596.572988
545.158667,6217.729913,7846.182985,5362.668486
545.158987,6069.688724,7402.059420,5209.449386
545.159308,6513.812290,7698.141797,4979.620737
545.159629,7846.182985,7698.141797,5439.278036
545.159949,7476.080014,8734.430116,5592.497135
545.160270,7476.080014,8956.491898,5592.497135
545.160591,7402.059420,8956.491898,5822.325785
545.160911,7328.038826,9030.512492,5822.325785
545.161232,7105.977043,8216.285956,6281.983084
545.161552,6809.894666,7105.977043,6281.983084
545.161873,6513.812290,6439.791695,5745.716235
545.162194,5847.626942,5477.523971,6128.763984
545.162514,5255.462188,5181.441594,6511.811733
545.162835,5773.606348,6513.812290,6281.983084
545.163156,5921.647536,7476.080014,6435.202183
545.163476,5033.400406,8216.285956,6205.373534
545.163797,5033.400406,7920.203579,6205.373534
545.164117,4885.359217,7254.018232,6665.030833
545.164438,4737.318029,6735.874072,7584.345430
545.164759,3404.947333,6661.853478,7507.735880
545.165079,3182.885551,5995.668130,6971.469032
545.165400,2590.720797,6365.771101,6205.373534
545.165721,2220.617826,6957.935855,6128.763984
545.166041,2590.720797,6587.832884,6358.592633
545.166362,2368.659014,6809.894666,6205.373534
545.166683,2368.659014,7105.977043,6665.030833
545.167003,2442.679609,7105.977043,6971.469032
545.167324,2590.720797,6957.935855,7124.688131
545.167644,2738.761985,7328.038826,6894.859482
545.167965,3627.009116,7698.141797,6205.373534
545.168286,4071.132681,7328.038826,5286.058936
545.168606,3997.112087,7105.977043,4979.620737
545.168927,4071.132681,6069.688724,4519.963438
545.169248,4219.173869,5847.626942,4826.401637
545.169568,3701.029710,4811.338623,4519.963438
545.169889,3627.009116,5329.482782,3370.820191
545.170209,4441.235652,5773.606348,2681.334243
545.170530,5625.565159,7328.038826,2681.334243
545.170851,6365.771101,8512.368333,2757.943793
545.171171,6735.874072,9770.718434,2757.943793
545.171492,7105.977043,10288.862594,2681.334243
545.171813,7105.977043,10584.944971,2911.162892
545.172133,7179.997637,10362.883188,4290.134789
545.172454,6291.750507,10584.944971,4366.744339
545.172774,5403.503377,10362.883188,5209.449386
545.173095,4959.379811,9918.759623,6052.154434
545.173416,4293.194464,8808.450710,6435.202183
545.173736,2738.761985,6291.750507,5362.668486
545.174057,2220.617826,3478.967927,3907.087040
545.174378,2738.761985,1850.514855,2757.943793
545.174698,3775.050304,3552.988522,1915.238745
545.175019,5847.626942,7772.162391,612.876398
545.175339,8068.244768,12213.398043,-919.314598
545.175660,9770.718434,16506.592507,-1608.800546
545.175981,10881.027347,19023.292709,76.609550
545.176301,10584.944971,17987.004391,2987.772442
545.176622,9474.636058,14285.974681,5209.449386
545.176943,7624.121203,9474.636058,7354.516781
545.177263,5847.626942,7179.997637,7431.126331
545.177584,2738.761985,5921.647536,6665.030833
545.177904,888.247130,5329.482782,5439.278036
545.178225,962.267725,4515.256246,3983.696590
545.178546,3330.926739,4219.173869,3830.477490
545.178866,3182.885551,4367.215058,3753.867940
545.179187,4589.276840,6143.709319,3370.820191
545.179508,6217.729913,9474.636058,3064.381992
545.179828,6661.853478,13027.624579,2681.334243
545.180149,6143.709319,14211.954086,2068.457845
545.180469,8068.244768,15322.262999,1455.581446
545.180790,9104.533087,14804.118840,2451.505594
545.181111,6217.729913,11843.295072,4290.134789
545.181431,4367.215058,6809.894666,5362.668486
545.181752,5329.482782,4663.297435,6588.421283
545.182073,1036.288319,4441.235652,6588.421283
545.182393,592.164754,5773.606348,6128.763984
545.182714,4071.132681,6587.832884,4979.620737
545.183034,5403.503377,7105.977043,5515.887586
545.183355,3923.091493,6735.874072,7660.954980
545.183676,4811.338623,5921.647536,9959.241474
545.183996,6439.791695,8882.471304,9882.631924
545.184317,3775.050304,11695.253884,7660.954980
545.184638,1998.556043,11029.068536,4366.744339
545.184958,3997.112087,7698.141797,2987.772442
545.185279,4737.318029,4441.235652,4443.353888
545.185600,4515.256246,4959.379811,9269.755526
545.185920,4737.318029,7994.224174,9499.584175
545.186241,1998.556043,9992.780217,4903.011187
545.186561,2220.617826,10140.821405,3140.991542
545.186882,3552.988522,6735.874072,5286.058936
545.187203,4737.318029,2664.741391,7048.078582
545.187523,5699.585753,1702.473667,7354.516781
545.187844,6957.935855,6069.688724,6894.859482
545.188165,5921.647536,11029.068536,5975.544884
545.188485,4071.132681,10881.027347,4826.401637
545.188806,4959.379811,8216.285956,4826.401637
545.189126,5033.400406,5699.585753,5975.544884
545.189447,3256.906145,3997.112087,9039.926876
545.189768,3552.988522,5773.606348,10495.508323
545.190088,3849.070898,8364.327145,8656.879127
545.190409,2368.659014,11103.089130,5209.449386
545.190730,3775.050304,11103.089130,3983.696590
545.191050,4885.359217,10658.965565,3830.477490
545.191371,3108.864956,7772.162391,4596.572988
545.191691,3330.926739,5107.421000,6281.983084
545.192012,5255.462188,4071.132681,7201.297681
545.192333,5181.441594,5255.462188,6818.249932
545.192653,2886.803174,5773.606348,5898.935335
545.192974,3552.988522,6809.894666,4060.306139
545.193295,6439.791695,9844.739029,3600.648841
545.193615,4811.338623,12361.439231,5286.058936
545.193936,5773.606348,11769.274478,6128.763984
545.194256,8438.347739,10584.944971,5362.668486
545.194577,7105.977043,9326.594869,3753.867940
545.194898,3997.112087,5847.626942,2068.457845
545.195218,4589.276840,3923.091493,153.219100
545.195539,5995.668130,6439.791695,2298.286494
545.195860,5329.482782,10140.821405,6281.983084
545.196180,5699.585753,11769.274478,7201.297681
545.196501,7031.956449,11843.295072,4826.401637
545.196821,5033.400406,12139.377449,3370.820191
545.197142,3182.885551,10140.821405,4290.134789
545.197463,4737.318029,7624.121203,5362.668486
545.197783,4441.235652,6291.750507,5286.058936
545.198104,4293.194464,7031.956449,5822.325785
545.198425,4737.318029,8808.450710,3983.696590
545.198745,4589.276840,9918.759623,1838.629195
545.199066,4811.338623,11251.130318,2834.553343
545.199386,6587.832884,11325.150913,5745.716235
545.199707,7994.224174,10140.821405,6052.154434
545.200028,6883.915261,8142.265362,5362.668486
545.200348,5033.400406,8734.430116,5209.449386
545.200669,4811.338623,8734.430116,4826.401637
545.200990,4441.235652,8216.285956,3983.696590
545.201310,5551.544565,7105.977043,3217.601092
545.201631,6217.729913,7105.977043,3217.601092
545.201951,6365.771101,7698.141797,4366.744339
545.202272,4293.194464,7105.977043,3753.867940
545.202593,3330.926739,7402.059420,3677.258390
545.202913,4441.235652,7698.141797,3677.258390
545.203234,5551.544565,7105.977043,3907.087040
545.203555,5699.585753,6883.915261,4673.182538
545.203875,6883.915261,9622.677246,5515.887586
545.204196,4441.235652,10584.944971,5822.325785
545.204517,2368.659014,8586.388927,4213.525239
545.204837,2368.659014,5995.668130,3524.039291
545.205158,4589.276840,6069.688724,4519.963438
545.205478,5033.400406,7179.997637,5745.716235
545.205799,4515.256246,7994.224174,5898.935335
545.206120,3182.885551,9252.574275,5132.839837
545.206440,2146.597232,8290.306550,5362.668486
545.206761,3552.988522,5477.523971,5745.716235
545.207082,5181.441594,3552.988522,5209.449386
545.207402,5995.668130,7254.018232,4519.963438
545.207723,4737.318029,11251.130318,3830.477490
545.208043,4219.173869,10955.047942,3294.210641
545.208364,5699.585753,8216.285956,4519.963438
545.208685,6661.853478,9178.553681,7354.516781
545.209005,5403.503377,9992.780217,7507.735880
545.209326,2220.617826,7772.162391,3907.087040
545.209647,2368.659014,5773.606348,2987.772442
545.209967,4515.256246,4367.215058,4826.401637
545.210288,4959.379811,3478.967927,5822.325785
545.210608,5329.482782,4959.379811,4673.182538
545.210929,4367.215058,9104.533087,2681.334243
545.211250,3478.967927,9770.718434,1455.581446
545.211570,5329.482782,7846.182985,459.657299
545.211891,7402.059420,6809.894666,2451.505594
545.212212,7402.059420,7624.121203,5286.058936
545.212532,6735.874072,9474.636058,5745.716235
545.212853,4663.297435,9474.636058,1608.800546
545.213173,3627.009116,8734.430116,-1149.143247
545.213494,5329.482782,8290.306550,1532.190996
545.213815,5995.668130,7105.977043,4826.401637
545.214135,4293.194464,6291.750507,5286.058936
545.214456,3849.070898,6957.935855,2757.943793
545.214777,2812.782580,6957.935855,1225.752797
545.215097,2886.803174,6069.688724,1149.143247
545.215418,3997.112087,6883.915261,2834.553343
545.215738,5699.585753,10066.800811,2911.162892
545.216059,5625.565159,11251.130318,1455.581446
545.216380,5551.544565,11547.212695,995.924147
545.216700,6439.791695,11399.171507,2145.067394
545.217021,5255.462188,10288.862594,3907.087040
545.217342,3627.009116,8734.430116,3983.696590
545.217662,3182.885551,7105.977043,459.657299
545.217983,3923.091493,6439.791695,-842.705048
545.218303,4589.276840,6143.709319,306.438199
545.218624,5329.482782,5181.441594,536.266849
545.218945,6069.688724,5625.565159,0.000000
545.219265,6365.771101,7550.100608,-459.657299
545.219586,6809.894666,8216.285956,-1378.971896
545.219907,7328.038826,8734.430116,-1762.019645
545.220227,8438.347739,9474.636058,-842.705048
545.220548,7476.080014,9918.759623,0.000000
545.220868,7402.059420,8882.471304,-919.314598
545.221189,6661.853478,8290.306550,-1608.800546
545.221510,7105.977043,8882.471304,-1608.800546
545.221830,5107.421000,8142.265362,-1915.238745
545.222151,4071.132681,7550.100608,-2834.553343
545.222472,3478.967927,6513.812290,-1378.971896
545.222792,2886.803174,6513.812290,1072.533697
545.223113,3923.091493,7105.977043,2145.067394
545.223434,6069.688724,8734.430116,153.219100
545.223754,3404.947333,8512.368333,-2528.115143
545.224075,2886.803174,8142.265362,-2374.896044
545.224395,5551.544565,9178.553681,383.047749
545.224716,6143.709319,9992.780217,1991.848295
545.225037,5773.606348,9770.718434,1302.362347
545.225357,6439.791695,10658.965565,-919.314598
545.225678,5551.544565,10436.903782,-689.485948
545.225999,3775.050304,8734.430116,1915.238745
545.226319,4811.338623,5773.606348,1455.581446
545.226640,3478.967927,3701.029710,-1838.629195
545.226960,3923.091493,4811.338623,-1838.629195
545.227281,5181.441594,7105.977043,-1072.533697
545.227602,6365.771101,7550.100608,-1991.848295
545.227922,6809.894666,9400.615463,-2911.162892
545.228243,7624.121203,11251.130318,-2604.724693
545.228564,6957.935855,11251.130318,-1378.971896
545.228884,7846.182985,10955.047942,1072.533697
545.229205,7624.121203,10732.986159,1608.800546
545.229525,6069.688724,8512.368333,-689.485948
545.229846,4589.276840,7254.018232,-1762.019645
545.230167,4663.297435,7550.100608,-1072.533697
545.230487,4293.194464,8734.430116,0.000000
545.230808,5625.565159,9474.636058,1685.410096
545.231129,4663.297435,8216.285956,1685.410096
545.231449,3034.844362,7031.956449,1302.362347
545.231770,3034.844362,5995.668130,2451.505594
545.232090,3849.070898,6143.709319,536.266849
545.232411,3182.885551,6365.771101,-229.828649
545.232732,4959.379811,8882.471304,536.266849
545.233052,5699.585753,10214.842000,1225.752797
545.233373,5551.544565,10362.883188,766.095498
545.233694,5107.421000,10288.862594,1149.143247
545.234014,4145.153275,8142.265362,689.485948
545.234335,4219.173869,5921.647536,-153.219100
545.234655,5107.421000,4811.338623,-383.047749
545.234976,3849.070898,4367.215058,-536.266849
545.235297,3256.906145,5033.400406,-612.876398
545.235617,4885.359217,6587.832884,0.000000
545.235938,4293.194464,6957.935855,-76.609550
545.236259,6291.750507,7476.080014,-1685.410096
545.236579,5551.544565,7624.121203,-2221.676944
545.236900,4811.338623,6143.709319,-2451.505594
545.237220,5107.421000,4589.276840,-536.266849
545.237541,6513.812290,6069.688724,-1225.752797
545.237862,4663.297435,7328.038826,-2221.676944
545.238182,5033.400406,8290.306550,-3907.087040
545.238503,5477.523971,7994.224174,-3677.258390
545.238824,5699.585753,7698.141797,-1762.019645
545.239144,5255.462188,6883.915261,1838.629195
545.239465,4737.318029,7698.141797,842.705048
545.239785,3478.967927,6809.894666,-2145.067394
545.240106,3701.029710,6661.853478,-2374.896044
545.240427,4737.318029,6439.791695,-1532.190996
545.240747,5921.647536,6587.832884,-1685.410096
545.241068,7105.977043,9030.512492,-1608.800546
545.241389,5847.626942,10881.027347,-2451.505594
545.241709,5329.482782,10362.883188,-2451.505594
545.242030,7105.977043,11325.150913,-919.314598
545.242351,6883.915261,10584.944971,459.657299
545.242671,5181.441594,8734.430116,0.000000
545.242992,6661.853478,7994.224174,-2451.505594
545.243312,5033.400406,8956.491898,-2451.505594
545.243633,5033.400406,8808.450710,-1455.581446
545.243954,6365.771101,7476.080014,-689.485948
545.244274,6513.812290,7550.100608,-2681.334243
545.244595,4885.359217,9400.615463,-1455.581446
545.244916,5033.400406,10288.862594,-689.485948
545.245236,5477.523971,8586.388927,-2681.334243
545.245557,6439.791695,8660.409521,-2068.457845
545.245877,7105.977043,10288.862594,0.000000
545.246198,6291.750507,11325.150913,-1532.190996
545.246519,4367.215058,10807.006753,-2987.772442
545.246839,5033.400406,9918.759623,-2604.724693
545.247160,5625.565159,9474.636058,-1685.410096
545.247480,5551.544565,10066.800811,306.438199
545.247801,3701.029710,9474.636058,1608.800546
545.248122,3997.112087,8364.327145,766.095498
545.248442,3256.906145,6587.832884,76.609550
545.248763,2442.679609,6513.812290,383.047749
545.249083,2368.659014,5847.626942,1762.019645
545.249404,5625.565159,7772.162391,995.924147
545.249724,5921.647536,9696.697840,0.000000
545.250045,3627.009116,8586.388927,-1685.410096
545.250365,5033.400406,7402.059420,-1608.800546
545.250686,7402.059420,7105.977043,766.095498
545.251006,5181.441594,7402.059420,1608.800546
545.251327,5033.400406,7920.203579,-612.876398
545.251647,6513.812290,8216.285956,-2681.334243
545.251968,6217.729913,8142.265362,-1762.019645
545.252289,7031.956449,7328.038826,1838.629195
545.252609,6143.709319,6513.812290,2451.505594
545.252930,4589.276840,5551.544565,766.095498
545.253250,2664.741391,4885.359217,229.828649
545.253571,4071.132681,4219.173869,306.438199
545.253891,3923.091493,2886.803174,0.000000
545.254212,4959.379811,5403.503377,0.000000
545.254532,5107.421000,8882.471304,-1378.971896
545.254853,4737.318029,10362.883188,-2528.115143
545.255173,4441.235652,9770.718434,-306.438199
545.255494,5773.606348,9548.656652,1915.238745
545.255814,3997.112087,6809.894666,2528.115143
545.256135,3108.864956,5033.400406,1225.752797
545.256455,1406.391290,5107.421000,-1991.848295
545.256776,2960.823768,7698.141797,-2757.943793
545.257097,3923.091493,8734.430116,-536.266849
545.257417,6957.935855,8290.306550,153.219100
545.257738,5847.626942,7772.162391,-536.266849
545.258058,3108.864956,8512.368333,995.924147
545.258379,2516.700203,7476.080014,1455.581446
545.258699,4367.215058,6143.709319,1225.752797
545.259020,5107.421000,5773.606348,306.438199
545.259340,5773.606348,7698.141797,-766.095498
545.259661,5403.503377,9992.780217,-2374.896044
545.259981,4589.276840,10288.862594,-3064.381992
545.260302,5847.626942,9622.677246,-1149.143247
545.260622,7402.059420,10362.883188,-766.095498
545.260943,6439.791695,10362.883188,-1991.848295
545.261264,3108.864956,7402.059420,-995.924147
545.261584,5699.585753,6217.729913,153.219100
545.261905,7105.977043,9030.512492,0.000000
545.262225,4737.318029,10732.986159,-1149.143247
545.262546,4145.153275,10140.821405,-3140.991542
545.262866,7920.203579,10066.800811,-2145.067394
545.263187,7179.997637,9696.697840,229.828649
545.263507,5255.462188,9030.512492,1072.533697
545.263828,5477.523971,7550.100608,-766.095498
545.264148,5033.400406,8364.327145,-842.705048
545.264469,4515.256246,9030.512492,1608.800546
545.264789,6365.771101,9548.656652,919.314598
545.265110,7031.956449,9622.677246,-1762.019645
545.265431,4885.359217,9696.697840,-919.314598
545.265751,4737.318029,9326.594869,1302.362347
545.266072,5033.400406,8956.491898,1302.362347
545.266392,3478.967927,5773.606348,0.000000
545.266713,4071.132681,4959.379811,0.000000
545.267033,4737.318029,5921.647536,0.000000
545.267354,4589.276840,8660.409521,-229.828649
545.267674,4959.379811,10807.006753,-1302.362347
545.267995,6661.853478,11251.130318,-2528.115143
545.268315,6439.791695,9178.553681,-1915.238745
545.268636,5107.421000,8068.244768,1302.362347
545.268956,4811.338623,7476.080014,1991.848295
545.269277,3552.988522,6143.709319,-536.266849
545.269598,2886.803174,5033.400406,-2987.772442
545.269918,3627.009116,6587.832884,-3600.648841
545.270239,5329.482782,8438.347739,0.000000
545.270559,6661.853478,9400.615463,1762.019645
545.270880,7105.977043,8512.368333,-306.438199
545.271200,4145.153275,8142.265362,-1455.581446
545.271521,3108.864956,7105.977043,459.657299
545.271841,4145.153275,5699.585753,3600.648841
545.272162,5921.647536,5329.482782,4136.915689
545.272482,5033.400406,7179.997637,1685.410096
545.272803,3478.967927,7772.162391,-2528.115143
545.273123,1554.432478,6587.832884,-3370.820191
545.273444,4367.215058,6587.832884,-766.095498
545.273764,6735.874072,7994.224174,2298.286494
545.274085,6513.812290,9696.697840,995.924147
545.274406,2368.659014,7476.080014,-1608.800546
545.274726,2664.741391,7105.977043,-842.705048
545.275047,5255.462188,7846.182985,2221.676944
545.275367,5033.400406,8512.368333,2451.505594
545.275688,4145.153275,8808.450710,-1302.362347
545.276008,5403.503377,9474.636058,-3983.696590
545.276329,6217.729913,8882.471304,-1532.190996
545.276649,5477.523971,7994.224174,2451.505594
545.276970,5107.421000,6217.729913,1532.190996
545.277290,3330.926739,6587.832884,-1072.533697
545.277611,4293.194464,9030.512492,-995.924147
545.277931,5033.400406,9844.739029,0.000000
545.278252,5921.647536,8512.368333,153.219100
545.278573,6217.729913,7254.018232,0.000000
545.278893,6513.812290,9178.553681,153.219100
545.279214,4367.215058,11103.089130,153.219100
545.279534,4145.153275,10658.965565,0.000000
545.279855,4589.276840,7476.080014,-306.438199
545.280175,5625.565159,5847.626942,306.438199
545.280496,3923.091493,6661.853478,2451.505594
545.280816,3997.112087,8438.347739,2451.505594
545.281137,5255.462188,10436.903782,-536.266849
545.281457,7328.038826,11769.274478,-2451.505594
545.281778,4737.318029,8512.368333,-689.485948
545.282098,5403.503377,7254.018232,1991.848295
545.282419,5403.503377,7476.080014,3830.477490
545.282740,4885.359217,7476.080014,612.876398
545.283060,3478.967927,6069.688724,-3677.258390
545.283381,6291.750507,7402.059420,-4903.011187
545.283701,4811.338623,7772.162391,-1762.019645
545.284022,6513.812290,8586.388927,153.219100
545.284342,7698.141797,10140.821405,-383.047749
545.284663,5625.565159,11843.295072,-1455.581446
545.284983,4145.153275,9400.615463,383.047749
545.285304,5699.585753,7179.997637,2757.943793
545.285624,4959.379811,5329.482782,3217.601092
545.285945,3256.906145,5773.606348,2451.505594
545.286265,3627.009116,7846.182985,-153.219100
545.286586,2220.617826,8364.327145,-2298.286494
545.286907,3701.029710,8142.265362,-689.485948
545.287227,6291.750507,7624.121203,1225.752797
545.287548,5107.421000,6587.832884,1838.629195
545.287868,1924.535449,6217.729913,1915.238745
545.288189,4219.173869,8512.368333,1302.362347
545.288509,3997.112087,8882.471304,-919.314598
545.288830,4663.297435,8956.491898,-1455.581446
545.289150,6143.709319,9548.656652,306.438199
545.289471,7105.977043,10436.903782,1378.971896
545.289791,4811.338623,8882.471304,1838.629195
545.290112,5033.400406,7994.224174,-306.438199
545.290432,3775.050304,5551.544565,-1915.238745
545.290753,4589.276840,6217.729913,459.657299
545.291073,5625.565159,7031.956449,3217.601092
545.291394,5995.668130,8364.327145,1608.800546
545.291715,4959.379811,8142.265362,76.609550
545.292035,5847.626942,8364.327145,995.924147
545.292356,5699.585753,7550.100608,1838.629195
545.292676,4737.318029,7550.100608,3064.381992
545.292997,3923.091493,6735.874072,919.314598
545.293317,4515.256246,5625.565159,-2451.505594
545.293638,5107.421000,5551.544565,-1838.629195
545.293958,5551.544565,7846.182985,1532.190996
545.294279,6069.688724,9770.718434,1762.019645
545.294599,6365.771101,10955.047942,-1072.533697
545.294920,4959.379811,11029.068536,-1915.238745
545.295240,4071.132681,8364.327145,-153.219100
545.295561,5403.503377,7328.038826,2757.943793
545.295882,5329.482782,7031.956449,4443.353888
545.296202,2886.803174,6069.688724,459.657299
545.296523,2590.720797,4811.338623,-3524.039291
545.296843,3701.029710,6735.874072,-4826.401637
545.297164,4663.297435,8660.409521,-1838.629195
545.297484,7179.997637,10436.903782,1149.143247
545.297805,6883.915261,11621.233289,536.266849
545.298125,4367.215058,11103.089130,0.000000
545.298446,2516.700203,8364.327145,1378.971896
545.298766,5255.462188,6217.729913,2987.772442
545.299087,4959.379811,5329.482782,1532.190996
545.299407,3923.091493,7328.038826,-1608.800546
545.299728,3849.070898,8734.430116,-2757.943793
545.300049,5255.462188,8882.471304,-2681.334243
545.300369,6809.894666,9178.553681,1149.143247
545.300690,7624.121203,8734.430116,2451.505594
545.301010,5181.441594,7550.100608,76.609550
545.301331,2294.638420,6365.771101,-1608.800546
545.301651,4219.173869,7105.977043,-459.657299
545.301972,7328.038826,8364.327145,229.828649
545.302292,8512.368333,10066.800811,-689.485948
545.302613,6587.832884,11325.150913,-1762.019645
545.302933,6069.688724,9844.739029,-2221.676944
545.303254,6069.688724,8586.388927,76.609550
545.303574,4811.338623,5477.523971,1685.410096
545.303895,3404.947333,3997.112087,536.266849
545.304216,5551.544565,6365.771101,-306.438199
545.304536,4441.235652,9992.780217,-383.047749
545.304857,4515.256246,9918.759623,-612.876398
545.305177,6365.771101,9326.594869,-842.705048
545.305498,6513.812290,8882.471304,-995.924147
545.305818,3478.967927,8586.388927,0.000000
545.306139,3478.967927,8216.285956,1455.581446
545.306459,3701.029710,5773.606348,-306.438199
545.306780,4737.318029,5477.523971,-1302.362347
545.307100,4145.153275,7328.038826,-766.095498
545.307421,4145.153275,10362.883188,-842.705048
545.307741,3256.906145,11325.150913,0.000000
545.308062,5847.626942,10955.047942,-766.095498
545.308383,5699.585753,7846.182985,-1608.800546
545.308703,4071.132681,4811.338623,229.828649
545.309024,2812.782580,3627.009116,2451.505594
545.309344,4145.153275,5847.626942,1608.800546
545.309665,3997.112087,7698.141797,-1302.362347
545.309985,4441.235652,8956.491898,-4213.525239
545.310306,6069.688724,9770.718434,-3524.039291
545.310626,6217.729913,8586.388927,0.000000
545.310947,6513.812290,8512.368333,919.314598
545.311267,5773.606348,7920.203579,-842.705048
545.311588,5403.503377,9252.574275,-2068.457845
545.311908,4071.132681,8512.368333,229.828649
545.312229,5477.523971,7846.182985,766.095498
545.312549,5551.544565,7772.162391,229.828649
545.312870,4071.132681,8364.327145,1072.533697
545.313191,5255.462188,8734.430116,1685.410096
545.313511,6587.832884,8660.409521,612.876398
545.313832,4367.215058,7179.997637,306.438199
545.314152,3997.112087,6069.688724,383.047749
545.314473,5255.462188,5625.565159,689.485948
545.314793,5699.585753,7105.977043,1378.971896
545.315114,4737.318029,9474.636058,612.876398
545.315434,6809.894666,11103.089130,-1532.190996
545.315755,6217.729913,10214.842000,-1149.143247
545.316075,6365.771101,9178.553681,1455.581446
545.316396,6217.729913,9030.512492,1838.629195
545.316716,5329.482782,9326.594869,-306.438199
545.317037,2294.638420,6957.935855,-766.095498
545.317358,4367.215058,6439.791695,229.828649
545.317678,5625.565159,7328.038826,2145.067394
545.317999,2960.823768,9030.512492,1608.800546
545.318319,2220.617826,7698.141797,-995.924147
545.318640,5329.482782,8216.285956,-1838.629195
545.318960,4959.379811,7179.997637,229.828649
545.319281,3108.864956,6661.853478,1455.581446
545.319601,4885.359217,6809.894666,306.438199
545.319922,4441.235652,8068.244768,-842.705048
545.320242,4293.194464,9400.615463,-612.876398
545.320563,6365.771101,10066.800811,-1225.752797
545.320883,6291.750507,9474.636058,-1455.581446
545.321204,3997.112087,7031.956449,-153.219100
545.321525,5107.421000,4737.318029,536.266849
545.321845,4885.359217,5033.400406,0.000000
545.322166,3849.070898,5995.668130,-229.828649
545.322486,4145.153275,6513.812290,-76.609550
545.322807,6587.832884,6957.935855,-1225.752797
545.323127,5255.462188,7698.141797,-1532.190996
545.323448,4737.318029,8216.285956,-153.219100
545.323768,5995.668130,7846.182985,-1532.190996
545.324089,5995.668130,7105.977043,-1608.800546
545.324409,5181.441594,6217.729913,-766.095498
545.324730,5847.626942,7105.977043,-1915.238745
545.325050,5625.565159,8290.306550,-2298.286494
545.325371,5995.668130,9918.759623,-1532.190996
545.325692,5773.606348,9474.636058,-1378.971896
545.326012,5255.462188,8882.471304,-689.485948
545.326333,5551.544565,6809.894666,306.438199
545.326653,5773.606348,6217.729913,536.266849
545.326974,4885.359217,6735.874072,-229.828649
545.327294,3701.029710,8808.450710,-1455.581446
545.327615,3330.926739,8142.265362,-2681.334243
545.327935,4959.379811,7920.203579,-3140.991542
545.328256,5551.544565,7328.038826,-1378.971896
545.328576,5699.585753,8512.368333,-229.828649
545.328897,6069.688724,11177.109724,153.219100
545.329217,6439.791695,12879.583391,-766.095498
545.329538,6143.709319,13249.686362,-2068.457845
545.329858,4885.359217,11473.192101,-383.047749
545.330179,4737.318029,9548.656652,1532.190996
545.330500,5699.585753,7994.224174,2757.943793
545.330820,5551.544565,7031.956449,1149.143247
545.331141,3330.926739,5773.606348,-2298.286494
545.331461,2516.700203,7105.977043,-3217.601092
545.331782,4441.235652,8660.409521,153.219100
545.332102,6587.832884,9548.656652,3370.820191
545.332423,7031.956449,9696.697840,2145.067394
545.332743,5921.647536,9992.780217,-1838.629195
545.333064,3404.947333,7920.203579,-2451.505594
545.333384,4959.379811,7179.997637,229.828649
545.333705,7105.977043,8142.265362,1762.019645
545.334025,6513.812290,10362.883188,-229.828649
545.334346,4441.235652,9918.759623,-2451.505594
545.334667,5181.441594,9178.553681,-2298.286494
545.334987,5477.523971,8068.244768,1608.800546
545.335308,3627.009116,6439.791695,3600.648841
545.335628,3404.947333,5033.400406,1149.143247
545.335949,3478.967927,4589.276840,-2068.457845
545.336269,2886.803174,5255.462188,-1072.533697
545.336590,5403.503377,7624.121203,995.924147
545.336910,6735.874072,9696.697840,536.266849
545.337231,4219.173869,8882.471304,-306.438199
545.337551,4737.318029,8216.285956,-153.219100
545.337872,5033.400406,7031.956449,766.095498
545.338192,2368.659014,4811.338623,1378.971896
545.338513,3182.885551,4293.194464,919.314598
545.338834,5551.544565,7328.038826,-612.876398
545.339154,3775.050304,9548.656652,-1532.190996
545.339475,4219.173869,9474.636058,-1302.362347
545.339795,5773.606348,7624.121203,-1149.143247
545.340116,5847.626942,6069.688724,1225.752797
545.340436,3404.947333,4589.276840,2757.943793
545.340757,4145.153275,4959.379811,842.705048
545.341077,3552.988522,5477.523971,-2374.896044
545.341398,5477.523971,7179.997637,-2145.067394
545.341718,6143.709319,8364.327145,-1225.752797
545.342039,6513.812290,10584.944971,-1149.143247
545.342359,5107.421000,11917.315666,306.438199
545.342680,5403.503377,10732.986159,0.000000
545.343001,5477.523971,7402.059420,-1608.800546
545.343321,4071.132681,6587.832884,-1072.533697
545.343642,4367.215058,7846.182985,1072.533697
545.343962,4959.379811,8290.306550,995.924147
545.344283,4737.318029,8586.388927,-689.485948
545.344603,4515.256246,8586.388927,-2757.943793
545.344924,5329.482782,9474.636058,-1762.019645
545.345244,6143.709319,9178.553681,2221.676944
545.345565,6809.894666,9030.512492,2221.676944
545.345885,5033.400406,8216.285956,-536.266849
545.346206,4071.132681,7698.141797,-3370.820191
545.346526,4737.318029,7254.018232,-1915.238745
545.346847,6809.894666,8364.327145,689.485948
545.347167,6957.935855,9252.574275,-306.438199
545.347488,5921.647536,9474.636058,-3600.648841
545.347809,5847.626942,10066.800811,-4136.915689
545.348129,6661.853478,9696.697840,-383.047749
545.348450,5921.647536,8512.368333,3294.210641
545.348770,6735.874072,9918.759623,1149.143247
545.349091,4663.297435,9474.636058,-2298.286494
545.349411,2886.803174,7328.038826,-3064.381992
545.349732,3701.029710,5995.668130,-1302.362347
545.350052,5921.647536,8512.368333,612.876398
545.350373,4145.153275,9992.780217,0.000000
545.350693,3552.988522,9400.615463,-1762.019645
545.351014,5625.565159,8956.491898,-1838.629195
545.351334,5033.400406,9178.553681,612.876398
545.351655,2590.720797,7550.100608,2528.115143
545.351975,4885.359217,6513.812290,536.266849
545.352296,5625.565159,7698.141797,-1149.143247
545.352616,4959.379811,9474.636058,-612.876398
545.352937,6883.915261,10140.821405,-229.828649
545.353257,7772.162391,8882.471304,-1225.752797
545.353578,6069.688724,8142.265362,612.876398
545.353898,4885.359217,7994.224174,2451.505594
545.354219,5477.523971,7105.977043,1608.800546
545.354540,4589.276840,5403.503377,842.705048
545.354860,5403.503377,5255.462188,1302.362347
545.355181,6143.709319,6587.832884,1149.143247
545.355501,4663.297435,7846.182985,536.266849
545.355822,3775.050304,8586.388927,306.438199
545.356142,5921.647536,9104.533087,153.219100
545.356463,5403.503377,7402.059420,1378.971896
545.356783,5255.462188,7476.080014,2298.286494
545.357104,4367.215058,7476.080014,1608.800546
545.357424,3923.091493,6513.812290,-153.219100
545.357745,3552.988522,5699.585753,-1762.019645
545.358065,5847.626942,8438.347739,-1072.533697
545.358386,5181.441594,9770.718434,1149.143247
545.358706,5329.482782,9326.594869,2451.505594
545.359027,4589.276840,6957.935855,229.828649
545.359347,3775.050304,6513.812290,-689.485948
545.359668,2664.741391,5625.565159,1685.410096
545.359988,4219.173869,4811.338623,2911.162892
545.360309,4737.318029,5329.482782,1302.362347
545.360629,4663.297435,7624.121203,-459.657299
545.360950,4071.132681,7254.018232,-1915.238745
545.361271,4885.359217,7105.977043,-2528.115143
545.361591,6883.915261,9400.615463,536.266849
545.361912,5773.606348,9770.718434,3370.820191
545.362232,4515.256246,8068.244768,536.266849
545.362553,2886.803174,5329.482782,-995.924147
545.362873,3404.947333,5699.585753,0.000000
545.363194,4293.194464,7624.121203,612.876398
545.363514,4071.132681,8956.491898,-2911.162892
545.363835,4367.215058,8808.450710,-5745.716235
545.364155,6883.915261,8882.471304,-3140.991542
545.364476,6217.729913,8068.244768,1608.800546
545.364796,4367.215058,8068.244768,1762.019645
545.365117,2738.761985,7994.224174,-306.438199
545.365437,3627.009116,8438.347739,-2757.943793
545.365758,5625.565159,9252.574275,-2834.553343
545.366078,7179.997637,10807.006753,-919.314598
545.366399,7179.997637,10066.800811,-153.219100
545.366719,6957.935855,9696.697840,-689.485948
545.367040,5921.647536,9770.718434,-766.095498
545.367360,3775.050304,9400.615463,-306.438199
545.367681,4885.359217,7698.141797,-459.657299
545.368002,7105.977043,7031.956449,-536.266849
545.368322,5995.668130,7550.100608,536.266849
545.368643,6069.688724,9696.697840,1532.190996
545.368963,5403.503377,11029.068536,-766.095498
545.369284,4367.215058,10288.862594,-2911.162892
545.369604,5255.462188,8216.285956,-1762.019645
545.369925,6735.874072,7772.162391,229.828649
545.370245,6143.709319,7920.203579,689.485948
545.370566,4219.173869,8290.306550,0.000000
545.370886,5181.441594,8808.450710,-1915.238745
545.371207,5033.400406,9030.512492,-2451.505594
545.371527,4515.256246,9326.594869,-383.047749
545.371848,6069.688724,10436.903782,536.266849
545.372168,6809.894666,10510.924376,-306.438199
545.372489,3775.050304,7994.224174,-1072.533697
545.372809,4441.235652,7698.141797,76.609550
545.373130,4663.297435,7179.997637,2604.724693
545.373450,4737.318029,6513.812290,3370.820191
545.373771,5329.482782,7698.141797,1072.533697
545.374091,3923.091493,7920.203579,-2451.505594
545.374412,3552.988522,7402.059420,-1455.581446
545.374733,6957.935855,7846.182985,2987.772442
545.375053,6365.771101,7920.203579,5132.839837
545.375374,4811.338623,8068.244768,3677.258390
545.375694,4589.276840,7846.182985,0.000000
545.376015,2960.823768,6143.709319,-2298.286494
545.376335,2738.761985,3627.009116,612.876398
545.376656,7105.977043,6217.729913,2451.505594
545.376976,6735.874072,9178.553681,153.219100
545.377297,3923.091493,9178.553681,-1532.190996
545.377617,4959.379811,8216.285956,-1378.971896
545.377938,5033.400406,6735.874072,536.266849
545.378258,2220.617826,5329.482782,3447.429741
545.378579,3701.029710,5773.606348,3217.601092
545.378899,5847.626942,7846.182985,-689.485948
545.379220,3997.112087,8956.491898,-842.705048
545.379540,4737.318029,9030.512492,612.876398
545.379861,5847.626942,6883.915261,0.000000
545.380181,4811.338623,5847.626942,842.705048
545.380502,3182.885551,6735.874072,2528.115143
545.380822,3404.947333,6957.935855,153.219100
545.381143,3552.988522,6883.915261,-612.876398
545.381464,5403.503377,7105.977043,1072.533697
545.381784,5255.462188,7550.100608,1991.848295
545.382105,4885.359217,9104.533087,766.095498
545.382425,2442.679609,8808.450710,-842.705048
545.382746,4071.132681,7920.203579,-1762.019645
545.383066,6217.729913,7254.018232,229.828649
545.383387,5033.400406,7698.141797,1915.238745
545.383707,3256.906145,7624.121203,153.219100
545.384028,5847.626942,8660.409521,-1915.238745
545.384348,4071.132681,8068.244768,-2221.676944
545.384669,3404.947333,6883.915261,-1915.238745
545.384989,5699.585753,7550.100608,-1378.971896
545.385310,6291.750507,9178.553681,-612.876398
545.385630,5847.626942,9178.553681,-1991.848295
545.385951,6217.729913,9474.636058,-2681.334243
545.386271,6143.709319,8808.450710,-3064.381992
545.386592,4811.338623,7772.162391,-842.705048
545.386912,7031.956449,8216.285956,229.828649
545.387233,6735.874072,8956.491898,-995.924147
545.387553,5255.462188,9104.533087,-3830.477490
545.387874,6217.729913,8956.491898,-4290.134789
545.388195,6735.874072,8660.409521,-2604.724693
545.388515,5551.544565,9400.615463,536.266849
545.388836,6587.832884,11547.212695,1378.971896
545.389156,4367.215058,10658.965565,-1685.410096
545.389477,1850.514855,7328.038826,-3064.381992
545.389797,4367.215058,7105.977043,-1149.143247
545.390118,6143.709319,8882.471304,689.485948
545.390438,5033.400406,9770.718434,766.095498
545.390759,6069.688724,10955.047942,-919.314598
545.391079,5107.421000,10584.944971,-2987.772442
545.391400,3182.885551,8956.491898,-383.047749
545.391720,4737.318029,7624.121203,2987.772442
545.392041,7476.080014,8512.368333,1991.848295
545.392361,5921.647536,9622.677246,-536.266849
545.392682,5107.421000,10584.944971,-3064.381992
545.393002,5625.565159,9030.512492,-2911.162892
545.393323,5773.606348,6735.874072,383.047749
545.393643,6439.791695,6735.874072,3524.039291
545.393964,6291.750507,8586.388927,1225.752797
545.394284,3849.070898,8808.450710,-2757.943793
545.394605,3923.091493,7698.141797,-2374.896044
545.394926,7105.977043,7402.059420,1149.143247
545.395246,6513.812290,7550.100608,3753.867940
545.395567,4663.297435,8216.285956,2528.115143
545.395887,4515.256246,7994.224174,-612.876398
545.396208,4959.379811,7920.203579,-1378.971896
545.396528,4885.359217,7920.203579,2528.115143
545.396849,5921.647536,7031.956449,3753.867940
545.397169,3775.050304,6365.771101,2298.286494
545.397490,3404.947333,6957.935855,1991.848295
545.397810,2072.576638,6217.729913,306.438199
545.398131,1776.494261,4293.194464,-995.924147
545.398451,3478.967927,4737.318029,-153.219100
545.398772,4811.338623,7105.977043,1762.019645
545.399092,4811.338623,9622.677246,1149.143247
545.399413,4367.215058,10881.027347,-536.266849
545.399733,3108.864956,7698.141797,-689.485948
545.400054,4367.215058,4441.235652,1991.848295
545.400374,5403.503377,4145.153275,3217.601092
545.400695,4663.297435,6365.771101,1149.143247
545.401015,2294.638420,6809.894666,-2757.943793
545.401336,5033.400406,7402.059420,-3830.477490
545.401656,7105.977043,7179.997637,153.219100
545.401977,5847.626942,7105.977043,3600.648841
545.402298,4515.256246,7105.977043,2221.676944
