#time,accel_x,accel_y,accel_z
547.750869,4885.359217,8142.265362,-229.828649
547.751190,4811.338623,8068.244768,-383.047749
547.751511,5107.421000,7920.203579,-229.828649
547.751832,5107.421000,8068.244768,-153.219100
547.752152,4737.318029,7920.203579,-153.219100
547.752473,4959.379811,7846.182985,0.000000
547.752794,5107.421000,8216.285956,-229.828649
547.753115,4959.379811,8216.285956,-306.438199
547.753435,4959.379811,7994.224174,76.609550
547.753756,4959.379811,7846.182985,0.000000
547.754077,5107.421000,8216.285956,0.000000
547.754398,5107.421000,7920.203579,-306.438199
547.754719,4959.379811,7920.203579,-153.219100
547.755039,4959.379811,7920.203579,0.000000
547.755360,5033.400406,7994.224174,0.000000
547.755681,4737.318029,7772.162391,-76.609550
547.756002,5107.421000,8068.244768,0.000000
547.756322,4959.379811,7920.203579,0.000000
547.756643,5107.421000,8142.265362,-76.609550
547.756964,4959.379811,8068.244768,-306.438199
547.757285,4811.338623,7772.162391,0.000000
547.757605,5033.400406,7920.203579,0.000000
547.757926,5107.421000,7920.203579,0.000000
547.758247,5255.462188,7994.224174,-306.438199
547.758568,5181.441594,7994.224174,-229.828649
547.758889,4737.318029,8142.265362,0.000000
547.759209,5107.421000,7846.182985,-306.438199
547.759530,5255.462188,7846.182985,0.000000
547.759851,4737.318029,7994.224174,0.000000
547.760172,5107.421000,7994.224174,0.000000
547.760492,5107.421000,7846.182985,-536.266849
547.760813,4885.359217,7920.203579,-153.219100
547.761134,4737.318029,8290.306550,459.657299
547.761455,4959.379811,8068.244768,-612.876398
547.761776,4737.318029,8068.244768,-306.438199
547.762096,4589.276840,7550.100608,-306.438199
547.762417,4293.194464,7624.121203,-383.047749
547.762738,4367.215058,8216.285956,229.828649
547.763059,4515.256246,9326.594869,-459.657299
547.763379,4367.215058,9770.718434,-1225.752797
547.763700,4737.318029,9918.759623,-1225.752797
547.764021,4441.235652,9400.615463,-995.924147
547.764342,3997.112087,8808.450710,-383.047749
547.764663,2960.823768,8808.450710,459.657299
547.764983,2886.803174,9326.594869,919.314598
547.765304,2886.803174,9474.636058,459.657299
547.765625,2664.741391,8808.450710,0.000000
547.765946,2886.803174,7920.203579,-76.609550
547.766266,3108.864956,8882.471304,-229.828649
547.766587,3108.864956,9400.615463,76.609550
547.766908,2590.720797,9252.574275,229.828649
547.767229,2442.679609,8512.368333,766.095498
547.767550,2590.720797,9474.636058,-459.657299
547.767870,2516.700203,10510.924376,-689.485948
547.768191,1998.556043,12065.356855,-995.924147
547.768512,1480.411884,12213.398043,-1302.362347
547.768833,1628.453072,11547.212695,-536.266849
547.769153,740.205942,11029.068536,-995.924147
547.769474,-296.082377,10732.986159,-1455.581446
547.769795,-666.185348,11473.192101,-1072.533697
547.770116,-1332.370696,12509.480420,0.000000
547.770437,-1776.494261,12583.501014,842.705048
547.770757,-1406.391290,11843.295072,1302.362347
547.771078,-888.247130,12361.439231,1532.190996
547.771399,-1628.453072,12583.501014,2145.067394
547.771720,-2516.700203,11917.315666,1149.143247
547.772040,-2368.659014,10510.924376,-229.828649
547.772361,-1554.432478,9696.697840,-536.266849
547.772682,-1406.391290,9400.615463,536.266849
547.773003,-666.185348,9992.780217,919.314598
547.773324,-148.041188,10881.027347,306.438199
547.773644,74.020594,11547.212695,-1072.533697
547.773965,1184.329507,11621.233289,-1685.410096
547.774286,1924.535449,10732.986159,-1072.533697
547.774607,2664.741391,10214.842000,76.609550
547.774927,3478.967927,10584.944971,766.095498
547.775248,2664.741391,10066.800811,-1302.362347
547.775569,2368.659014,9252.574275,-2451.505594
547.775890,2368.659014,8882.471304,-2451.505594
547.776210,2590.720797,9030.512492,-689.485948
547.776531,2738.761985,9474.636058,-229.828649
547.776852,1850.514855,10140.821405,-306.438199
547.777173,1036.288319,11325.150913,-766.095498
547.777494,740.205942,11769.274478,0.000000
547.777814,74.020594,10881.027347,536.266849
547.778135,0.000000,10362.883188,919.314598
547.778456,-592.164754,9696.697840,995.924147
547.778777,-370.102971,10214.842000,919.314598
547.779097,-1110.308913,10732.986159,995.924147
547.779418,-666.185348,11177.109724,1149.143247
547.779739,592.164754,11621.233289,995.924147
547.780060,888.247130,11695.253884,842.705048
547.780381,962.267725,11251.130318,76.609550
547.780701,962.267725,10955.047942,-612.876398
547.781022,1110.308913,10140.821405,-536.266849
547.781343,1554.432478,9474.636058,153.219100
547.781664,1702.473667,9030.512492,0.000000
547.781984,1702.473667,9104.533087,153.219100
547.782305,2220.617826,9770.718434,0.000000
547.782626,2442.679609,10955.047942,-383.047749
547.782947,2220.617826,10881.027347,-689.485948
547.783268,3034.844362,10288.862594,-689.485948
547.783588,3256.906145,9992.780217,-995.924147
547.783909,3182.885551,9474.636058,-1378.971896
547.784230,3108.864956,9400.615463,-1149.143247
547.784551,2590.720797,10140.821405,-1072.533697
547.784871,1628.453072,10436.903782,-766.095498
547.785192,1258.350101,11325.150913,-536.266849
547.785513,1406.391290,11547.212695,-919.314598
547.785834,740.205942,11621.233289,-1762.019645
547.786155,-740.205942,10510.924376,-1838.629195
547.786475,-1628.453072,9326.594869,-1302.362347
547.786796,-1406.391290,9030.512492,229.828649
547.787117,-1702.473667,9696.697840,1915.238745
547.787438,-1332.370696,11547.212695,2068.457845
547.787758,-592.164754,13027.624579,1378.971896
547.788079,-148.041188,14211.954086,1149.143247
547.788400,222.061783,13767.830521,689.485948
547.788721,1036.288319,11399.171507,-306.438199
547.789042,1628.453072,10066.800811,-306.438199
547.789362,888.247130,9622.677246,-689.485948
547.789683,-222.061783,9178.553681,-1455.581446
547.790004,-888.247130,8734.430116,-1915.238745
547.790325,-666.185348,9548.656652,-1915.238745
547.790645,-518.144159,10732.986159,-1302.362347
547.790966,0.000000,11843.295072,-153.219100
547.791287,1406.391290,13175.665768,-306.438199
547.791608,1332.370696,14137.933492,-459.657299
547.791928,592.164754,13915.871710,-536.266849
547.792249,888.247130,13175.665768,-689.485948
547.792570,888.247130,11695.253884,-306.438199
547.792891,1184.329507,9030.512492,0.000000
547.793212,1850.514855,7254.018232,0.000000
547.793532,740.205942,8512.368333,-153.219100
547.793853,0.000000,10510.924376,0.000000
547.794174,0.000000,10955.047942,842.705048
547.794495,518.144159,10214.842000,1072.533697
547.794815,296.082377,8882.471304,612.876398
547.795136,1036.288319,8586.388927,459.657299
547.795457,1406.391290,10214.842000,229.828649
547.795778,592.164754,12509.480420,-919.314598
547.796099,-222.061783,12731.542202,-1915.238745
547.796419,1184.329507,12953.603985,-2451.505594
547.796740,1258.350101,12879.583391,-1685.410096
547.797061,814.226536,12879.583391,-536.266849
547.797382,592.164754,12287.418637,306.438199
547.797702,592.164754,11917.315666,229.828649
547.798023,-592.164754,10881.027347,995.924147
547.798344,-370.102971,9400.615463,1685.410096
547.798665,-592.164754,8216.285956,1532.190996
547.798986,-1628.453072,7328.038826,1532.190996
547.799306,-1406.391290,7550.100608,1225.752797
547.799627,296.082377,8734.430116,229.828649
547.799948,1036.288319,10658.965565,-306.438199
547.800269,2072.576638,13101.645173,-306.438199
547.800589,2812.782580,13101.645173,-383.047749
547.800910,3034.844362,11473.192101,-1225.752797
547.801231,2220.617826,8586.388927,-1991.848295
547.801552,1406.391290,6661.853478,-1532.190996
547.801873,3330.926739,9474.636058,459.657299
547.802193,2072.576638,12139.377449,459.657299
547.802514,888.247130,12953.603985,-2298.286494
547.802835,2590.720797,11695.253884,-3217.601092
547.803156,1554.432478,10881.027347,-2451.505594
547.803476,-888.247130,8586.388927,-306.438199
547.803797,-1332.370696,8068.244768,-306.438199
547.804118,-1480.411884,9622.677246,-459.657299
547.804439,-1924.535449,12731.542202,612.876398
547.804760,-1850.514855,14359.995275,1532.190996
547.805080,-1850.514855,13915.871710,383.047749
547.805401,-1554.432478,14285.974681,229.828649
547.805722,-1628.453072,14285.974681,1302.362347
547.806043,-1776.494261,13175.665768,995.924147
547.806363,-1110.308913,11399.171507,76.609550
547.806684,296.082377,9844.739029,76.609550
547.807005,-740.205942,9622.677246,1149.143247
547.807326,-1702.473667,8734.430116,536.266849
547.807647,74.020594,8956.491898,76.609550
547.807967,1850.514855,9400.615463,1149.143247
547.808288,4145.153275,11029.068536,1149.143247
547.808609,5329.482782,11843.295072,-459.657299
547.808930,5181.441594,12065.356855,-2451.505594
547.809250,4441.235652,11547.212695,-2834.553343
547.809571,2664.741391,9992.780217,-2374.896044
547.809892,1924.535449,6513.812290,-2068.457845
547.810213,2368.659014,5403.503377,0.000000
547.810533,3775.050304,9474.636058,1225.752797
547.810854,1998.556043,13397.727550,153.219100
547.811175,1332.370696,13471.748144,-2298.286494
547.811496,666.185348,11621.233289,-2451.505594
547.811817,-296.082377,10288.862594,76.609550
547.812137,-1850.514855,9030.512492,1991.848295
547.812458,-1998.556043,8956.491898,919.314598
547.812779,-740.205942,11251.130318,-995.924147
547.813100,-370.102971,13915.871710,-766.095498
547.813421,-2146.597232,14063.912898,-919.314598
547.813742,-2886.803174,12361.439231,76.609550
547.814062,-740.205942,11843.295072,3217.601092
547.814383,296.082377,12509.480420,5209.449386
547.814704,-1924.535449,10807.006753,1991.848295
547.815025,-888.247130,9104.533087,-1838.629195
547.815346,74.020594,8808.450710,-1225.752797
547.815666,0.000000,8660.409521,1378.971896
547.815987,1332.370696,7179.997637,2834.553343
547.816308,4145.153275,7698.141797,919.314598
547.816629,4293.194464,10214.842000,-306.438199
547.816950,3478.967927,12361.439231,-1532.190996
547.817271,3849.070898,11843.295072,-2834.553343
547.817591,4737.318029,10584.944971,-2451.505594
547.817912,5699.585753,10362.883188,-306.438199
547.818233,4589.276840,8364.327145,0.000000
547.818554,1702.473667,7254.018232,-1915.238745
547.818875,0.000000,9252.574275,-2757.943793
547.819195,74.020594,11843.295072,-2298.286494
547.819516,518.144159,11695.253884,-2145.067394
547.819837,888.247130,10214.842000,-1532.190996
547.820158,666.185348,9918.759623,0.000000
547.820479,-1184.329507,12065.356855,2451.505594
547.820800,-1332.370696,14211.954086,3907.087040
547.821120,-3256.906145,13101.645173,1532.190996
547.821441,-3404.947333,10066.800811,0.000000
547.821762,-1554.432478,9696.697840,1225.752797
547.822083,-370.102971,10140.821405,2145.067394
547.822404,-1850.514855,12213.398043,1685.410096
547.822724,-148.041188,13175.665768,0.000000
547.823045,-1258.350101,12287.418637,-1608.800546
547.823366,-148.041188,11473.192101,-1378.971896
547.823687,1554.432478,10584.944971,1072.533697
547.824008,1184.329507,10584.944971,1225.752797
547.824329,1036.288319,9400.615463,1302.362347
547.824649,3034.844362,9992.780217,919.314598
547.824970,3108.864956,9400.615463,-1072.533697
547.825291,2886.803174,8068.244768,-2834.553343
547.825612,5255.462188,8956.491898,-995.924147
547.825933,6883.915261,9992.780217,-383.047749
547.826253,4737.318029,8734.430116,-1072.533697
547.826574,6069.688724,6809.894666,-2911.162892
547.826895,6143.709319,7105.977043,-3753.867940
547.827216,3701.029710,9030.512492,-689.485948
547.827537,3404.947333,9104.533087,1608.800546
547.827857,4811.338623,8364.327145,-229.828649
547.828178,4737.318029,9030.512492,-2451.505594
547.828499,3256.906145,9400.615463,-1455.581446
547.828820,2368.659014,8364.327145,-995.924147
547.829141,2516.700203,8660.409521,306.438199
547.829462,2590.720797,9030.512492,1838.629195
547.829782,2590.720797,9030.512492,689.485948
547.830103,1702.473667,9622.677246,-383.047749
547.830424,1110.308913,12509.480420,1838.629195
547.830745,814.226536,14211.954086,2451.505594
547.831066,2368.659014,12435.459826,842.705048
547.831386,2516.700203,8364.327145,612.876398
547.831707,1406.391290,6587.832884,1225.752797
547.832028,1406.391290,7031.956449,2681.334243
547.832349,1554.432478,7624.121203,2145.067394
547.832670,2738.761985,8290.306550,383.047749
547.832991,5921.647536,8808.450710,306.438199
547.833311,6735.874072,8438.347739,1378.971896
547.833632,7105.977043,7254.018232,229.828649
547.833953,8512.368333,5847.626942,0.000000
547.834274,8216.285956,6735.874072,-689.485948
547.834595,7698.141797,6069.688724,-1608.800546
547.834915,9178.553681,5181.441594,-3217.601092
547.835236,10288.862594,4663.297435,-3677.258390
547.835557,11103.089130,6439.791695,-2757.943793
547.835878,9474.636058,7328.038826,-459.657299
547.836199,8216.285956,6883.915261,-1608.800546
547.836520,7105.977043,5773.606348,-3447.429741
547.836840,7105.977043,4441.235652,-1838.629195
547.837161,6365.771101,5625.565159,995.924147
547.837482,6217.729913,7105.977043,2145.067394
547.837803,4367.215058,7105.977043,689.485948
547.838124,5625.565159,8216.285956,-689.485948
547.838444,4145.153275,8438.347739,0.000000
547.838765,3034.844362,8142.265362,766.095498
547.839086,3552.988522,7846.182985,1685.410096
547.839407,2960.823768,9030.512492,995.924147
547.839728,1628.453072,10214.842000,-689.485948
547.840048,2886.803174,9992.780217,-612.876398
547.840369,1628.453072,8068.244768,-229.828649
547.840690,2960.823768,8142.265362,-306.438199
547.841011,3182.885551,9104.533087,1225.752797
547.841332,2960.823768,9252.574275,306.438199
547.841653,4145.153275,8882.471304,-995.924147
547.841973,5773.606348,9696.697840,-383.047749
547.842294,4811.338623,10362.883188,-612.876398
547.842615,5329.482782,9178.553681,76.609550
547.842936,6513.812290,8068.244768,306.438199
547.843257,7698.141797,8586.388927,-995.924147
547.843577,6217.729913,7402.059420,-1762.019645
547.843898,5551.544565,7402.059420,-2911.162892
547.844219,6069.688724,7254.018232,-2374.896044
547.844540,7328.038826,7254.018232,-536.266849
547.844861,6883.915261,7624.121203,0.000000
547.845182,5699.585753,7254.018232,-2298.286494
547.845502,4367.215058,6735.874072,-2681.334243
547.845823,4959.379811,9104.533087,-229.828649
547.846144,5255.462188,10362.883188,1149.143247
547.846465,4589.276840,10288.862594,0.000000
547.846786,5255.462188,9178.553681,-1685.410096
547.847106,5107.421000,8216.285956,-1455.581446
547.847427,3775.050304,9104.533087,536.266849
547.847748,3256.906145,9474.636058,995.924147
547.848069,3404.947333,8512.368333,-306.438199
547.848390,3404.947333,7624.121203,229.828649
547.848711,3478.967927,8512.368333,1915.238745
547.849031,2442.679609,7920.203579,1378.971896
547.849352,2294.638420,6513.812290,-76.609550
547.849673,6291.750507,7031.956449,1532.190996
547.849994,7105.977043,6735.874072,1915.238745
547.850315,4737.318029,4663.297435,306.438199
547.850635,6587.832884,4737.318029,-383.047749
547.850956,9696.697840,8364.327145,0.000000
547.851277,6883.915261,10510.924376,1455.581446
547.851598,9474.636058,9474.636058,-383.047749
547.851919,10140.821405,6439.791695,-3983.696590
547.852240,9104.533087,4811.338623,-3217.601092
547.852560,8586.388927,6365.771101,76.609550
547.852881,6143.709319,6957.935855,-842.705048
547.853202,5921.647536,6439.791695,-3140.991542
547.853523,6883.915261,8438.347739,-919.314598
547.853844,5107.421000,8364.327145,1149.143247
547.854164,3182.885551,7920.203579,1302.362347
547.854485,3478.967927,7920.203579,2068.457845
547.854806,2516.700203,9326.594869,612.876398
547.855127,1998.556043,8586.388927,689.485948
547.855448,1850.514855,6513.812290,229.828649
547.855768,4219.173869,7105.977043,76.609550
547.856089,3775.050304,9178.553681,1608.800546
547.856410,3330.926739,10140.821405,2681.334243
547.856731,2368.659014,10510.924376,0.000000
547.857052,3034.844362,8438.347739,-1378.971896
547.857373,3849.070898,8512.368333,459.657299
547.857693,5477.523971,8808.450710,2298.286494
547.858014,5477.523971,8438.347739,919.314598
547.858335,4737.318029,6513.812290,-1378.971896
547.858656,4663.297435,5033.400406,-1991.848295
547.858977,6957.935855,6365.771101,76.609550
547.859297,6661.853478,8364.327145,1455.581446
547.859618,6365.771101,8216.285956,-766.095498
547.859939,8734.430116,7105.977043,-2221.676944
547.860260,7328.038826,7624.121203,-1225.752797
547.860581,6809.894666,7179.997637,-153.219100
547.860902,6735.874072,6365.771101,689.485948
547.861222,5995.668130,7179.997637,-766.095498
547.861543,7179.997637,8808.450710,-1762.019645
547.861864,5847.626942,8956.491898,-2374.896044
547.862185,3701.029710,6661.853478,-4366.744339
547.862506,5477.523971,6661.853478,-2451.505594
547.862826,5033.400406,8290.306550,2221.676944
547.863147,3034.844362,9400.615463,1838.629195
547.863468,2812.782580,7698.141797,0.000000
547.863789,3182.885551,8438.347739,-2221.676944
547.864110,4145.153275,10436.903782,0.000000
547.864431,3775.050304,10584.944971,2987.772442
547.864751,4441.235652,9178.553681,1455.581446
547.865072,4737.318029,8068.244768,-459.657299
547.865393,4293.194464,9326.594869,76.609550
547.865714,4737.318029,9844.739029,229.828649
547.866035,3849.070898,7994.224174,0.000000
547.866355,5551.544565,7328.038826,536.266849
547.866676,7698.141797,9104.533087,1225.752797
547.866997,6143.709319,8068.244768,459.657299
547.867318,5033.400406,5995.668130,-612.876398
547.867639,6883.915261,6365.771101,-383.047749
547.867960,6809.894666,7402.059420,459.657299
547.868280,6513.812290,6291.750507,-536.266849
547.868601,6735.874072,4737.318029,-2604.724693
547.868922,7994.224174,6365.771101,-3370.820191
547.869243,8882.471304,9400.615463,-306.438199
547.869564,7920.203579,10436.903782,-383.047749
547.869884,6809.894666,8438.347739,-2911.162892
547.870205,6513.812290,6883.915261,-2757.943793
547.870526,7105.977043,7550.100608,-459.657299
547.870847,5107.421000,8068.244768,0.000000
547.871168,4441.235652,6809.894666,-153.219100
547.871488,4663.297435,6735.874072,-995.924147
547.871809,4959.379811,8068.244768,383.047749
547.872130,2960.823768,8660.409521,1991.848295
547.872451,2738.761985,8290.306550,689.485948
547.872772,2664.741391,8586.388927,306.438199
547.873093,2812.782580,9992.780217,1685.410096
547.873413,1628.453072,9844.739029,1378.971896
547.873734,1628.453072,8956.491898,229.828649
547.874055,3849.070898,10214.842000,842.705048
547.874376,3997.112087,10140.821405,2068.457845
547.874697,1628.453072,8882.471304,383.047749
547.875017,2294.638420,7328.038826,-1455.581446
547.875338,3923.091493,8660.409521,-612.876398
547.875659,4737.318029,9844.739029,383.047749
547.875980,4589.276840,8364.327145,0.000000
547.876301,7179.997637,6439.791695,-1072.533697
547.876622,5033.400406,5551.544565,-919.314598
547.876942,5107.421000,6809.894666,306.438199
547.877263,5773.606348,7550.100608,459.657299
547.877584,5921.647536,7624.121203,-1072.533697
547.877905,7920.203579,7402.059420,-766.095498
547.878226,9252.574275,7550.100608,306.438199
547.878546,6513.812290,7402.059420,-2374.896044
547.878867,6217.729913,8364.327145,-2681.334243
547.879188,5551.544565,8734.430116,-1532.190996
547.879509,7105.977043,7994.224174,-842.705048
547.879830,7105.977043,6513.812290,536.266849
547.880151,6217.729913,5847.626942,0.000000
547.880471,4515.256246,7476.080014,-612.876398
547.880792,3627.009116,8734.430116,1302.362347
547.881113,3034.844362,8512.368333,1072.533697
547.881434,3701.029710,5625.565159,-995.924147
547.881755,4441.235652,4441.235652,0.000000
547.882075,5921.647536,7179.997637,1378.971896
547.882396,3478.967927,9178.553681,1225.752797
547.882717,4737.318029,10140.821405,-229.828649
547.883038,7031.956449,9400.615463,-1302.362347
547.883359,7772.162391,9178.553681,-306.438199
547.883679,7476.080014,9474.636058,842.705048
547.884000,7031.956449,9770.718434,-76.609550
547.884321,5699.585753,8586.388927,-1608.800546
547.884642,5995.668130,6883.915261,-689.485948
547.884963,6439.791695,6365.771101,383.047749
547.885284,5625.565159,5773.606348,-306.438199
547.885604,4219.173869,7105.977043,-842.705048
547.885925,4663.297435,8586.388927,-612.876398
547.886246,3997.112087,8364.327145,-842.705048
547.886567,5181.441594,7254.018232,306.438199
547.886888,6217.729913,7772.162391,689.485948
547.887208,6217.729913,9992.780217,1072.533697
547.887529,4589.276840,10955.047942,995.924147
547.887850,3478.967927,9992.780217,-1685.410096
547.888171,3775.050304,7179.997637,-3217.601092
547.888492,5107.421000,7254.018232,-1302.362347
547.888813,6143.709319,9178.553681,229.828649
547.889133,4811.338623,9844.739029,-612.876398
547.889454,2368.659014,8956.491898,-1915.238745
547.889775,2590.720797,8216.285956,-1149.143247
547.890096,2516.700203,9400.615463,2604.724693
547.890417,2738.761985,10066.800811,4213.525239
547.890737,2294.638420,9696.697840,1762.019645
547.891058,4145.153275,8512.368333,-383.047749
547.891379,3775.050304,8734.430116,0.000000
547.891700,2072.576638,8438.347739,-1072.533697
547.892021,2220.617826,8142.265362,-1149.143247
547.892342,3627.009116,10288.862594,0.000000
547.892662,3552.988522,9992.780217,1072.533697
547.892983,3627.009116,8734.430116,1149.143247
547.893304,3034.844362,6365.771101,76.609550
547.893625,3330.926739,7994.224174,-842.705048
547.893946,3330.926739,9104.533087,766.095498
547.894266,3478.967927,7772.162391,76.609550
547.894587,5625.565159,5625.565159,-2145.067394
547.894908,6587.832884,4811.338623,-1915.238745
547.895229,6513.812290,6809.894666,-689.485948
547.895550,5403.503377,8216.285956,0.000000
547.895871,5921.647536,7994.224174,306.438199
547.896191,7550.100608,8290.306550,0.000000
547.896512,8512.368333,8438.347739,306.438199
547.896833,7254.018232,8956.491898,0.000000
547.897154,6883.915261,8438.347739,-1225.752797
547.897475,5181.441594,6883.915261,-1608.800546
547.897795,5773.606348,5551.544565,-612.876398
547.898116,7624.121203,4885.359217,-76.609550
547.898437,5403.503377,4959.379811,306.438199
547.898758,4367.215058,7772.162391,306.438199
547.899079,5181.441594,10584.944971,383.047749
547.899399,3701.029710,10732.986159,-689.485948
547.899720,4219.173869,8142.265362,-919.314598
547.900041,7550.100608,7105.977043,1685.410096
547.900362,5625.565159,8808.450710,2681.334243
547.900683,2368.659014,9178.553681,1762.019645
547.901004,2368.659014,7550.100608,-2068.457845
547.901324,4367.215058,7772.162391,-2451.505594
547.901645,5181.441594,9844.739029,766.095498
547.901966,5921.647536,9918.759623,1915.238745
547.902287,5921.647536,8660.409521,-536.266849
547.902608,5773.606348,8660.409521,-1608.800546
547.902928,4441.235652,8216.285956,153.219100
547.903249,3182.885551,7624.121203,-229.828649
547.903570,4441.235652,6069.688724,-153.219100
547.903891,6513.812290,7846.182985,612.876398
547.904212,6365.771101,7994.224174,612.876398
547.904533,5181.441594,7031.956449,-689.485948
547.904853,4515.256246,7550.100608,-1685.410096
547.905174,5033.400406,9918.759623,-1762.019645
547.905495,5107.421000,10066.800811,-689.485948
547.905816,5551.544565,8660.409521,-842.705048
547.906137,7328.038826,6069.688724,-1378.971896
547.906457,4885.359217,6439.791695,0.000000
547.906778,3627.009116,7846.182985,-306.438199
547.907099,3478.967927,9474.636058,-1072.533697
547.907420,3923.091493,8142.265362,-1532.190996
547.907741,5847.626942,7179.997637,-766.095498
547.908062,4885.359217,6809.894666,-306.438199
547.908382,1850.514855,7328.038826,-1302.362347
547.908703,1628.453072,9548.656652,-229.828649
547.909024,3256.906145,10584.944971,919.314598
547.909345,4811.338623,10584.944971,995.924147
547.909666,5181.441594,8956.491898,1685.410096
547.909986,3627.009116,9326.594869,229.828649
547.910307,1702.473667,10362.883188,612.876398
547.910628,2368.659014,9770.718434,1149.143247
547.910949,3849.070898,7994.224174,76.609550
547.911270,4367.215058,6587.832884,-1225.752797
547.911590,4589.276840,7105.977043,-1378.971896
547.911911,3552.988522,9474.636058,153.219100
547.912232,2664.741391,9992.780217,306.438199
547.912553,3108.864956,8290.306550,459.657299
547.912874,6217.729913,6143.709319,612.876398
547.913195,8216.285956,5921.647536,1378.971896
547.913515,6365.771101,7624.121203,995.924147
547.913836,4885.359217,7920.203579,-1608.800546
547.914157,6957.935855,7105.977043,-2604.724693
547.914477,7994.224174,6809.894666,-1072.533697
547.914798,9548.656652,7328.038826,612.876398
547.915119,8882.471304,8142.265362,76.609550
547.915439,7105.977043,7920.203579,-1225.752797
547.915760,5995.668130,8438.347739,-1608.800546
547.916080,5773.606348,7920.203579,-919.314598
547.916401,5847.626942,6217.729913,-1225.752797
547.916721,5477.523971,7105.977043,1149.143247
547.917042,4589.276840,7624.121203,2757.943793
547.917363,2960.823768,9030.512492,1915.238745
547.917683,2368.659014,8068.244768,-229.828649
547.918004,2590.720797,7031.956449,-1532.190996
547.918324,4071.132681,8438.347739,919.314598
547.918645,3701.029710,8882.471304,2528.115143
547.918966,4219.173869,7328.038826,1608.800546
547.919286,3256.906145,6069.688724,383.047749
547.919607,4219.173869,8142.265362,536.266849
547.919927,4219.173869,10955.047942,612.876398
547.920248,3997.112087,10362.883188,-1838.629195
547.920568,5403.503377,8142.265362,-2987.772442
547.920889,8586.388927,5921.647536,-766.095498
547.921210,6735.874072,5773.606348,1225.752797
547.921530,4293.194464,5921.647536,-536.266849
547.921851,3775.050304,6513.812290,-3217.601092
547.922171,7031.956449,8364.327145,-1532.190996
547.922492,8512.368333,8808.450710,842.705048
547.922813,8216.285956,7920.203579,1149.143247
547.923133,6587.832884,7402.059420,-689.485948
547.923454,5773.606348,8142.265362,-1532.190996
547.923774,5033.400406,9104.533087,995.924147
547.924095,4959.379811,8290.306550,0.000000
547.924415,5625.565159,6957.935855,-2528.115143
547.924736,4663.297435,8068.244768,-3140.991542
547.925057,2294.638420,10584.944971,-1225.752797
547.925377,1776.494261,10140.821405,1608.800546
547.925698,3108.864956,9178.553681,1762.019645
547.926018,3552.988522,8660.409521,1302.362347
547.926339,2738.761985,8586.388927,1149.143247
547.926660,1110.308913,8364.327145,-842.705048
547.926980,814.226536,9104.533087,-1149.143247
547.927301,4441.235652,9400.615463,306.438199
547.927621,5699.585753,9030.512492,842.705048
547.927942,7328.038826,9178.553681,-536.266849
547.928262,5847.626942,9696.697840,0.000000
547.928583,3849.070898,10066.800811,229.828649
547.928904,4811.338623,10066.800811,1225.752797
547.929224,6661.853478,7550.100608,1302.362347
547.929545,6661.853478,4589.276840,689.485948
547.929865,8512.368333,5847.626942,153.219100
547.930186,7476.080014,8438.347739,-306.438199
547.930507,3552.988522,7476.080014,-2987.772442
547.930827,5329.482782,5477.523971,-3217.601092
547.931148,7772.162391,4885.359217,-919.314598
547.931468,8142.265362,6069.688724,1915.238745
547.931789,8216.285956,8142.265362,2298.286494
547.932109,6217.729913,9252.574275,-1608.800546
547.932430,5847.626942,9770.718434,-2834.553343
547.932751,5995.668130,9252.574275,0.000000
547.933071,5551.544565,7254.018232,229.828649
547.933392,4959.379811,4737.318029,-383.047749
547.933712,6291.750507,5625.565159,612.876398
547.934033,4663.297435,8216.285956,306.438199
547.934354,2072.576638,7179.997637,-459.657299
547.934674,2072.576638,5995.668130,-536.266849
547.934995,5551.544565,7550.100608,153.219100
547.935315,4219.173869,9030.512492,2145.067394
547.935636,4441.235652,9400.615463,2681.334243
547.935956,5181.441594,7698.141797,1072.533697
547.936277,3256.906145,7920.203579,-306.438199
547.936598,3627.009116,8290.306550,766.095498
547.936918,5107.421000,8438.347739,536.266849
547.937239,5255.462188,7254.018232,-536.266849
547.937559,7772.162391,8882.471304,-536.266849
547.937880,6143.709319,8586.388927,-919.314598
547.938201,3552.988522,7698.141797,-2528.115143
547.938521,4959.379811,7624.121203,536.266849
547.938842,5995.668130,7476.080014,2528.115143
547.939162,6217.729913,7105.977043,2145.067394
547.939483,5625.565159,5403.503377,0.000000
547.939803,2960.823768,4293.194464,-2757.943793
547.940124,4811.338623,6143.709319,-2221.676944
547.940445,6365.771101,7920.203579,1149.143247
547.940765,6883.915261,8808.450710,-383.047749
547.941086,7550.100608,8438.347739,-2681.334243
547.941406,8512.368333,10362.883188,-1378.971896
547.941727,6143.709319,10510.924376,-306.438199
547.942048,4219.173869,9918.759623,0.000000
547.942368,5625.565159,8068.244768,-153.219100
547.942689,6587.832884,7698.141797,-689.485948
547.943009,5181.441594,7920.203579,1225.752797
547.943330,4515.256246,9178.553681,0.000000
547.943650,1998.556043,7772.162391,-1762.019645
547.943971,1776.494261,8142.265362,-1149.143247
547.944292,3627.009116,7920.203579,1608.800546
547.944612,3034.844362,7105.977043,1608.800546
547.944933,3182.885551,7698.141797,1762.019645
547.945253,4885.359217,11177.109724,1762.019645
547.945574,2812.782580,12287.418637,229.828649
547.945895,2664.741391,10881.027347,-1302.362347
547.946215,4737.318029,8586.388927,-919.314598
547.946536,6365.771101,7772.162391,-689.485948
547.946856,6291.750507,7920.203579,459.657299
547.947177,5329.482782,8586.388927,-612.876398
547.947497,3552.988522,7920.203579,-3064.381992
547.947818,5107.421000,8660.409521,-1762.019645
547.948139,5477.523971,8956.491898,1149.143247
547.948459,6143.709319,8364.327145,1302.362347
547.948780,6661.853478,7031.956449,1991.848295
547.949100,6513.812290,5625.565159,536.266849
547.949421,3627.009116,4071.132681,-1455.581446
547.949742,4441.235652,4441.235652,-1455.581446
547.950062,6069.688724,5699.585753,-919.314598
547.950383,5329.482782,7698.141797,-459.657299
547.950703,7550.100608,9326.594869,0.000000
547.951024,8290.306550,10436.903782,-1378.971896
547.951344,5551.544565,9474.636058,-2298.286494
547.951665,5847.626942,8882.471304,-689.485948
547.951986,6217.729913,7920.203579,1762.019645
547.952306,6217.729913,5255.462188,1608.800546
547.952627,7031.956449,3701.029710,766.095498
547.952947,5477.523971,3701.029710,-766.095498
547.953268,3997.112087,5995.668130,-1991.848295
547.953589,5403.503377,8660.409521,-995.924147
547.953909,5255.462188,7698.141797,-689.485948
547.954230,8438.347739,7031.956449,612.876398
547.954550,8586.388927,7846.182985,3140.991542
547.954871,3627.009116,9104.533087,1455.581446
547.955191,2146.597232,9326.594869,0.000000
547.955512,4515.256246,9474.636058,1532.190996
547.955833,5033.400406,8956.491898,459.657299
547.956153,5181.441594,7402.059420,-383.047749
547.956474,4737.318029,7328.038826,-1991.848295
547.956794,3330.926739,9474.636058,-1991.848295
547.957115,2072.576638,10807.006753,306.438199
547.957436,2590.720797,9326.594869,1072.533697
547.957756,4367.215058,6217.729913,-306.438199
547.958077,4959.379811,6143.709319,1072.533697
547.958397,3552.988522,8364.327145,1149.143247
547.958718,3552.988522,10436.903782,-766.095498
547.959038,4071.132681,8882.471304,-1838.629195
547.959359,5625.565159,7772.162391,-1532.190996
547.959680,7624.121203,7920.203579,919.314598
547.960000,7402.059420,10066.800811,1072.533697
547.960321,4589.276840,9770.718434,-459.657299
547.960641,4589.276840,9474.636058,-1991.848295
547.960962,5921.647536,8142.265362,-76.609550
547.961283,5625.565159,6069.688724,689.485948
547.961603,6217.729913,5551.544565,1302.362347
547.961924,6735.874072,7402.059420,306.438199
547.962244,3552.988522,8660.409521,-1378.971896
547.962565,3034.844362,7772.162391,-1455.581446
547.962885,4145.153275,5995.668130,-1302.362347
547.963206,4959.379811,6069.688724,-153.219100
547.963527,4367.215058,8364.327145,1762.019645
547.963847,4293.194464,10066.800811,689.485948
547.964168,3034.844362,9474.636058,-2298.286494
547.964488,2368.659014,8882.471304,-2221.676944
547.964809,4663.297435,9252.574275,-1302.362347
547.965130,4811.338623,9474.636058,383.047749
547.965450,4441.235652,9474.636058,76.609550
547.965771,5625.565159,7476.080014,-1149.143247
547.966091,5847.626942,7624.121203,-766.095498
547.966412,4515.256246,7624.121203,-612.876398
547.966732,3849.070898,8586.388927,-76.609550
547.967053,4737.318029,7698.141797,1072.533697
547.967374,5773.606348,6069.688724,919.314598
547.967694,7031.956449,6217.729913,1225.752797
547.968015,5625.565159,6809.894666,-612.876398
547.968335,4515.256246,8290.306550,-2221.676944
547.968656,4885.359217,10066.800811,-1378.971896
547.968977,6661.853478,9992.780217,229.828649
547.969297,7550.100608,8438.347739,383.047749
547.969618,6217.729913,6365.771101,-229.828649
547.969938,4663.297435,7772.162391,-612.876398
547.970259,4145.153275,8364.327145,-306.438199
547.970579,4293.194464,7328.038826,-612.876398
547.970900,5329.482782,6291.750507,-1302.362347
547.971221,6513.812290,6587.832884,306.438199
547.971541,5625.565159,8734.430116,1072.533697
547.971862,3775.050304,8586.388927,-306.438199
547.972182,4441.235652,7105.977043,-2374.896044
547.972503,6587.832884,6661.853478,-1455.581446
547.972824,6217.729913,7105.977043,-153.219100
547.973144,5625.565159,8290.306550,229.828649
547.973465,5329.482782,10658.965565,0.000000
547.973785,5477.523971,11917.315666,-383.047749
547.974106,5255.462188,10732.986159,-229.828649
547.974426,5181.441594,8808.450710,-689.485948
547.974747,4293.194464,7179.997637,-153.219100
547.975068,4441.235652,8660.409521,2221.676944
547.975388,3182.885551,9400.615463,2298.286494
547.975709,1628.453072,7179.997637,0.000000
547.976029,2886.803174,6439.791695,-306.438199
547.976350,3478.967927,6291.750507,76.609550
547.976671,2664.741391,7550.100608,842.705048
547.976991,4071.132681,9252.574275,689.485948
547.977312,5255.462188,9696.697840,-766.095498
547.977632,5033.400406,10881.027347,-536.266849
547.977953,4885.359217,10584.944971,153.219100
547.978273,4737.318029,9696.697840,76.609550
547.978594,4589.276840,8142.265362,-229.828649
547.978915,6661.853478,8438.347739,383.047749
547.979235,5625.565159,7624.121203,-383.047749
547.979556,4885.359217,6291.750507,-2451.505594
547.979876,5699.585753,6513.812290,-2068.457845
547.980197,5329.482782,7920.203579,766.095498
547.980518,4811.338623,6439.791695,1225.752797
547.980838,6439.791695,5625.565159,76.609550
547.981159,5403.503377,5921.647536,-1378.971896
547.981479,5107.421000,8068.244768,-612.876398
547.981800,4737.318029,10214.842000,229.828649
547.982121,5403.503377,9030.512492,-995.924147
547.982441,5995.668130,7846.182985,-1225.752797
547.982762,6957.935855,9030.512492,153.219100
547.983082,4367.215058,8882.471304,-153.219100
547.983403,2590.720797,8734.430116,-1072.533697
547.983723,2812.782580,8660.409521,459.657299
547.984044,4589.276840,7994.224174,919.314598
547.984365,3997.112087,7402.059420,1532.190996
547.984685,4219.173869,7179.997637,0.000000
547.985006,2664.741391,6513.812290,-689.485948
547.985326,2960.823768,6513.812290,612.876398
547.985647,4367.215058,7624.121203,1072.533697
547.985968,4885.359217,7254.018232,-229.828649
547.986288,5551.544565,7402.059420,-1072.533697
547.986609,7772.162391,9548.656652,0.000000
547.986929,6587.832884,10658.965565,-153.219100
547.987250,6735.874072,9178.553681,-1225.752797
547.987570,7846.182985,7994.224174,-2681.334243
547.987891,7994.224174,7550.100608,-2757.943793
547.988212,7994.224174,8734.430116,-766.095498
547.988532,7328.038826,7698.141797,-689.485948
547.988853,5181.441594,6291.750507,-2757.943793
547.989173,5773.606348,7698.141797,-995.924147
547.989494,3997.112087,7994.224174,995.924147
547.989815,3330.926739,8438.347739,689.485948
547.990135,3552.988522,9104.533087,1225.752797
547.990456,3775.050304,9326.594869,1762.019645
547.990776,3108.864956,9992.780217,842.705048
547.991097,2442.679609,9252.574275,766.095498
547.991417,2590.720797,8438.347739,76.609550
547.991738,4737.318029,9104.533087,766.095498
547.992059,4145.153275,9844.739029,842.705048
547.992379,3775.050304,10140.821405,-995.924147
547.992700,3330.926739,9696.697840,-1455.581446
547.993020,3775.050304,9770.718434,766.095498
547.993341,3552.988522,8956.491898,1378.971896
547.993662,5181.441594,7698.141797,995.924147
547.993982,5255.462188,6587.832884,459.657299
547.994303,3923.091493,6735.874072,-229.828649
547.994623,3923.091493,6513.812290,-306.438199
547.994944,5181.441594,8882.471304,-536.266849
547.995264,5847.626942,8586.388927,229.828649
547.995585,7105.977043,8364.327145,689.485948
547.995906,9104.533087,8438.347739,842.705048
547.996226,6143.709319,8216.285956,-306.438199
547.996547,4811.338623,6439.791695,-995.924147
547.996867,5921.647536,6217.729913,-306.438199
547.997188,5625.565159,5995.668130,0.000000
547.997509,6365.771101,5847.626942,0.000000
547.997829,6513.812290,5329.482782,-1149.143247
547.998150,4811.338623,4737.318029,-2757.943793
547.998470,4219.173869,7624.121203,-919.314598
547.998791,4737.318029,9104.533087,153.219100
547.999111,4737.318029,7550.100608,-1072.533697
547.999432,6217.729913,7846.182985,689.485948
547.999753,5477.523971,9030.512492,919.314598
548.000073,3552.988522,10584.944971,919.314598
548.000394,2812.782580,9326.594869,-689.485948
548.000714,4293.194464,9474.636058,-1685.410096
548.001035,4885.359217,8734.430116,0.000000
548.001356,3997.112087,8068.244768,1532.190996
548.001676,3330.926739,7994.224174,1532.190996
548.001997,2812.782580,8808.450710,842.705048
548.002317,1850.514855,9178.553681,536.266849
548.002638,3701.029710,8068.244768,1072.533697
548.002958,3997.112087,6809.894666,306.438199
548.003279,4663.297435,7846.182985,612.876398
548.003600,4441.235652,8734.430116,536.266849
548.003920,4589.276840,9326.594869,-536.266849
548.004241,4219.173869,7846.182985,-2528.115143
548.004561,6661.853478,8216.285956,-1991.848295
548.004882,7994.224174,9622.677246,-229.828649
548.005203,6809.894666,9548.656652,-1532.190996
548.005523,6513.812290,8290.306550,-1225.752797
548.005844,8068.244768,8364.327145,-536.266849
548.006164,7031.956449,7920.203579,-536.266849
548.006485,6661.853478,6883.915261,-995.924147
548.006805,8068.244768,6143.709319,-1838.629195
548.007126,6513.812290,6143.709319,-1225.752797
548.007447,5403.503377,6143.709319,0.000000
548.007767,5329.482782,6439.791695,-1149.143247
548.008088,4145.153275,6883.915261,-1149.143247
548.008408,4367.215058,8586.388927,306.438199
548.008729,4367.215058,9696.697840,383.047749
548.009050,2738.761985,10955.047942,-842.705048
548.009370,2886.803174,10584.944971,-995.924147
548.009691,3552.988522,9030.512492,76.609550
548.010011,3552.988522,8216.285956,689.485948
548.010332,3997.112087,7920.203579,689.485948
548.010652,2664.741391,8364.327145,-383.047749
548.010973,3182.885551,9252.574275,-1225.752797
548.011294,4811.338623,9770.718434,229.828649
548.011614,5699.585753,8956.491898,1149.143247
548.011935,6217.729913,5773.606348,536.266849
548.012255,6291.750507,4367.215058,-229.828649
548.012576,6365.771101,5033.400406,306.438199
548.012897,5625.565159,7105.977043,-536.266849
548.013217,6809.894666,7179.997637,-1915.238745
548.013538,8364.327145,9104.533087,-2451.505594
548.013858,8216.285956,9474.636058,-842.705048
548.014179,8290.306550,10214.842000,459.657299
548.014500,7105.977043,8956.491898,0.000000
548.014820,5625.565159,7994.224174,-1762.019645
548.015141,6513.812290,7402.059420,-229.828649
548.015461,4589.276840,6957.935855,-612.876398
548.015782,3849.070898,5921.647536,-383.047749
548.016103,3923.091493,6661.853478,1685.410096
548.016423,4071.132681,8512.368333,1532.190996
548.016744,3108.864956,8512.368333,229.828649
548.017064,2442.679609,6513.812290,-383.047749
548.017385,2812.782580,7550.100608,-919.314598
548.017706,4737.318029,9400.615463,766.095498
548.018026,5551.544565,9992.780217,995.924147
548.018347,4737.318029,9844.739029,0.000000
548.018667,5995.668130,9918.759623,0.000000
548.018988,5921.647536,10362.883188,2451.505594
548.019309,4737.318029,10214.842000,1455.581446
548.019629,4145.153275,8956.491898,0.000000
548.019950,3997.112087,6661.853478,-766.095498
548.020270,4959.379811,6069.688724,1072.533697
548.020591,4737.318029,5477.523971,2528.115143
548.020912,4293.194464,4885.359217,1608.800546
548.021232,5255.462188,5033.400406,-842.705048
548.021553,5921.647536,6809.894666,-1532.190996
548.021873,5255.462188,7476.080014,-1915.238745
548.022194,6735.874072,6809.894666,-1225.752797
548.022515,8290.306550,7031.956449,-459.657299
548.022835,7772.162391,8290.306550,0.000000
548.023156,6735.874072,9622.677246,-995.924147
548.023476,5847.626942,9326.594869,-2834.553343
548.023797,4737.318029,8586.388927,-3447.429741
548.024118,5847.626942,8290.306550,-459.657299
548.024438,6883.915261,8364.327145,1149.143247
548.024759,6143.709319,6587.832884,76.609550
548.025079,3552.988522,4367.215058,-612.876398
548.025400,3627.009116,5995.668130,-1072.533697
548.025721,3849.070898,7920.203579,306.438199
548.026041,2886.803174,7624.121203,612.876398
548.026362,5699.585753,6513.812290,536.266849
548.026682,7624.121203,8290.306550,76.609550
548.027003,4811.338623,10214.842000,0.000000
548.027324,3552.988522,10732.986159,-229.828649
548.027644,3627.009116,10066.800811,0.000000
548.027965,4589.276840,9400.615463,0.000000
548.028285,4959.379811,8586.388927,689.485948
548.028606,4589.276840,8216.285956,-766.095498
548.028927,3552.988522,8734.430116,-1838.629195
548.029247,4515.256246,10510.924376,1072.533697
548.029568,4515.256246,9770.718434,2221.676944
548.029888,5847.626942,7920.203579,153.219100
548.030209,5255.462188,5995.668130,-612.876398
548.030530,4589.276840,5921.647536,-995.924147
548.030850,3849.070898,6809.894666,459.657299
548.031171,5551.544565,7179.997637,1072.533697
548.031491,6069.688724,8068.244768,-1072.533697
548.031812,7846.182985,9400.615463,-383.047749
548.032133,7698.141797,11325.150913,-536.266849
548.032453,5921.647536,11547.212695,-1149.143247
548.032774,5033.400406,8882.471304,-1302.362347
548.033094,5847.626942,5995.668130,-766.095498
548.033415,7031.956449,5255.462188,0.000000
548.033736,6069.688724,6365.771101,0.000000
548.034056,5329.482782,7994.224174,-919.314598
548.034377,4367.215058,8364.327145,-1302.362347
548.034697,3849.070898,8216.285956,306.438199
548.035018,5033.400406,7105.977043,1915.238745
548.035339,5107.421000,5847.626942,1685.410096
548.035659,5551.544565,6735.874072,1225.752797
548.035980,4885.359217,7920.203579,536.266849
548.036300,3404.947333,8216.285956,-1225.752797
548.036621,3923.091493,8586.388927,-2221.676944
548.036942,5033.400406,9992.780217,0.000000
548.037262,5329.482782,9992.780217,919.314598
548.037583,5625.565159,10066.800811,612.876398
548.037903,4663.297435,8956.491898,-766.095498
548.038224,3182.885551,7328.038826,-1915.238745
548.038545,2738.761985,7179.997637,383.047749
548.038865,2886.803174,7328.038826,1532.190996
548.039186,2738.761985,6439.791695,1149.143247
548.039506,5847.626942,7179.997637,1149.143247
548.039827,4885.359217,8660.409521,229.828649
548.040148,3627.009116,8290.306550,-1072.533697
548.040468,4071.132681,7105.977043,-1455.581446
548.040789,6661.853478,7994.224174,-383.047749
548.041109,6587.832884,7698.141797,689.485948
548.041430,7105.977043,7994.224174,1455.581446
548.041751,6439.791695,7994.224174,-995.924147
548.042071,4441.235652,8882.471304,-3140.991542
548.042392,5625.565159,9992.780217,-1762.019645
548.042712,8068.244768,8956.491898,-153.219100
548.043033,7105.977043,6143.709319,-919.314598
548.043354,7476.080014,5329.482782,-459.657299
548.043674,4663.297435,6883.915261,0.000000
548.043995,2516.700203,8512.368333,-383.047749
548.044315,4367.215058,7994.224174,1762.019645
548.044636,6661.853478,8364.327145,1455.581446
548.044957,7105.977043,8142.265362,612.876398
548.045277,4885.359217,9548.656652,229.828649
548.045598,1480.411884,9252.574275,-995.924147
548.045918,1628.453072,8734.430116,-229.828649
548.046239,3034.844362,8660.409521,1455.581446
548.046560,3775.050304,8956.491898,153.219100
548.046880,3478.967927,9178.553681,-995.924147
548.047201,3404.947333,11251.130318,-306.438199
548.047521,3552.988522,11621.233289,-612.876398
548.047842,3552.988522,9252.574275,-612.876398
548.048163,5107.421000,5995.668130,-995.924147
548.048483,5551.544565,5107.421000,-1225.752797
548.048804,4811.338623,6143.709319,-459.657299
548.049124,6143.709319,8438.347739,306.438199
548.049445,6069.688724,8956.491898,-689.485948
548.049766,6513.812290,7846.182985,-995.924147
548.050086,8660.409521,7772.162391,536.266849
548.050407,8142.265362,8142.265362,306.438199
548.050727,5847.626942,7402.059420,-536.266849
548.051048,6513.812290,6439.791695,-1072.533697
548.051369,6809.894666,5847.626942,-1762.019645
548.051689,5625.565159,7179.997637,-919.314598
548.052010,6291.750507,7550.100608,-306.438199
548.052330,7254.018232,7994.224174,-766.095498
548.052651,6143.709319,9326.594869,-383.047749
548.052972,4441.235652,8586.388927,76.609550
548.053292,3108.864956,7031.956449,-1072.533697
548.053613,4293.194464,7402.059420,-1378.971896
548.053933,4811.338623,9474.636058,1532.190996
548.054254,3404.947333,9326.594869,1532.190996
548.054575,3627.009116,9400.615463,459.657299
548.054895,3997.112087,10510.924376,306.438199
548.055216,2812.782580,10732.986159,153.219100
548.055536,2220.617826,9104.533087,689.485948
548.055857,5107.421000,7031.956449,459.657299
548.056178,4959.379811,6661.853478,689.485948
548.056498,4737.318029,7179.997637,766.095498
548.056819,5033.400406,8808.450710,0.000000
548.057139,3849.070898,9104.533087,0.000000
548.057460,5477.523971,7846.182985,995.924147
548.057781,7402.059420,7920.203579,1991.848295
548.058101,5403.503377,6883.915261,0.000000
548.058422,4441.235652,6365.771101,-1608.800546
548.058742,4737.318029,7772.162391,-689.485948
548.059063,5551.544565,8364.327145,-229.828649
548.059384,6735.874072,9178.553681,229.828649
548.059704,6587.832884,7846.182985,-459.657299
548.060025,4811.338623,8586.388927,-2374.896044
548.060345,4367.215058,9178.553681,-76.609550
548.060666,4071.132681,8290.306550,919.314598
548.060987,3849.070898,6291.750507,0.000000
548.061307,4071.132681,5255.462188,-689.485948
548.061628,3849.070898,6957.935855,-229.828649
548.061948,3552.988522,9918.759623,229.828649
548.062269,3034.844362,9030.512492,689.485948
548.062590,3256.906145,7550.100608,76.609550
548.062910,5699.585753,7031.956449,612.876398
548.063231,5181.441594,8882.471304,-229.828649
548.063551,3849.070898,9326.594869,153.219100
548.063872,5255.462188,7772.162391,-1302.362347
548.064193,6661.853478,7772.162391,-536.266849
548.064513,5033.400406,8734.430116,-153.219100
548.064834,4959.379811,9030.512492,-383.047749
548.065154,5699.585753,9104.533087,-153.219100
548.065475,5033.400406,9104.533087,0.000000
548.065796,4811.338623,8142.265362,-383.047749
548.066116,4441.235652,6217.729913,-995.924147
548.066437,4219.173869,5403.503377,-1838.629195
548.066757,3997.112087,8142.265362,919.314598
548.067078,4367.215058,9326.594869,919.314598
548.067399,6217.729913,9326.594869,-383.047749
548.067719,5921.647536,8734.430116,-995.924147
548.068040,5255.462188,10140.821405,-306.438199
548.068360,5181.441594,10066.800811,459.657299
548.068681,5699.585753,8808.450710,0.000000
548.069002,5107.421000,6735.874072,-1149.143247
548.069322,6513.812290,6217.729913,-459.657299
548.069643,5403.503377,7105.977043,-536.266849
548.069963,4367.215058,8734.430116,-1302.362347
548.070284,4589.276840,8364.327145,-842.705048
548.070605,6365.771101,8512.368333,536.266849
548.070925,6735.874072,8290.306550,1991.848295
548.071246,4885.359217,7105.977043,1608.800546
548.071566,3775.050304,7254.018232,-612.876398
548.071887,4737.318029,8216.285956,-689.485948
548.072208,4219.173869,8882.471304,842.705048
548.072528,4589.276840,7698.141797,229.828649
548.072849,5329.482782,7179.997637,-766.095498
548.073169,5847.626942,8586.388927,-229.828649
548.073490,3552.988522,9918.759623,459.657299
548.073811,3108.864956,8512.368333,-383.047749
548.074131,3330.926739,7105.977043,-919.314598
548.074452,5403.503377,7402.059420,-612.876398
548.074772,4959.379811,8290.306550,0.000000
548.075093,4885.359217,8512.368333,-229.828649
548.075414,4811.338623,7105.977043,-536.266849
548.075734,4885.359217,6143.709319,306.438199
548.076055,5033.400406,6587.832884,766.095498
548.076375,5625.565159,6735.874072,1149.143247
548.076696,5329.482782,8438.347739,-689.485948
548.077017,7402.059420,8808.450710,-459.657299
548.077337,6735.874072,7920.203579,-536.266849
548.077658,6217.729913,6661.853478,-612.876398
548.077978,6735.874072,7920.203579,-229.828649
548.078299,5181.441594,9326.594869,0.000000
548.078620,3997.112087,8956.491898,-536.266849
548.078940,5255.462188,5773.606348,-536.266849
548.079261,4737.318029,6217.729913,229.828649
548.079581,3552.988522,7476.080014,1072.533697
548.079902,2960.823768,9178.553681,919.314598
548.080223,3478.967927,9326.594869,-689.485948
548.080543,2516.700203,9104.533087,-1378.971896
548.080864,4441.235652,9548.656652,536.266849
548.081184,2442.679609,9326.594869,612.876398
548.081505,2516.700203,10510.924376,0.000000
548.081826,3108.864956,10807.006753,306.438199
548.082146,4071.132681,10214.842000,229.828649
548.082467,4885.359217,9622.677246,-229.828649
548.082787,4293.194464,9400.615463,-766.095498
548.083108,2368.659014,9030.512492,-1532.190996
548.083429,4367.215058,8734.430116,919.314598
548.083749,5107.421000,8808.450710,2145.067394
548.084070,5181.441594,7254.018232,995.924147
548.084390,4145.153275,6291.750507,0.000000
548.084711,4885.359217,7105.977043,76.609550
548.085032,4441.235652,7254.018232,153.219100
548.085352,6365.771101,6513.812290,536.266849
548.085673,7254.018232,6587.832884,-1072.533697
548.085993,7105.977043,7698.141797,-1455.581446
548.086314,5847.626942,9992.780217,-383.047749
548.086635,5477.523971,9992.780217,-536.266849
548.086955,5477.523971,7624.121203,-2221.676944
548.087276,7031.956449,7105.977043,-1915.238745
548.087596,5773.606348,7476.080014,-306.438199
548.087917,4885.359217,6587.832884,-766.095498
548.088238,5181.441594,6291.750507,-1149.143247
548.088558,5551.544565,6957.935855,-1915.238745
548.088879,5033.400406,6513.812290,-1532.190996
548.089200,5699.585753,6069.688724,-842.705048
548.089520,5107.421000,6883.915261,-1149.143247
548.089841,6957.935855,7772.162391,0.000000
548.090161,6365.771101,8586.388927,612.876398
548.090482,6365.771101,9474.636058,-919.314598
548.090803,6143.709319,9696.697840,-1685.410096
548.091123,5625.565159,9400.615463,383.047749
548.091444,6069.688724,8216.285956,842.705048
548.091764,7179.997637,7624.121203,1838.629195
548.092085,4811.338623,6587.832884,1072.533697
548.092406,2812.782580,5625.565159,0.000000
548.092726,3330.926739,6143.709319,76.609550
548.093047,5625.565159,7994.224174,-306.438199
548.093367,4367.215058,7179.997637,-459.657299
548.093688,6439.791695,6143.709319,-1149.143247
548.094009,7105.977043,7772.162391,-1072.533697
548.094329,4589.276840,10584.944971,-1149.143247
548.094650,2442.679609,9104.533087,-766.095498
548.094970,5847.626942,9178.553681,-306.438199
548.095291,6957.935855,9474.636058,229.828649
548.095612,6143.709319,10732.986159,-536.266849
548.095932,4589.276840,9400.615463,-3217.601092
548.096253,4811.338623,10214.842000,-4366.744339
548.096573,5033.400406,11251.130318,-766.095498
548.096894,4145.153275,8290.306550,1455.581446
548.097215,4885.359217,5699.585753,459.657299
548.097535,4441.235652,6809.894666,459.657299
548.097856,148.041188,7772.162391,536.266849
548.098176,148.041188,8364.327145,1225.752797
548.098497,3997.112087,7328.038826,1149.143247
548.098818,5625.565159,9104.533087,1225.752797
548.099138,4737.318029,10140.821405,995.924147
548.099459,3478.967927,10584.944971,-1225.752797
548.099779,2812.782580,10214.842000,-1378.971896
548.100100,3404.947333,8734.430116,689.485948
548.100421,3997.112087,7698.141797,2145.067394
548.100741,5995.668130,7254.018232,0.000000
548.101062,4737.318029,8290.306550,-1378.971896
548.101382,4145.153275,10140.821405,-842.705048
548.101703,3997.112087,8586.388927,-995.924147
548.102024,4885.359217,7254.018232,-612.876398
548.102344,5255.462188,4515.256246,0.000000
548.102665,5773.606348,3775.050304,689.485948
548.102985,5847.626942,5255.462188,1762.019645
548.103306,5995.668130,7105.977043,612.876398
548.103627,5699.585753,7698.141797,-1532.190996
548.103947,7402.059420,7846.182985,-2451.505594
548.104268,8808.450710,8290.306550,-1072.533697
548.104588,8660.409521,9252.574275,306.438199
548.104909,8660.409521,7772.162391,306.438199
548.105230,7179.997637,7105.977043,0.000000
548.105550,5107.421000,6513.812290,-766.095498
548.105871,4145.153275,5921.647536,-536.266849
548.106191,3849.070898,4737.318029,-153.219100
548.106512,5477.523971,5847.626942,842.705048
548.106833,5477.523971,7550.100608,1455.581446
548.107153,3478.967927,7476.080014,76.609550
548.107474,2886.803174,7105.977043,-536.266849
548.107794,4663.297435,8660.409521,229.828649
548.108115,4737.318029,8882.471304,995.924147
548.108436,5477.523971,8290.306550,689.485948
548.108756,7179.997637,7846.182985,-229.828649
548.109077,6143.709319,10066.800811,-1991.848295
548.109397,4811.338623,10288.862594,-1455.581446
548.109718,5847.626942,10066.800811,-306.438199
548.110039,6587.832884,8512.368333,-1072.533697
548.110359,6143.709319,7550.100608,0.000000
548.110680,5107.421000,7402.059420,153.219100
548.111000,3404.947333,7254.018232,-1378.971896
548.111321,4071.132681,7698.141797,-689.485948
548.111642,5033.400406,7402.059420,1072.533697
548.111962,4959.379811,8068.244768,612.876398
548.112283,5033.400406,7698.141797,459.657299
548.112603,3849.070898,8882.471304,-153.219100
548.112930,2220.617826,8660.409521,-383.047749
548.113251,3552.988522,8438.347739,919.314598
548.113571,5403.503377,9548.656652,76.609550
548.113892,5107.421000,9918.759623,-919.314598
548.114213,4367.215058,10066.800811,-1991.848295
548.114533,4219.173869,10584.944971,-1455.581446
548.114854,3330.926739,9696.697840,-1149.143247
548.115174,4663.297435,7402.059420,459.657299
548.115495,4441.235652,5551.544565,-766.095498
548.115815,4737.318029,6143.709319,-995.924147
548.116136,3701.029710,9178.553681,842.705048
548.116456,2886.803174,10214.842000,1225.752797
548.116777,3552.988522,8586.388927,-612.876398
548.117097,6439.791695,9104.533087,-689.485948
548.117418,5329.482782,8290.306550,0.000000
548.117738,3923.091493,7846.182985,76.609550
548.118059,4589.276840,7846.182985,612.876398
548.118380,4959.379811,8438.347739,995.924147
548.118700,3849.070898,8142.265362,536.266849
548.119021,5477.523971,7772.162391,-612.876398
548.119341,5773.606348,8068.244768,-1225.752797
548.119662,5847.626942,8290.306550,306.438199
548.119982,4959.379811,7550.100608,1072.533697
548.120303,4737.318029,5847.626942,0.000000
548.120623,4515.256246,4737.318029,76.609550
548.120944,4811.338623,5403.503377,995.924147
548.121264,4515.256246,7254.018232,0.000000
548.121585,6735.874072,8216.285956,-536.266849
548.121905,6365.771101,7328.038826,-153.219100
548.122226,7031.956449,6957.935855,-153.219100
548.122546,7846.182985,9400.615463,536.266849
548.122867,7476.080014,9696.697840,383.047749
548.123188,5551.544565,7846.182985,-1685.410096
548.123508,8734.430116,6809.894666,-995.924147
548.123829,6439.791695,6587.832884,-995.924147
548.124149,4367.215058,5033.400406,-766.095498
548.124470,5181.441594,5773.606348,536.266849
548.124790,6291.750507,8956.491898,1302.362347
548.125111,4589.276840,9474.636058,1378.971896
548.125431,3330.926739,7698.141797,153.219100
548.125752,3108.864956,5107.421000,-612.876398
548.126072,4885.359217,7105.977043,919.314598
548.126393,4219.173869,8956.491898,3830.477490
548.126713,4737.318029,8512.368333,995.924147
548.127034,6809.894666,8438.347739,-1532.190996
548.127355,5625.565159,8586.388927,-766.095498
548.127675,2738.761985,8734.430116,-1149.143247
548.127996,5033.400406,8512.368333,1149.143247
548.128316,5033.400406,8956.491898,689.485948
548.128637,5255.462188,8882.471304,-459.657299
548.128957,5551.544565,8364.327145,-995.924147
548.129278,4515.256246,8586.388927,-1991.848295
548.129598,3552.988522,8956.491898,-1302.362347
548.129919,4737.318029,8882.471304,1149.143247
548.130239,4441.235652,8290.306550,153.219100
548.130560,5551.544565,7846.182985,-842.705048
548.130880,5329.482782,9252.574275,229.828649
548.131201,3849.070898,10214.842000,229.828649
548.131521,3849.070898,10436.903782,0.000000
548.131842,4737.318029,9918.759623,-995.924147
548.132163,3552.988522,8364.327145,-1532.190996
548.132483,5255.462188,6957.935855,0.000000
548.132804,4737.318029,8142.265362,1455.581446
548.133124,3627.009116,9030.512492,229.828649
548.133445,2220.617826,6809.894666,-612.876398
548.133765,4219.173869,7624.121203,-1072.533697
548.134086,4737.318029,8956.491898,229.828649
548.134406,4515.256246,9400.615463,1378.971896
548.134727,4441.235652,8660.409521,383.047749
548.135047,5329.482782,8290.306550,-536.266849
548.135368,4145.153275,8956.491898,-689.485948
548.135688,4959.379811,9474.636058,-459.657299
548.136009,4663.297435,8734.430116,-1378.971896
548.136330,6513.812290,9252.574275,-229.828649
548.136650,5181.441594,8660.409521,153.219100
548.136971,2886.803174,6957.935855,229.828649
548.137291,4737.318029,7550.100608,-153.219100
548.137612,5181.441594,8290.306550,-306.438199
548.137932,3849.070898,8142.265362,-383.047749
548.138253,8142.265362,7179.997637,229.828649
548.138573,5551.544565,4885.359217,-306.438199
548.138894,3997.112087,4737.318029,-766.095498
548.139214,4959.379811,5847.626942,229.828649
548.139535,6735.874072,7550.100608,459.657299
548.139855,7476.080014,8364.327145,-76.609550
548.140176,8438.347739,8956.491898,-766.095498
548.140496,6365.771101,8142.265362,-2374.896044
548.140817,6217.729913,8808.450710,-1302.362347
548.141138,5403.503377,7772.162391,2221.676944
548.141458,7402.059420,6735.874072,1455.581446
548.141779,8882.471304,7105.977043,689.485948
548.142099,5773.606348,7179.997637,-1149.143247
548.142420,2738.761985,7031.956449,-2528.115143
548.142740,4219.173869,6957.935855,76.609550
548.143061,5181.441594,7254.018232,2528.115143
548.143381,5773.606348,7846.182985,2298.286494
548.143702,3478.967927,5255.462188,153.219100
548.144022,3108.864956,7254.018232,-2298.286494
548.144343,3330.926739,10140.821405,-919.314598
548.144663,4367.215058,11251.130318,383.047749
548.144984,5255.462188,9844.739029,-1378.971896
548.145305,6957.935855,8512.368333,-2068.457845
548.145625,5847.626942,9696.697840,0.000000
548.145946,4293.194464,10362.883188,1072.533697
548.146266,2738.761985,8586.388927,306.438199
548.146587,4145.153275,7994.224174,-995.924147
548.146907,4885.359217,8068.244768,-459.657299
548.147228,5625.565159,7698.141797,1149.143247
548.147548,4145.153275,7179.997637,1072.533697
548.147869,2368.659014,6217.729913,0.000000
548.148189,3108.864956,7179.997637,229.828649
548.148510,4589.276840,9104.533087,995.924147
548.148830,3034.844362,7550.100608,-689.485948
548.149151,6809.894666,8882.471304,0.000000
548.149471,6883.915261,11103.089130,536.266849
548.149792,3701.029710,11917.315666,-842.705048
548.150113,2886.803174,9770.718434,-1762.019645
548.150433,5477.523971,7994.224174,-2374.896044
548.150754,5033.400406,7698.141797,-995.924147
548.151074,5699.585753,8882.471304,1532.190996
548.151395,3034.844362,6809.894666,153.219100
548.151715,3182.885551,6513.812290,-995.924147
548.152036,3552.988522,7846.182985,842.705048
548.152356,3108.864956,8512.368333,689.485948
548.152677,4293.194464,5847.626942,-612.876398
548.152997,7105.977043,7179.997637,-612.876398
548.153318,6143.709319,7920.203579,0.000000
548.153638,4367.215058,9178.553681,-995.924147
548.153959,4737.318029,7624.121203,-1302.362347
548.154280,6809.894666,8734.430116,-153.219100
548.154600,7920.203579,10140.821405,1762.019645
548.154921,7550.100608,10732.986159,1302.362347
548.155241,4515.256246,8142.265362,-2681.334243
548.155562,4071.132681,6587.832884,-2757.943793
548.155882,5181.441594,7624.121203,2145.067394
548.156203,5107.421000,6661.853478,3370.820191
548.156523,5551.544565,5107.421000,1838.629195
548.156844,5773.606348,5107.421000,153.219100
548.157164,3701.029710,5921.647536,-1072.533697
548.157485,3108.864956,6439.791695,229.828649
548.157805,5329.482782,6809.894666,995.924147
548.158126,7550.100608,8808.450710,-383.047749
548.158446,6957.935855,8586.388927,-612.876398
548.158767,5329.482782,9252.574275,-1915.238745
548.159088,5033.400406,8808.450710,-2681.334243
548.159408,5847.626942,8290.306550,-1072.533697
548.159729,6217.729913,8660.409521,-612.876398
548.160049,6513.812290,7846.182985,-1685.410096
548.160370,6513.812290,7920.203579,-1685.410096
548.160690,5773.606348,8216.285956,459.657299
548.161011,4663.297435,7105.977043,1072.533697
548.161331,4441.235652,7105.977043,1072.533697
548.161652,3997.112087,6217.729913,0.000000
548.161972,4441.235652,6143.709319,612.876398
548.162293,4737.318029,6661.853478,1762.019645
548.162613,4737.318029,9400.615463,1225.752797
548.162934,3701.029710,9400.615463,-689.485948
548.163255,3256.906145,10140.821405,-1915.238745
548.163575,4219.173869,9178.553681,-1149.143247
548.163896,4811.338623,8956.491898,383.047749
548.164216,5329.482782,9326.594869,1225.752797
548.164537,4071.132681,9104.533087,0.000000
548.164857,3775.050304,9400.615463,-842.705048
548.165178,4663.297435,8956.491898,-766.095498
548.165498,4737.318029,7328.038826,-536.266849
548.165819,5107.421000,6735.874072,153.219100
548.166139,7105.977043,6439.791695,1685.410096
548.166460,4737.318029,7105.977043,229.828649
548.166780,4737.318029,7031.956449,-1302.362347
548.167101,5625.565159,7994.224174,-1838.629195
548.167421,6587.832884,8882.471304,-919.314598
548.167742,6587.832884,8956.491898,459.657299
548.168063,8808.450710,8882.471304,0.000000
548.168383,5921.647536,8290.306550,-1915.238745
548.168704,4811.338623,8512.368333,-2451.505594
548.169024,5255.462188,8142.265362,-842.705048
548.169345,5181.441594,7476.080014,76.609550
548.169665,5625.565159,6883.915261,995.924147
548.169986,6365.771101,7328.038826,383.047749
548.170306,3478.967927,7179.997637,-1225.752797
548.170627,2664.741391,6513.812290,-995.924147
548.170947,3552.988522,6957.935855,995.924147
548.171268,5847.626942,7105.977043,1072.533697
548.171588,5847.626942,9030.512492,919.314598
548.171909,4071.132681,8956.491898,-383.047749
548.172230,3034.844362,8882.471304,-1838.629195
548.172550,4959.379811,9474.636058,536.266849
548.172871,4515.256246,10214.842000,1762.019645
548.173191,5551.544565,9252.574275,0.000000
548.173512,4737.318029,8586.388927,-1991.848295
548.173832,4293.194464,9918.759623,-1762.019645
548.174153,3627.009116,9992.780217,229.828649
548.174473,4441.235652,7550.100608,1685.410096
548.174794,4959.379811,5921.647536,459.657299
548.175114,5551.544565,6513.812290,0.000000
548.175435,4885.359217,7846.182985,0.000000
548.175755,4515.256246,8290.306550,0.000000
548.176076,5551.544565,8364.327145,76.609550
548.176396,6809.894666,8808.450710,153.219100
548.176717,6069.688724,8808.450710,-459.657299
548.177038,5477.523971,7846.182985,-919.314598
548.177358,5625.565159,7402.059420,-842.705048
548.177679,5773.606348,7105.977043,536.266849
548.177999,5921.647536,7920.203579,459.657299
548.178320,5773.606348,7402.059420,-459.657299
548.178640,5329.482782,7624.121203,-1149.143247
548.178961,7105.977043,7328.038826,153.219100
548.179281,5773.606348,7550.100608,1378.971896
548.179602,5477.523971,6735.874072,842.705048
548.179922,4441.235652,6513.812290,-612.876398
548.180243,4811.338623,7105.977043,-995.924147
548.180563,3997.112087,8216.285956,-153.219100
548.180884,4959.379811,9326.594869,612.876398
548.181205,5181.441594,8734.430116,766.095498
548.181525,5329.482782,8216.285956,153.219100
548.181846,2442.679609,7698.141797,-383.047749
548.182166,2812.782580,9400.615463,-766.095498
548.182487,2368.659014,8660.409521,0.000000
548.182807,3478.967927,7105.977043,0.000000
548.183128,6661.853478,7031.956449,-383.047749
548.183448,5329.482782,7031.956449,-919.314598
548.183769,2960.823768,7105.977043,-2145.067394
548.184089,4367.215058,7402.059420,-919.314598
548.184410,5107.421000,7550.100608,383.047749
548.184730,7254.018232,7920.203579,459.657299
548.185051,6957.935855,7254.018232,-306.438199
548.185372,6143.709319,7994.224174,-3370.820191
548.185692,5477.523971,9326.594869,-2068.457845
548.186013,6809.894666,10510.924376,612.876398
548.186333,7105.977043,9326.594869,229.828649
548.186654,7698.141797,8808.450710,0.000000
548.186974,5995.668130,8068.244768,-536.266849
548.187295,3775.050304,7994.224174,-306.438199
548.187615,2960.823768,7105.977043,1608.800546
548.187936,5033.400406,6957.935855,1302.362347
548.188256,5477.523971,7328.038826,536.266849
548.188577,4367.215058,8068.244768,153.219100
548.188897,3034.844362,8882.471304,-612.876398
548.189218,3256.906145,8808.450710,-612.876398
548.189538,4589.276840,8882.471304,306.438199
548.189859,5477.523971,9252.574275,229.828649
548.190180,4293.194464,8512.368333,-1762.019645
548.190500,5403.503377,9696.697840,-1225.752797
548.190821,5181.441594,11251.130318,76.609550
548.191141,5181.441594,9474.636058,229.828649
548.191462,4959.379811,7476.080014,-612.876398
548.191782,5921.647536,7031.956449,-1072.533697
548.192103,4663.297435,7179.997637,-459.657299
548.192423,5255.462188,5773.606348,1762.019645
548.192744,5773.606348,4885.359217,1455.581446
548.193064,6809.894666,6513.812290,383.047749
548.193385,5033.400406,8290.306550,-153.219100
548.193705,5477.523971,9844.739029,-1532.190996
548.194026,5699.585753,8364.327145,-1225.752797
548.194347,7402.059420,7105.977043,306.438199
548.194667,5921.647536,7550.100608,919.314598
548.194988,4737.318029,8512.368333,0.000000
548.195308,1850.514855,8142.265362,-2451.505594
548.195629,2664.741391,8660.409521,-2528.115143
548.195949,3849.070898,8734.430116,-383.047749
548.196270,4367.215058,8586.388927,1685.410096
548.196590,3627.009116,7328.038826,1149.143247
548.196911,3627.009116,7550.100608,0.000000
548.197231,2220.617826,8142.265362,-229.828649
548.197552,2960.823768,8734.430116,306.438199
548.197872,2886.803174,7031.956449,536.266849
548.198193,5995.668130,6735.874072,-153.219100
548.198513,6069.688724,9104.533087,-153.219100
548.198834,4441.235652,10214.842000,-536.266849
548.199155,4959.379811,9474.636058,-1149.143247
548.199475,6735.874072,9770.718434,0.000000
548.199796,5995.668130,9030.512492,689.485948
548.200116,6217.729913,9474.636058,229.828649
548.200437,4219.173869,7846.182985,-995.924147
548.200757,3849.070898,6809.894666,-1532.190996
548.201078,5699.585753,7920.203579,995.924147
548.201398,5699.585753,8734.430116,1302.362347
548.201719,4145.153275,7772.162391,-76.609550
548.202039,5107.421000,6809.894666,0.000000
548.202360,3923.091493,7031.956449,-229.828649
548.202680,4219.173869,7105.977043,1838.629195
548.203001,5255.462188,7031.956449,2528.115143
548.203322,6143.709319,7254.018232,0.000000
548.203642,5625.565159,7920.203579,-995.924147
548.203963,5551.544565,9474.636058,-919.314598
548.204283,5477.523971,10214.842000,-842.705048
548.204604,6365.771101,8808.450710,-1072.533697
548.204924,7031.956449,7402.059420,-612.876398
548.205245,7105.977043,6957.935855,-1302.362347
548.205565,4589.276840,5255.462188,-1455.581446
548.205886,5551.544565,5625.565159,0.000000
548.206206,6513.812290,7624.121203,919.314598
548.206527,5329.482782,8882.471304,766.095498
548.206847,4811.338623,8216.285956,-383.047749
548.207168,6365.771101,7550.100608,-536.266849
548.207488,5921.647536,6661.853478,306.438199
548.207809,4145.153275,7105.977043,1532.190996
548.208130,3849.070898,6439.791695,0.000000
548.208450,3849.070898,7031.956449,-1378.971896
548.208771,3775.050304,8216.285956,-1302.362347
548.209091,5699.585753,9992.780217,-536.266849
548.209412,4515.256246,10436.903782,-536.266849
548.209732,3997.112087,9770.718434,-612.876398
548.210053,4367.215058,9474.636058,153.219100
548.210373,3256.906145,7846.182985,-612.876398
548.210694,2368.659014,5921.647536,-842.705048
548.211014,3775.050304,7254.018232,-76.609550
548.211335,2886.803174,8216.285956,-76.609550
548.211655,3923.091493,9400.615463,-229.828649
548.211976,7105.977043,9844.739029,153.219100
548.212297,6513.812290,9548.656652,-536.266849
548.212617,5181.441594,9770.718434,383.047749
548.212938,5403.503377,9992.780217,1149.143247
548.213259,4219.173869,9252.574275,-536.266849
548.213579,3849.070898,7698.141797,-995.924147
548.213900,7179.997637,7624.121203,-459.657299
548.214221,7402.059420,8142.265362,-229.828649
548.214541,4663.297435,8290.306550,0.000000
548.214862,3849.070898,7846.182985,229.828649
548.215183,5033.400406,7476.080014,306.438199
548.215503,5551.544565,7550.100608,306.438199
548.215824,4737.318029,7624.121203,536.266849
548.216145,4219.173869,6957.935855,-536.266849
548.216465,6069.688724,8660.409521,0.000000
548.216786,4737.318029,10066.800811,919.314598
548.217106,3775.050304,9326.594869,-1225.752797
548.217427,6217.729913,8216.285956,-842.705048
548.217748,5181.441594,8216.285956,-459.657299
548.218068,2220.617826,7994.224174,229.828649
548.218389,3182.885551,6365.771101,689.485948
548.218710,4663.297435,6661.853478,0.000000
548.219030,3701.029710,8808.450710,229.828649
548.219351,3256.906145,9400.615463,383.047749
548.219672,3849.070898,8142.265362,-1455.581446
548.219992,5403.503377,7476.080014,-1532.190996
548.220313,6143.709319,7105.977043,842.705048
548.220634,5699.585753,6883.915261,536.266849
548.220954,5625.565159,6661.853478,-1302.362347
548.221275,6291.750507,8142.265362,-1149.143247
548.221596,6143.709319,8512.368333,689.485948
548.221916,6439.791695,8512.368333,153.219100
548.222237,7105.977043,7402.059420,-995.924147
548.222558,5921.647536,7476.080014,-1455.581446
548.222878,6291.750507,8290.306550,-229.828649
548.223199,5625.565159,7254.018232,536.266849
548.223520,5033.400406,6365.771101,-383.047749
548.223840,4145.153275,5403.503377,-1302.362347
548.224161,4811.338623,6957.935855,-1225.752797
548.224482,4441.235652,9030.512492,-612.876398
548.224802,4959.379811,9326.594869,76.609550
548.225123,4959.379811,8882.471304,-689.485948
548.225444,5921.647536,8808.450710,-1302.362347
548.225764,5033.400406,9696.697840,0.000000
548.226085,4145.153275,9622.677246,612.876398
548.226405,2738.761985,9178.553681,0.000000
548.226726,5477.523971,9918.759623,842.705048
548.227047,4885.359217,11325.150913,1838.629195
548.227367,2738.761985,9326.594869,229.828649
548.227688,3108.864956,8142.265362,-766.095498
548.228009,4589.276840,8734.430116,-306.438199
548.228329,1554.432478,7772.162391,229.828649
548.228650,3034.844362,5477.523971,0.000000
548.228971,4737.318029,6217.729913,76.609550
548.229291,3701.029710,8438.347739,-153.219100
548.229612,4219.173869,10807.006753,229.828649
548.229933,5625.565159,10584.944971,-383.047749
548.230253,7031.956449,8882.471304,-2298.286494
548.230574,8216.285956,9622.677246,-842.705048
548.230895,5773.606348,9104.533087,-1225.752797
548.231215,5847.626942,7624.121203,-1685.410096
548.231536,6883.915261,8438.347739,0.000000
548.231857,6809.894666,7994.224174,383.047749
548.232177,5847.626942,7624.121203,-612.876398
548.232498,5625.565159,7105.977043,-919.314598
548.232819,3182.885551,7328.038826,-766.095498
548.233139,3775.050304,6069.688724,766.095498
548.233460,4811.338623,5995.668130,1838.629195
548.233781,4811.338623,7402.059420,459.657299
548.234101,2368.659014,6957.935855,-306.438199
548.234422,3997.112087,8956.491898,229.828649
548.234743,4293.194464,11621.233289,383.047749
548.235063,3849.070898,11251.130318,306.438199
548.235384,4959.379811,8956.491898,306.438199
548.235705,6143.709319,7031.956449,-1532.190996
548.236025,3330.926739,7402.059420,-1225.752797
548.236346,3404.947333,7550.100608,1455.581446
548.236666,4441.235652,6735.874072,306.438199
548.236987,5033.400406,6365.771101,-76.609550
548.237308,4885.359217,7772.162391,-153.219100
548.237628,5995.668130,7994.224174,153.219100
548.237949,4885.359217,6883.915261,-383.047749
548.238270,6217.729913,6661.853478,842.705048
548.238590,5995.668130,7105.977043,995.924147
548.238911,6143.709319,7254.018232,-1072.533697
548.239232,5847.626942,7550.100608,-1149.143247
548.239552,7772.162391,9326.594869,-76.609550
548.239873,7254.018232,9918.759623,76.609550
548.240194,7772.162391,9104.533087,-536.266849
548.240514,5033.400406,8216.285956,-2298.286494
548.240835,5847.626942,7920.203579,-1378.971896
548.241156,3701.029710,7550.100608,1072.533697
548.241476,3108.864956,7031.956449,1072.533697
548.241797,1776.494261,5477.523971,0.000000
548.242118,3701.029710,7105.977043,536.266849
548.242438,4071.132681,9474.636058,612.876398
548.242759,3034.844362,9622.677246,-229.828649
548.243080,1258.350101,7846.182985,-1149.143247
548.243400,4737.318029,8956.491898,0.000000
548.243721,4811.338623,10214.842000,1455.581446
548.244042,3849.070898,10881.027347,919.314598
548.244362,5773.606348,9104.533087,-1072.533697
548.244683,6957.935855,9474.636058,-2298.286494
548.245004,5403.503377,9992.780217,-919.314598
548.245324,4959.379811,9030.512492,536.266849
548.245645,5773.606348,7328.038826,-383.047749
548.245966,7476.080014,8216.285956,-536.266849
548.246286,6143.709319,8512.368333,229.828649
548.246607,4811.338623,6735.874072,76.609550
548.246927,4811.338623,5329.482782,0.000000
548.247248,6587.832884,6143.709319,1915.238745
548.247569,6217.729913,6661.853478,2451.505594
548.247889,7772.162391,6809.894666,536.266849
548.248210,7254.018232,5699.585753,-1915.238745
548.248531,7772.162391,6957.935855,-1915.238745
548.248851,7179.997637,6735.874072,383.047749
548.249172,8734.430116,6365.771101,919.314598
548.249493,10510.924376,6291.750507,-1225.752797
548.249813,9770.718434,6291.750507,-1149.143247
548.250134,8956.491898,6291.750507,-1762.019645
548.250455,7920.203579,5403.503377,-1225.752797
548.250775,8586.388927,4071.132681,-306.438199
548.251096,8882.471304,3849.070898,1072.533697
548.251417,9548.656652,5181.441594,383.047749
548.251737,9178.553681,7105.977043,0.000000
548.252058,6661.853478,6883.915261,-689.485948
548.252379,6883.915261,4367.215058,0.000000
548.252699,8808.450710,3182.885551,919.314598
548.253020,8290.306550,4811.338623,459.657299
548.253341,7772.162391,7254.018232,-612.876398
548.253661,7402.059420,7624.121203,-995.924147
548.253982,7994.224174,7402.059420,-383.047749
548.254303,8512.368333,6513.812290,2451.505594
548.254623,8364.327145,6291.750507,2451.505594
548.254944,8216.285956,5551.544565,-153.219100
548.255265,8364.327145,4811.338623,-1685.410096
548.255585,9696.697840,3627.009116,-459.657299
548.255906,9992.780217,1850.514855,842.705048
548.256226,11843.295072,1480.411884,1149.143247
548.256547,11695.253884,3256.906145,76.609550
548.256868,11177.109724,5403.503377,-383.047749
548.257188,12213.398043,6439.791695,153.219100
548.257509,13175.665768,5033.400406,612.876398
548.257830,12139.377449,2812.782580,-306.438199
548.258150,13471.748144,3404.947333,-1378.971896
548.258471,12583.501014,5477.523971,-2681.334243
548.258792,9474.636058,6291.750507,-3447.429741
548.259112,9918.759623,5699.585753,-2145.067394
548.259433,11177.109724,6365.771101,153.219100
548.259754,9326.594869,7254.018232,1915.238745
548.260074,7031.956449,7772.162391,1915.238745
548.260395,5921.647536,7846.182985,0.000000
548.260716,5847.626942,6069.688724,-689.485948
548.261036,5403.503377,3775.050304,1455.581446
548.261357,6143.709319,3849.070898,1685.410096
548.261678,7328.038826,6809.894666,1915.238745
548.261998,5773.606348,8956.491898,689.485948
548.262319,5107.421000,8364.327145,-842.705048
548.262640,6661.853478,7031.956449,0.000000
548.262960,9326.594869,7105.977043,1685.410096
548.263281,9178.553681,6883.915261,2528.115143
548.263602,8586.388927,5477.523971,766.095498
548.263922,9474.636058,4219.173869,-2221.676944
548.264243,10955.047942,3701.029710,-2068.457845
548.264564,11917.315666,3701.029710,-459.657299
548.264884,13249.686362,4293.194464,0.000000
548.265205,13249.686362,3775.050304,-1302.362347
548.265526,12805.562797,3701.029710,-1225.752797
548.265846,13027.624579,3775.050304,-536.266849
548.266167,12731.542202,4145.153275,-383.047749
548.266487,11917.315666,4219.173869,-766.095498
548.266808,10140.821405,3627.009116,-1915.238745
548.267129,9844.739029,3330.926739,-2145.067394
548.267449,10066.800811,4219.173869,-536.266849
548.267770,8216.285956,5625.565159,-383.047749
548.268091,7328.038826,7031.956449,-383.047749
548.268411,7105.977043,7846.182985,-1072.533697
548.268732,6143.709319,7254.018232,-612.876398
548.269053,5551.544565,6217.729913,306.438199
548.269373,6661.853478,6217.729913,766.095498
548.269694,5773.606348,8216.285956,306.438199
548.270015,4811.338623,9178.553681,919.314598
548.270335,5403.503377,8068.244768,1302.362347
548.270656,7031.956449,5699.585753,995.924147
548.270977,8216.285956,6143.709319,2068.457845
548.271297,7328.038826,7550.100608,1991.848295
548.271618,7179.997637,7105.977043,536.266849
548.271939,9400.615463,4071.132681,612.876398
548.272259,11843.295072,1258.350101,1685.410096
548.272580,12509.480420,814.226536,1915.238745
548.272901,12879.583391,2368.659014,-383.047749
548.273221,12435.459826,5551.544565,-2757.943793
548.273542,13027.624579,6735.874072,-2987.772442
548.273863,15618.345376,5033.400406,-2145.067394
548.274183,16580.613101,3627.009116,-1378.971896
548.274504,14730.098246,4071.132681,-1685.410096
548.274825,11991.336260,5181.441594,-1762.019645
548.275145,9918.759623,4885.359217,-2911.162892
548.275466,10436.903782,3849.070898,-1991.848295
548.275787,10510.924376,3923.091493,306.438199
548.276107,9178.553681,4515.256246,919.314598
548.276428,6587.832884,5033.400406,0.000000
548.276748,5551.544565,6217.729913,-1225.752797
548.277069,5477.523971,6957.935855,-842.705048
548.277390,5847.626942,6439.791695,766.095498
548.277710,5551.544565,7105.977043,2221.676944
548.278031,5255.462188,9104.533087,2911.162892
548.278352,3997.112087,10288.862594,2221.676944
548.278672,3627.009116,9252.574275,766.095498
548.278993,4663.297435,6957.935855,0.000000
548.279314,6513.812290,5181.441594,995.924147
548.279634,7402.059420,5625.565159,2068.457845
548.279955,7994.224174,6735.874072,1072.533697
548.280276,8882.471304,6217.729913,306.438199
548.280596,10362.883188,3923.091493,229.828649
548.280917,11621.233289,2220.617826,383.047749
548.281238,12213.398043,1258.350101,459.657299
548.281558,13841.851115,2072.576638,-459.657299
548.281879,15396.283594,3627.009116,-2068.457845
548.282200,16136.489536,5033.400406,-2528.115143
548.282520,15396.283594,5329.482782,-3064.381992
548.282841,15470.304188,5181.441594,-2681.334243
548.283162,14137.933492,4441.235652,-1838.629195
548.283482,11917.315666,4293.194464,-1072.533697
548.283803,10658.965565,3478.967927,-1302.362347
548.284124,9252.574275,3108.864956,-1685.410096
548.284444,8734.430116,3552.988522,-1072.533697
548.284765,8364.327145,5625.565159,612.876398
548.285086,7624.121203,7624.121203,612.876398
548.285406,6439.791695,8586.388927,153.219100
548.285727,5921.647536,8438.347739,306.438199
548.286048,5181.441594,6957.935855,2068.457845
548.286368,4515.256246,5995.668130,2834.553343
548.286689,3330.926739,5773.606348,3140.991542
548.287009,4663.297435,5625.565159,1685.410096
548.287330,6365.771101,6513.812290,689.485948
548.287651,7698.141797,7179.997637,383.047749
548.287971,8438.347739,7105.977043,0.000000
548.288292,10362.883188,6661.853478,766.095498
548.288613,10732.986159,5181.441594,1378.971896
548.288933,11251.130318,3775.050304,459.657299
548.289254,12139.377449,2368.659014,-459.657299
548.289575,12287.418637,2738.761985,-1149.143247
548.289895,12509.480420,3182.885551,-1455.581446
548.290216,13101.645173,4071.132681,-1915.238745
548.290537,13619.789333,5921.647536,-2604.724693
548.290857,13249.686362,7254.018232,-3217.601092
548.291178,12065.356855,6661.853478,-2374.896044
548.291499,11473.192101,5551.544565,-919.314598
548.291819,9770.718434,4441.235652,1072.533697
548.292140,8068.244768,4219.173869,1378.971896
548.292461,7254.018232,5181.441594,0.000000
548.292781,7254.018232,6365.771101,-1072.533697
548.293102,6957.935855,6513.812290,-459.657299
548.293423,7105.977043,5921.647536,306.438199
548.293743,7105.977043,4959.379811,995.924147
548.294064,6143.709319,5181.441594,1532.190996
548.294385,5477.523971,5625.565159,2068.457845
548.294705,5921.647536,6513.812290,1838.629195
548.295026,7105.977043,6143.709319,1072.533697
548.295347,7698.141797,6365.771101,842.705048
548.295667,8364.327145,6957.935855,459.657299
548.295988,8586.388927,7846.182985,0.000000
548.296308,9474.636058,7920.203579,-459.657299
548.296629,9844.739029,7402.059420,-995.924147
548.296950,10140.821405,5847.626942,-536.266849
548.297270,10288.862594,4219.173869,766.095498
548.297591,9622.677246,3478.967927,1378.971896
548.297912,9622.677246,1924.535449,919.314598
548.298232,11029.068536,1480.411884,0.000000
548.298553,11399.171507,1776.494261,-766.095498
548.298874,11473.192101,2516.700203,-1532.190996
548.299194,11843.295072,3997.112087,-1991.848295
548.299515,12435.459826,5477.523971,-2911.162892
548.299836,12657.521608,6883.915261,-2911.162892
548.300156,12953.603985,7994.224174,-2451.505594
548.300477,12139.377449,7772.162391,-2298.286494
548.300798,10881.027347,7105.977043,-1762.019645
548.301118,9178.553681,6069.688724,-536.266849
548.301439,8290.306550,5255.462188,1225.752797
548.301760,7550.100608,5033.400406,1915.238745
548.302080,6587.832884,5255.462188,1915.238745
548.302401,5921.647536,5625.565159,1915.238745
548.302722,6069.688724,5255.462188,2145.067394
548.303042,6365.771101,4663.297435,1838.629195
548.303363,6809.894666,4737.318029,1532.190996
548.303684,7402.059420,5625.565159,383.047749
548.304004,8438.347739,7179.997637,153.219100
548.304325,9326.594869,7550.100608,0.000000
548.304646,10732.986159,7698.141797,153.219100
548.304966,11103.089130,7846.182985,0.000000
548.305287,10807.006753,7328.038826,153.219100
548.305608,10140.821405,6217.729913,-842.705048
548.305928,10362.883188,4293.194464,-536.266849
548.306249,10658.965565,2812.782580,0.000000
548.306569,11029.068536,1850.514855,0.000000
548.306890,10732.986159,2220.617826,-766.095498
548.307211,10362.883188,3849.070898,-1455.581446
548.307531,10214.842000,5995.668130,-995.924147
548.307852,10732.986159,7105.977043,-306.438199
548.308173,10066.800811,7550.100608,995.924147
548.308493,8438.347739,7920.203579,1072.533697
548.308814,6513.812290,7920.203579,536.266849
548.309135,4737.318029,7772.162391,229.828649
548.309455,4219.173869,7105.977043,0.000000
548.309776,4441.235652,6513.812290,-306.438199
548.310097,4737.318029,7328.038826,-306.438199
548.310417,3627.009116,8216.285956,229.828649
548.310738,3256.906145,9696.697840,1915.238745
548.311059,3701.029710,10658.965565,3064.381992
548.311379,4663.297435,10658.965565,3907.087040
548.311700,5403.503377,9696.697840,5132.839837
548.312021,5181.441594,8808.450710,4903.011187
548.312341,4959.379811,7846.182985,4596.572988
548.312662,4663.297435,7476.080014,4290.134789
548.312983,5329.482782,7772.162391,4290.134789
548.313303,6809.894666,8660.409521,3524.039291
548.313624,7105.977043,9400.615463,3600.648841
548.313945,7179.997637,9104.533087,4213.525239
548.314265,7105.977043,8216.285956,4443.353888
548.314586,7550.100608,7105.977043,4903.011187
548.314906,7624.121203,7179.997637,4979.620737
548.315227,8068.244768,7920.203579,4366.744339
548.315548,7846.182985,8068.244768,3830.477490
548.315868,7624.121203,8734.430116,4290.134789
548.316189,7994.224174,8956.491898,5592.497135
548.316509,7624.121203,9770.718434,6741.640382
548.316830,7031.956449,8660.409521,7507.735880
548.317150,6291.750507,7846.182985,7431.126331
548.317471,5551.544565,6809.894666,7124.688131
548.317791,4737.318029,5921.647536,7431.126331
548.318112,4441.235652,5255.462188,8120.612279
548.318432,4589.276840,5773.606348,7737.564530
548.318753,4441.235652,7476.080014,7048.078582
548.319073,4367.215058,8142.265362,6588.421283
548.319394,3701.029710,8290.306550,6741.640382
548.319715,3775.050304,7698.141797,7354.516781
548.320035,3330.926739,6957.935855,7814.174080
548.320356,2886.803174,7031.956449,7277.907231
548.320676,2664.741391,6513.812290,7277.907231
548.320997,2516.700203,6439.791695,6665.030833
548.321317,2442.679609,6291.750507,6435.202183
548.321638,2294.638420,5699.585753,5898.935335
548.321958,2294.638420,5181.441594,4903.011187
548.322279,3034.844362,5551.544565,5362.668486
548.322599,3552.988522,6291.750507,5362.668486
548.322920,3627.009116,6735.874072,5362.668486
548.323240,3923.091493,6587.832884,5132.839837
548.323561,4441.235652,7179.997637,4596.572988
548.323882,4589.276840,6809.894666,4136.915689
548.324202,4663.297435,6143.709319,3524.039291
548.324523,4885.359217,5551.544565,2987.772442
548.324843,4663.297435,5255.462188,2987.772442
548.325164,4441.235652,5403.503377,2987.772442
548.325484,4589.276840,5847.626942,2451.505594
548.325805,5181.441594,6883.915261,1608.800546
548.326125,6143.709319,8438.347739,2374.896044
548.326446,6069.688724,9474.636058,2528.115143
548.326766,6365.771101,10732.986159,3447.429741
548.327087,6661.853478,11029.068536,4136.915689
548.327407,6661.853478,10436.903782,5286.058936
548.327728,6735.874072,10288.862594,5898.935335
548.328049,5255.462188,10362.883188,6205.373534
548.328369,4367.215058,10066.800811,5975.544884
548.328690,4071.132681,9400.615463,6281.983084
548.329010,3552.988522,8068.244768,5515.887586
548.329331,2812.782580,5847.626942,4060.306139
548.329651,3182.885551,4145.153275,2145.067394
548.329972,3552.988522,4589.276840,919.314598
548.330292,4589.276840,7105.977043,766.095498
548.330613,7402.059420,11473.192101,0.000000
548.330933,9548.656652,15396.283594,-1455.581446
548.331254,10436.903782,17987.004391,-1608.800546
548.331574,10807.006753,18949.272115,842.705048
548.331895,10362.883188,17172.777854,3524.039291
548.332216,8808.450710,13101.645173,5898.935335
548.332536,6365.771101,8734.430116,8197.221829
548.332857,5847.626942,6957.935855,8120.612279
548.333177,2368.659014,5921.647536,7660.954980
548.333498,74.020594,4959.379811,6741.640382
548.333818,1258.350101,4145.153275,5975.544884
548.334139,3775.050304,4145.153275,4826.401637
548.334459,3256.906145,3997.112087,4826.401637
548.334780,5181.441594,6587.832884,4136.915689
548.335100,6661.853478,10436.903782,2987.772442
548.335421,5995.668130,13693.809927,3140.991542
548.335741,6365.771101,14582.057057,2145.067394
548.336062,9696.697840,15322.262999,2068.457845
548.336383,9104.533087,14063.912898,3524.039291
548.336703,5921.647536,9474.636058,5439.278036
548.337024,5329.482782,5329.482782,6741.640382
548.337344,3923.091493,2886.803174,8044.002729
548.337665,370.102971,2368.659014,7431.126331
548.337985,1776.494261,3182.885551,5745.716235
548.338306,4441.235652,5255.462188,5056.230287
548.338626,4145.153275,5847.626942,6205.373534
548.338947,3552.988522,3849.070898,7354.516781
548.339267,5551.544565,4959.379811,9116.536426
548.339588,5403.503377,9104.533087,9116.536426
548.339908,2368.659014,11621.233289,7201.297681
548.340229,2590.720797,11029.068536,3830.477490
548.340550,4811.338623,8808.450710,2451.505594
548.340870,4071.132681,6439.791695,4749.792088
548.341191,4737.318029,6439.791695,8197.221829
548.341511,4737.318029,8586.388927,9269.755526
548.341832,148.041188,8882.471304,5286.058936
548.342152,370.102971,7105.977043,4060.306139
548.342473,2738.761985,3849.070898,5745.716235
548.342793,3034.844362,2368.659014,8120.612279
548.343114,4219.173869,3775.050304,8656.879127
548.343434,6439.791695,7179.997637,7354.516781
548.343755,4885.359217,10584.944971,5056.230287
548.344075,3256.906145,10066.800811,4673.182538
548.344396,4959.379811,7698.141797,5286.058936
548.344717,5625.565159,6365.771101,6052.154434
548.345037,2886.803174,5255.462188,6971.469032
548.345358,4441.235652,7105.977043,7507.735880
548.345678,7254.018232,9622.677246,7507.735880
548.345999,5033.400406,12287.418637,5898.935335
548.346319,4737.318029,12879.583391,3140.991542
548.346640,5625.565159,11103.089130,1455.581446
548.346960,3997.112087,8216.285956,2757.943793
548.347281,3775.050304,3997.112087,5822.325785
548.347601,7105.977043,2590.720797,7507.735880
548.347922,6735.874072,5477.523971,6665.030833
548.348242,3404.947333,8512.368333,4290.134789
548.348563,3256.906145,9918.759623,2451.505594
548.348884,6143.709319,10436.903782,3524.039291
548.349204,5921.647536,10288.862594,6588.421283
548.349525,5625.565159,9696.697840,7507.735880
548.349845,7105.977043,10584.944971,5362.668486
548.350166,6291.750507,11473.192101,2451.505594
548.350486,3627.009116,9548.656652,536.266849
548.350807,4219.173869,6735.874072,229.828649
548.351127,6365.771101,6365.771101,2987.772442
548.351448,4367.215058,7994.224174,5975.544884
548.351768,3849.070898,9844.739029,6435.202183
548.352089,5995.668130,11843.295072,4519.963438
548.352410,6069.688724,11621.233289,1838.629195
548.352730,4737.318029,10362.883188,2528.115143
548.353051,5329.482782,9326.594869,5362.668486
548.353371,5773.606348,8364.327145,7277.907231
548.353692,5477.523971,8290.306550,7124.688131
548.354012,4959.379811,8660.409521,4826.401637
548.354333,5255.462188,9030.512492,2374.896044
548.354653,5551.544565,9474.636058,2834.553343
548.354974,5477.523971,9104.533087,5132.839837
548.355294,7031.956449,8290.306550,5975.544884
548.355615,7105.977043,8142.265362,5745.716235
548.355935,4959.379811,8808.450710,4213.525239
548.356256,3108.864956,7920.203579,3830.477490
548.356577,4959.379811,7105.977043,4596.572988
548.356897,6735.874072,6957.935855,5362.668486
548.357218,5551.544565,6069.688724,4903.011187
548.357538,5477.523971,6291.750507,3217.601092
548.357859,5255.462188,8142.265362,2757.943793
548.358179,3701.029710,9178.553681,4826.401637
548.358500,4293.194464,7920.203579,5515.887586
548.358820,6291.750507,6957.935855,4366.744339
548.359141,4663.297435,6809.894666,5056.230287
548.359461,3108.864956,7772.162391,6741.640382
548.359782,2960.823768,7476.080014,6665.030833
548.360102,2664.741391,7476.080014,5439.278036
548.360423,2442.679609,7105.977043,4366.744339
548.360744,3775.050304,7402.059420,4136.915689
548.361064,4811.338623,8734.430116,4519.963438
548.361385,4737.318029,10436.903782,5822.325785
548.361705,2590.720797,10214.842000,6665.030833
548.362026,2590.720797,7698.141797,5515.887586
548.362346,3849.070898,5847.626942,5439.278036
548.362667,4071.132681,6735.874072,6205.373534
548.362987,5551.544565,9252.574275,5745.716235
548.363308,6291.750507,10658.965565,5515.887586
548.363628,4515.256246,9548.656652,5592.497135
548.363949,4959.379811,6587.832884,6894.859482
548.364269,6365.771101,5551.544565,7354.516781
548.364590,6809.894666,6513.812290,7354.516781
548.364911,4515.256246,6513.812290,6511.811733
548.365231,5403.503377,6439.791695,4366.744339
548.365552,7254.018232,5255.462188,4443.353888
548.365872,6957.935855,5403.503377,5132.839837
548.366193,6957.935855,7031.956449,5286.058936
548.366513,6735.874072,8808.450710,2987.772442
548.366834,4737.318029,8512.368333,306.438199
548.367154,4589.276840,7328.038826,612.876398
548.367475,7402.059420,7254.018232,3064.381992
548.367795,6587.832884,7698.141797,3830.477490
548.368116,3552.988522,10288.862594,2987.772442
548.368436,2960.823768,11029.068536,1378.971896
548.368757,3034.844362,9326.594869,1072.533697
548.369078,4515.256246,8142.265362,3753.867940
548.369398,4441.235652,7031.956449,5592.497135
548.369719,1998.556043,6291.750507,4903.011187
548.370039,1702.473667,6439.791695,3600.648841
548.370360,2146.597232,7254.018232,3294.210641
548.370680,2146.597232,7254.018232,2757.943793
548.371001,4441.235652,9030.512492,2298.286494
548.371321,5625.565159,12139.377449,1762.019645
548.371642,3775.050304,12361.439231,1149.143247
548.371962,4737.318029,10584.944971,2987.772442
548.372283,7031.956449,10732.986159,3447.429741
548.372603,5625.565159,9992.780217,3294.210641
548.372924,3404.947333,7476.080014,2987.772442
548.373245,4071.132681,5995.668130,1149.143247
548.373565,4737.318029,4737.318029,-153.219100
548.373886,5033.400406,4219.173869,1072.533697
548.374206,8290.306550,3997.112087,995.924147
548.374527,9326.594869,6513.812290,-383.047749
548.374847,8660.409521,8956.491898,76.609550
548.375168,7698.141797,9178.553681,-919.314598
548.375488,9400.615463,8660.409521,-2068.457845
548.375809,8956.491898,8956.491898,383.047749
548.376129,8882.471304,9844.739029,1455.581446
548.376450,8586.388927,8142.265362,-919.314598
548.376770,6069.688724,6217.729913,-3370.820191
548.377091,4811.338623,6957.935855,-1838.629195
548.377412,4811.338623,8882.471304,459.657299
548.377732,3404.947333,10362.883188,0.000000
548.378053,666.185348,8882.471304,-1608.800546
548.378373,2516.700203,8068.244768,0.000000
548.378694,4959.379811,8438.347739,2451.505594
548.379014,1702.473667,7994.224174,3370.820191
548.379335,296.082377,7031.956449,1302.362347
548.379655,1998.556043,8068.244768,-1225.752797
548.379976,2738.761985,10510.924376,-1915.238745
548.380296,2960.823768,10066.800811,0.000000
548.380617,5107.421000,10362.883188,306.438199
548.380937,5921.647536,9770.718434,-1608.800546
548.381258,4071.132681,9918.759623,-1685.410096
548.381579,4071.132681,7772.162391,0.000000
548.381899,5773.606348,6143.709319,-995.924147
548.382220,8068.244768,7105.977043,-383.047749
548.382540,5921.647536,7772.162391,-919.314598
548.382861,7476.080014,7105.977043,-1991.848295
548.383181,9252.574275,6587.832884,-1915.238745
548.383502,8512.368333,6513.812290,153.219100
548.383822,7994.224174,7179.997637,229.828649
548.384143,8438.347739,6513.812290,-995.924147
548.384463,4885.359217,6439.791695,-3524.039291
548.384784,5847.626942,7476.080014,-2604.724693
548.385104,8956.491898,10436.903782,-536.266849
548.385425,9104.533087,12879.583391,-306.438199
548.385746,4811.338623,11251.130318,0.000000
548.386066,4145.153275,10066.800811,76.609550
548.386387,3552.988522,9622.677246,766.095498
548.386707,592.164754,7920.203579,2374.896044
548.387028,0.000000,5625.565159,2221.676944
548.387348,5107.421000,7624.121203,1225.752797
548.387669,3552.988522,11177.109724,1378.971896
548.387989,1258.350101,9992.780217,1991.848295
548.388310,3256.906145,8734.430116,2221.676944
548.388630,5477.523971,9696.697840,2911.162892
548.388951,1998.556043,9622.677246,4443.353888
548.389272,2812.782580,7254.018232,1991.848295
548.389592,4885.359217,5773.606348,-1149.143247
548.389913,5847.626942,6735.874072,383.047749
548.390233,4293.194464,7105.977043,1608.800546
548.390554,5921.647536,7772.162391,-2068.457845
548.390874,4811.338623,7698.141797,-4903.011187
548.391195,5477.523971,7105.977043,-2528.115143
548.391515,7105.977043,5699.585753,-612.876398
548.391836,8142.265362,4959.379811,-306.438199
548.392156,5329.482782,5477.523971,-459.657299
548.392477,6069.688724,7476.080014,-995.924147
548.392797,6587.832884,8216.285956,-2451.505594
548.393118,7031.956449,7624.121203,-1838.629195
548.393439,5699.585753,5773.606348,-536.266849
548.393759,7254.018232,5551.544565,-995.924147
548.394080,4737.318029,6365.771101,-1302.362347
548.394400,2590.720797,6069.688724,-919.314598
548.394721,2812.782580,5477.523971,-1685.410096
548.395041,5847.626942,5773.606348,-612.876398
548.395362,2516.700203,5921.647536,-229.828649
548.395682,2886.803174,7772.162391,-1762.019645
548.396003,4589.276840,10288.862594,-3217.601092
548.396323,5107.421000,9918.759623,-2145.067394
548.396644,5033.400406,7550.100608,-536.266849
548.396964,7031.956449,7031.956449,0.000000
548.397285,3552.988522,6957.935855,-1072.533697
548.397606,3034.844362,8290.306550,-1685.410096
548.397926,5847.626942,10732.986159,-2528.115143
548.398247,7402.059420,12065.356855,-3524.039291
548.398567,6069.688724,10658.965565,-2451.505594
548.398888,7031.956449,9474.636058,-1762.019645
548.399208,5403.503377,8290.306550,-1072.533697
548.399529,2812.782580,7920.203579,-459.657299
548.399849,3627.009116,7179.997637,-1685.410096
548.400170,4885.359217,6587.832884,-4366.744339
548.400490,5625.565159,8364.327145,-3217.601092
548.400811,7994.224174,11769.274478,-1532.190996
548.401131,7328.038826,12509.480420,-1991.848295
548.401452,7550.100608,12139.377449,-2451.505594
548.401773,7105.977043,12139.377449,-1685.410096
548.402093,6587.832884,12213.398043,-229.828649
548.402414,5699.585753,10362.883188,1225.752797
548.402734,5773.606348,8808.450710,1685.410096
548.403055,5847.626942,8586.388927,306.438199
548.403375,4811.338623,8586.388927,0.000000
548.403696,2886.803174,6661.853478,-842.705048
548.404016,4737.318029,6143.709319,-689.485948
548.404337,4811.338623,6883.915261,1685.410096
548.404657,4663.297435,7698.141797,1685.410096
548.404978,4737.318029,7105.977043,-229.828649
548.405298,5625.565159,7328.038826,-1149.143247
548.405619,5255.462188,7772.162391,459.657299
548.405940,6439.791695,9030.512492,383.047749
548.406260,5477.523971,8956.491898,-2068.457845
548.406581,4589.276840,9104.533087,-4060.306139
548.406901,5107.421000,10066.800811,-2757.943793
548.407222,5699.585753,9252.574275,-1225.752797
548.407542,2886.803174,5181.441594,-383.047749
548.407863,3552.988522,4737.318029,306.438199
548.408183,2516.700203,5625.565159,229.828649
548.408504,1850.514855,6735.874072,383.047749
548.408824,1702.473667,6217.729913,0.000000
548.409145,4737.318029,7179.997637,-383.047749
548.409465,4959.379811,6883.915261,766.095498
548.409786,4737.318029,7031.956449,1455.581446
548.410107,3923.091493,6291.750507,612.876398
548.410427,5329.482782,7772.162391,0.000000
548.410748,4219.173869,7772.162391,-153.219100
548.411068,4293.194464,7550.100608,-1378.971896
548.411389,5403.503377,8142.265362,-1302.362347
548.411709,7772.162391,10288.862594,459.657299
548.412030,5847.626942,9030.512492,1455.581446
548.412350,3627.009116,6291.750507,76.609550
548.412671,3330.926739,5255.462188,0.000000
548.412991,3552.988522,5403.503377,1608.800546
548.413312,1998.556043,4959.379811,995.924147
548.413632,5033.400406,6513.812290,-689.485948
548.413953,6143.709319,9400.615463,-1608.800546
548.414274,5329.482782,9918.759623,-536.266849
548.414594,5329.482782,8364.327145,0.000000
548.414915,6513.812290,7994.224174,-536.266849
548.415235,5255.462188,8142.265362,-919.314598
548.415556,5329.482782,9178.553681,-612.876398
548.415876,6439.791695,9992.780217,-1302.362347
548.416197,7328.038826,11621.233289,-919.314598
548.416518,6217.729913,11621.233289,0.000000
548.416838,6365.771101,10362.883188,-1608.800546
548.417159,3627.009116,7698.141797,-1838.629195
548.417479,3404.947333,6809.894666,383.047749
548.417800,4145.153275,6291.750507,1149.143247
548.418120,3552.988522,5847.626942,-612.876398
548.418441,3552.988522,7772.162391,0.000000
548.418762,5181.441594,10807.006753,1608.800546
548.419082,5921.647536,11325.150913,459.657299
548.419403,5847.626942,10288.862594,-306.438199
548.419723,4515.256246,7550.100608,-2145.067394
548.420044,5329.482782,6291.750507,-1915.238745
548.420364,5477.523971,6217.729913,-153.219100
548.420685,5773.606348,7105.977043,-612.876398
548.421005,5773.606348,7772.162391,-3907.087040
548.421326,6439.791695,10881.027347,-5056.230287
548.421647,6365.771101,12139.377449,-2374.896044
548.421967,6069.688724,11473.192101,612.876398
548.422288,8438.347739,9770.718434,766.095498
548.422608,5773.606348,8290.306550,-306.438199
548.422929,2812.782580,5477.523971,-76.609550
548.423249,3997.112087,4367.215058,1838.629195
548.423570,5403.503377,5699.585753,1608.800546
548.423891,3256.906145,6957.935855,-383.047749
548.424211,3330.926739,7179.997637,-2987.772442
548.424532,5329.482782,7772.162391,-2757.943793
548.424852,6587.832884,8142.265362,612.876398
548.425173,5847.626942,9104.533087,2145.067394
548.425493,4959.379811,9696.697840,-1225.752797
548.425814,3404.947333,9178.553681,-3447.429741
548.426135,3701.029710,8660.409521,-76.609550
548.426455,6661.853478,9474.636058,2451.505594
548.426776,5625.565159,9918.759623,1378.971896
548.427096,3256.906145,9770.718434,-1762.019645
548.427417,3552.988522,8882.471304,-1378.971896
548.427737,2664.741391,6809.894666,1378.971896
548.428058,2368.659014,4589.276840,3677.258390
548.428379,4441.235652,4145.153275,2757.943793
548.428699,4071.132681,5403.503377,229.828649
548.429020,2072.576638,7328.038826,-766.095498
548.429340,5181.441594,9474.636058,0.000000
548.429661,8068.244768,10362.883188,-1455.581446
548.429981,6735.874072,8660.409521,-2374.896044
548.430302,7105.977043,8956.491898,-842.705048
548.430622,7402.059420,9622.677246,153.219100
548.430943,5329.482782,9252.574275,919.314598
548.431264,5773.606348,8734.430116,689.485948
548.431584,6365.771101,8882.471304,-76.609550
548.431905,4219.173869,7328.038826,689.485948
548.432225,3627.009116,5773.606348,1838.629195
548.432546,3997.112087,3627.009116,0.000000
548.432866,3034.844362,3182.885551,-1072.533697
548.433187,4219.173869,5625.565159,1302.362347
548.433508,3701.029710,7624.121203,1378.971896
548.433828,4145.153275,6809.894666,0.000000
548.434149,5255.462188,8808.450710,-1378.971896
548.434469,6809.894666,9992.780217,-1302.362347
548.434790,5255.462188,10584.944971,0.000000
548.435110,6587.832884,11325.150913,383.047749
548.435431,6439.791695,12805.562797,-1149.143247
548.435752,4441.235652,11251.130318,-1072.533697
548.436072,4219.173869,7476.080014,1149.143247
548.436393,5107.421000,6661.853478,2374.896044
548.436713,2368.659014,7328.038826,1991.848295
548.437034,1776.494261,5625.565159,612.876398
548.437354,3034.844362,4589.276840,-1455.581446
548.437675,5033.400406,5181.441594,689.485948
548.437996,5551.544565,7624.121203,3830.477490
548.438316,6365.771101,9326.594869,842.705048
548.438637,4145.153275,8808.450710,-4213.525239
548.438957,4293.194464,8438.347739,-2757.943793
548.439278,7328.038826,9844.739029,1302.362347
548.439598,9696.697840,11769.274478,2068.457845
548.439919,6291.750507,11769.274478,-459.657299
548.440239,4737.318029,11251.130318,-2834.553343
548.440560,4737.318029,8808.450710,-1532.190996
548.440881,4145.153275,7105.977043,2528.115143
548.441201,4071.132681,5477.523971,4060.306139
548.441522,4959.379811,4811.338623,536.266849
548.441842,2516.700203,6143.709319,-1915.238745
548.442163,2960.823768,7402.059420,0.000000
548.442483,3997.112087,7179.997637,1838.629195
548.442804,6661.853478,7476.080014,1378.971896
548.443125,5625.565159,9770.718434,766.095498
548.443445,4663.297435,11103.089130,-766.095498
548.443766,4737.318029,10584.944971,-459.657299
548.444086,7550.100608,10140.821405,1455.581446
548.444407,6291.750507,8882.471304,2068.457845
548.444727,4959.379811,8512.368333,153.219100
548.445048,4071.132681,8216.285956,229.828649
548.445369,3849.070898,8216.285956,0.000000
548.445689,2368.659014,5255.462188,229.828649
548.446010,4663.297435,3256.906145,842.705048
548.446330,4367.215058,3627.009116,0.000000
548.446651,3627.009116,6069.688724,842.705048
548.446971,4293.194464,7402.059420,306.438199
548.447292,5477.523971,8068.244768,-1225.752797
548.447613,5921.647536,7624.121203,-995.924147
548.447933,7105.977043,11029.068536,536.266849
548.448254,7254.018232,10955.047942,842.705048
548.448574,5329.482782,9918.759623,-1302.362347
548.448895,5181.441594,8216.285956,-1838.629195
548.449215,5329.482782,6957.935855,-229.828649
548.449536,4663.297435,6365.771101,1378.971896
548.449856,4145.153275,7031.956449,1378.971896
548.450177,3775.050304,8142.265362,-766.095498
548.450498,3997.112087,6809.894666,-919.314598
548.450818,4811.338623,6069.688724,995.924147
548.451139,5403.503377,5181.441594,2298.286494
548.451459,3182.885551,4737.318029,919.314598
548.451780,5033.400406,6957.935855,-1225.752797
548.452100,5033.400406,9844.739029,-2834.553343
548.452421,5847.626942,11103.089130,-1378.971896
548.452742,7772.162391,11769.274478,383.047749
548.453062,9326.594869,11695.253884,995.924147
548.453383,5255.462188,11325.150913,842.705048
548.453703,5181.441594,9992.780217,766.095498
548.454024,3923.091493,7254.018232,-383.047749
548.454344,3034.844362,5329.482782,0.000000
548.454665,4071.132681,4811.338623,2451.505594
548.454986,6217.729913,6069.688724,1762.019645
548.455306,4145.153275,6365.771101,229.828649
548.455627,3701.029710,7550.100608,-919.314598
548.455947,5255.462188,8364.327145,-1532.190996
548.456268,5329.482782,7994.224174,-1225.752797
548.456588,5551.544565,8290.306550,1072.533697
548.456909,9548.656652,11695.253884,2145.067394
548.457230,6069.688724,11991.336260,-612.876398
548.457550,3404.947333,9844.739029,-1532.190996
548.457871,6291.750507,9548.656652,-1225.752797
548.458191,7031.956449,9622.677246,229.828649
548.458512,3108.864956,7328.038826,766.095498
548.458832,3182.885551,4441.235652,-1072.533697
548.459153,2664.741391,2590.720797,-2221.676944
548.459473,4441.235652,5107.421000,1608.800546
548.459794,4441.235652,7328.038826,3370.820191
548.460115,4737.318029,7624.121203,-306.438199
548.460435,4737.318029,8216.285956,-2451.505594
548.460756,6291.750507,9622.677246,-995.924147
548.461076,6365.771101,10140.821405,536.266849
548.461397,6883.915261,9770.718434,766.095498
548.461717,6291.750507,8364.327145,-306.438199
548.462038,4515.256246,7402.059420,-1685.410096
548.462359,4885.359217,7994.224174,-689.485948
548.462679,5033.400406,9104.533087,-229.828649
548.463000,4145.153275,9104.533087,-383.047749
548.463320,4737.318029,9178.553681,383.047749
548.463641,3627.009116,7031.956449,0.000000
548.463961,3108.864956,4663.297435,-919.314598
548.464282,4441.235652,5329.482782,1149.143247
548.464603,4959.379811,5995.668130,2221.676944
548.464923,4811.338623,7105.977043,76.609550
548.465244,6069.688724,8808.450710,-536.266849
548.465564,6661.853478,8808.450710,-1072.533697
548.465885,6957.935855,9548.656652,-153.219100
548.466205,7550.100608,10362.883188,919.314598
548.466526,5551.544565,9918.759623,-153.219100
548.466847,5255.462188,8956.491898,-2068.457845
548.467167,5995.668130,9252.574275,-1685.410096
548.467488,4219.173869,7105.977043,536.266849
548.467808,3404.947333,6143.709319,1762.019645
548.468129,4737.318029,8142.265362,1532.190996
548.468449,3404.947333,8660.409521,-766.095498
548.468770,814.226536,6069.688724,-1915.238745
548.469090,4663.297435,6513.812290,-383.047749
548.469411,5107.421000,7254.018232,1149.143247
548.469732,3478.967927,8586.388927,995.924147
548.470052,4441.235652,9400.615463,-1378.971896
548.470373,5107.421000,10881.027347,-3064.381992
548.470693,4737.318029,11917.315666,-1149.143247
548.471014,6809.894666,10658.965565,2374.896044
548.471334,6957.935855,10066.800811,766.095498
548.471655,3627.009116,8438.347739,0.000000
548.471976,2146.597232,6143.709319,536.266849
548.472296,3997.112087,4293.194464,-995.924147
548.472617,5921.647536,4959.379811,-995.924147
548.472937,4811.338623,6513.812290,0.000000
548.473258,5107.421000,7402.059420,-1532.190996
548.473578,5551.544565,7402.059420,-1225.752797
548.473899,6365.771101,7031.956449,995.924147
548.474220,7031.956449,7328.038826,1762.019645
548.474540,8586.388927,8808.450710,0.000000
548.474861,5921.647536,10066.800811,-2221.676944
548.475181,6365.771101,9696.697840,-2757.943793
548.475502,7920.203579,8512.368333,-995.924147
548.475822,7254.018232,7920.203579,0.000000
548.476143,4737.318029,7994.224174,612.876398
548.476464,3552.988522,7328.038826,-689.485948
548.476784,3552.988522,7179.997637,-1685.410096
548.477105,3256.906145,5551.544565,0.000000
548.477425,3330.926739,3997.112087,459.657299
548.477746,3701.029710,4885.359217,-229.828649
548.478066,3923.091493,8438.347739,612.876398
548.478387,4367.215058,10510.924376,1302.362347
548.478708,5773.606348,10140.821405,-995.924147
548.479028,7476.080014,9844.739029,-1762.019645
548.479349,4737.318029,10288.862594,-306.438199
548.479669,4367.215058,9474.636058,842.705048
548.479990,4811.338623,7920.203579,-995.924147
548.480310,5551.544565,8734.430116,-2451.505594
548.480631,3923.091493,9104.533087,-1072.533697
548.480951,6217.729913,9696.697840,306.438199
548.481272,4367.215058,9474.636058,1149.143247
548.481593,3923.091493,9252.574275,1608.800546
548.481913,3701.029710,6735.874072,536.266849
548.482234,4737.318029,4441.235652,-766.095498
548.482554,3701.029710,3849.070898,229.828649
548.482875,4885.359217,6069.688724,1762.019645
548.483195,5625.565159,8586.388927,-995.924147
548.483516,5403.503377,9770.718434,-3140.991542
548.483837,5773.606348,10584.944971,-1685.410096
548.484157,7994.224174,11547.212695,766.095498
548.484478,7920.203579,11103.089130,536.266849
548.484798,4367.215058,7846.182985,-1991.848295
548.485119,4071.132681,6513.812290,-3447.429741
548.485439,6291.750507,7402.059420,-1225.752797
548.485760,4293.194464,8512.368333,306.438199
548.486081,3775.050304,7105.977043,0.000000
548.486401,5329.482782,6957.935855,-1991.848295
548.486722,5107.421000,6291.750507,-1149.143247
548.487042,2886.803174,6587.832884,612.876398
548.487363,4145.153275,6513.812290,76.609550
548.487683,4441.235652,6587.832884,-2145.067394
548.488004,5255.462188,8438.347739,-1302.362347
548.488325,5847.626942,10732.986159,383.047749
548.488645,5921.647536,11917.315666,306.438199
548.488966,4737.318029,11177.109724,-689.485948
548.489286,5181.441594,9474.636058,-229.828649
548.489607,4219.173869,7772.162391,229.828649
548.489927,3404.947333,6217.729913,995.924147
548.490248,3256.906145,5625.565159,612.876398
548.490568,3627.009116,5329.482782,-153.219100
548.490889,4441.235652,7920.203579,-536.266849
548.491210,4663.297435,9178.553681,-383.047749
548.491530,3923.091493,7254.018232,-1149.143247
548.491851,6883.915261,6661.853478,76.609550
548.492171,6809.894666,7624.121203,153.219100
548.492492,4885.359217,6365.771101,-1532.190996
548.492812,4737.318029,6735.874072,-2374.896044
548.493133,7550.100608,9400.615463,-2451.505594
548.493454,6513.812290,11621.233289,-2451.505594
548.493774,7698.141797,11991.336260,-1455.581446
548.494095,6513.812290,11029.068536,-995.924147
548.494415,6365.771101,10066.800811,-153.219100
548.494736,4367.215058,8364.327145,1455.581446
548.495056,3256.906145,5551.544565,842.705048
548.495377,1702.473667,3034.844362,0.000000
548.495698,4663.297435,5699.585753,1991.848295
548.496018,3849.070898,7105.977043,1991.848295
548.496339,3627.009116,7105.977043,-1225.752797
548.496659,4515.256246,7698.141797,-2298.286494
548.496980,5329.482782,9474.636058,-995.924147
548.497300,4737.318029,9696.697840,842.705048
548.497621,7031.956449,9548.656652,76.609550
548.497942,5921.647536,9178.553681,-2451.505594
548.498262,4441.235652,9252.574275,-1378.971896
548.498583,4737.318029,9992.780217,0.000000
548.498903,5551.544565,10732.986159,-383.047749
548.499224,3701.029710,9474.636058,-1302.362347
548.499544,3552.988522,6587.832884,-1608.800546
548.499865,4219.173869,4293.194464,-1455.581446
548.500185,3478.967927,4885.359217,383.047749
548.500506,2072.576638,7031.956449,995.924147
548.500827,3775.050304,7402.059420,-995.924147
548.501147,5181.441594,9030.512492,-2068.457845
548.501468,6439.791695,11029.068536,689.485948
548.501788,5625.565159,10214.842000,1685.410096
548.502109,6957.935855,9548.656652,153.219100
548.502429,5551.544565,9844.739029,-536.266849
548.502750,4885.359217,9548.656652,-612.876398
548.503071,5329.482782,7920.203579,-1532.190996
548.503391,5995.668130,6587.832884,-536.266849
548.503712,5403.503377,7179.997637,1762.019645
548.504032,6809.894666,9030.512492,2298.286494
548.504353,3701.029710,7846.182985,76.609550
548.504673,3923.091493,5625.565159,-612.876398
548.504994,6439.791695,6069.688724,2068.457845
548.505315,7772.162391,6883.915261,3064.381992
548.505635,4737.318029,6661.853478,1149.143247
548.505956,5699.585753,7624.121203,-1455.581446
548.506276,5477.523971,8882.471304,-1991.848295
548.506597,6735.874072,10584.944971,0.000000
548.506917,6883.915261,10140.821405,919.314598
548.507238,5921.647536,8586.388927,-2145.067394
548.507559,4071.132681,7994.224174,-2987.772442
548.507879,5329.482782,9474.636058,0.000000
548.508200,2960.823768,7550.100608,995.924147
548.508520,4515.256246,7550.100608,766.095498
548.508841,4737.318029,8956.491898,1608.800546
548.509161,3182.885551,8956.491898,1455.581446
548.509482,2886.803174,6957.935855,1762.019645
548.509802,4441.235652,4959.379811,2145.067394
548.510123,3404.947333,3404.947333,1455.581446
548.510444,5625.565159,5625.565159,1225.752797
548.510764,4441.235652,7624.121203,-1838.629195
548.511085,2960.823768,7920.203579,-3294.210641
548.511405,5773.606348,8882.471304,-1762.019645
548.511726,9400.615463,11103.089130,306.438199
548.512046,4071.132681,9696.697840,-306.438199
548.512367,4071.132681,9104.533087,-459.657299
548.512688,6587.832884,9844.739029,-1455.581446
548.513008,4441.235652,9696.697840,-1072.533697
548.513329,1702.473667,5625.565159,612.876398
548.513649,4811.338623,5181.441594,-995.924147
548.513970,4737.318029,6439.791695,-153.219100
548.514290,2368.659014,7402.059420,1685.410096
548.514611,3923.091493,6513.812290,-306.438199
548.514932,5329.482782,7105.977043,-1762.019645
548.515252,3923.091493,8512.368333,0.000000
548.515573,5329.482782,9696.697840,0.000000
548.515893,7476.080014,10584.944971,-1991.848295
548.516214,6587.832884,9622.677246,-306.438199
548.516534,6439.791695,8956.491898,1455.581446
548.516855,7698.141797,9548.656652,536.266849
548.517175,3627.009116,8364.327145,-1225.752797
548.517496,2664.741391,8142.265362,-1532.190996
548.517816,5329.482782,7328.038826,-1302.362347
548.518137,5551.544565,6217.729913,-229.828649
548.518458,3404.947333,5255.462188,612.876398
548.518778,4811.338623,5921.647536,-153.219100
548.519099,4663.297435,7920.203579,-1532.190996
548.519419,4515.256246,9844.739029,459.657299
548.519740,5921.647536,9622.677246,-612.876398
548.520060,7179.997637,8734.430116,-2528.115143
548.520381,6513.812290,9178.553681,-1685.410096
548.520701,7105.977043,10955.047942,842.705048
548.521022,6587.832884,10436.903782,459.657299
548.521342,4367.215058,9918.759623,-995.924147
548.521663,5329.482782,9622.677246,-842.705048
548.521983,4515.256246,8956.491898,1532.190996
548.522304,2886.803174,6143.709319,1685.410096
548.522624,4293.194464,6513.812290,1149.143247
548.522945,3627.009116,6439.791695,306.438199
548.523265,4071.132681,7328.038826,766.095498
548.523586,5107.421000,7920.203579,1072.533697
548.523906,4515.256246,7994.224174,306.438199
548.524227,6069.688724,9844.739029,995.924147
548.524547,7698.141797,12509.480420,1532.190996
548.524868,4959.379811,9992.780217,76.609550
548.525189,6439.791695,8142.265362,766.095498
548.525509,8660.409521,9548.656652,1608.800546
548.525830,5329.482782,9548.656652,689.485948
548.526150,2812.782580,6809.894666,1532.190996
548.526471,5847.626942,6217.729913,612.876398
548.526791,4293.194464,5477.523971,536.266849
548.527112,2812.782580,4219.173869,1991.848295
548.527432,4811.338623,3849.070898,1838.629195
548.527753,4959.379811,6365.771101,-229.828649
548.528073,3997.112087,8660.409521,306.438199
548.528394,4811.338623,10362.883188,-919.314598
548.528714,5773.606348,9030.512492,-1991.848295
548.529035,4959.379811,7920.203579,689.485948
548.529355,5329.482782,7994.224174,3753.867940
548.529676,4663.297435,7772.162391,1149.143247
548.529996,2664.741391,8068.244768,-1608.800546
548.530317,3552.988522,9030.512492,-1302.362347
548.530637,5033.400406,8290.306550,76.609550
548.530958,3256.906145,5699.585753,1915.238745
548.531279,2812.782580,3923.091493,2068.457845
548.531599,3552.988522,2886.803174,536.266849
548.531920,3404.947333,3330.926739,76.609550
548.532240,3849.070898,5625.565159,-229.828649
548.532561,4293.194464,6809.894666,-1608.800546
548.532881,5773.606348,7994.224174,-3064.381992
548.533202,8068.244768,10510.924376,-2145.067394
548.533522,5921.647536,11621.233289,-1149.143247
548.533843,7179.997637,11177.109724,0.000000
548.534163,7254.018232,10362.883188,-153.219100
548.534484,5699.585753,7772.162391,-1915.238745
548.534804,4441.235652,7402.059420,-1991.848295
548.535125,5181.441594,7179.997637,-76.609550
548.535445,4589.276840,6661.853478,0.000000
548.535766,5329.482782,6957.935855,76.609550
548.536086,5033.400406,7846.182985,-383.047749
548.536407,3775.050304,6143.709319,-1991.848295
548.536727,3775.050304,5773.606348,-1302.362347
548.537048,5773.606348,7920.203579,-1149.143247
548.537368,5699.585753,11177.109724,-2221.676944
548.537689,6587.832884,12287.418637,-3217.601092
548.538010,8068.244768,13101.645173,-2528.115143
548.538330,8142.265362,13915.871710,229.828649
548.538651,7550.100608,14878.139434,1915.238745
548.538971,5847.626942,13175.665768,766.095498
548.539292,2590.720797,8956.491898,0.000000
548.539612,4219.173869,6809.894666,2221.676944
548.539933,4515.256246,6513.812290,3907.087040
548.540253,2664.741391,5255.462188,842.705048
548.540574,3182.885551,5699.585753,-612.876398
548.540894,5625.565159,8882.471304,-459.657299
548.541215,4293.194464,10881.027347,766.095498
548.541535,4737.318029,9400.615463,153.219100
548.541856,6439.791695,7402.059420,-306.438199
548.542176,7550.100608,8586.388927,1072.533697
548.542497,5995.668130,10436.903782,1762.019645
548.542817,6661.853478,12213.398043,-612.876398
548.543138,6809.894666,11547.212695,-2604.724693
548.543458,6439.791695,9844.739029,-459.657299
548.543779,5477.523971,7994.224174,2451.505594
548.544099,4959.379811,6069.688724,2528.115143
548.544420,1406.391290,2368.659014,1302.362347
548.544741,2442.679609,1554.432478,-612.876398
548.545061,4145.153275,3330.926739,0.000000
548.545382,3923.091493,5921.647536,1685.410096
548.545702,3849.070898,7031.956449,1378.971896
548.546023,5255.462188,6143.709319,-306.438199
548.546343,4367.215058,5995.668130,-2451.505594
548.546664,4737.318029,6291.750507,-842.705048
548.546984,4737.318029,6735.874072,-229.828649
548.547305,6143.709319,7328.038826,-1685.410096
548.547625,5181.441594,9844.739029,-1532.190996
548.547946,5403.503377,11177.109724,-1378.971896
548.548266,3849.070898,9030.512492,-842.705048
548.548587,4071.132681,6883.915261,689.485948
548.548907,2590.720797,4441.235652,1685.410096
548.549228,2146.597232,2516.700203,459.657299
548.549548,888.247130,1036.288319,-995.924147
548.549869,2886.803174,2886.803174,-612.876398
548.550189,3404.947333,6587.832884,536.266849
548.550510,5329.482782,9548.656652,-383.047749
548.550830,5329.482782,10288.862594,-3064.381992
548.551151,7105.977043,11473.192101,-1608.800546
548.551472,7624.121203,11991.336260,842.705048
548.551792,7402.059420,10436.903782,0.000000
548.552113,4811.338623,8512.368333,-2451.505594
548.552433,5921.647536,9622.677246,-2451.505594
548.552754,6587.832884,10214.842000,-842.705048
548.553074,6809.894666,11177.109724,153.219100
548.553395,6069.688724,11399.171507,-995.924147
548.553715,5551.544565,10807.006753,-1149.143247
548.554036,4367.215058,9622.677246,1378.971896
548.554356,5847.626942,8438.347739,4443.353888
548.554677,4737.318029,5995.668130,3294.210641
548.554997,5181.441594,5995.668130,689.485948
548.555318,4663.297435,8142.265362,-536.266849
548.555638,5477.523971,11177.109724,-383.047749
548.555959,6291.750507,12509.480420,229.828649
548.556279,8586.388927,11473.192101,-459.657299
548.556600,5847.626942,8956.491898,-1991.848295
548.556920,6365.771101,8734.430116,-1991.848295
548.557241,3849.070898,7550.100608,-1838.629195
548.557562,3997.112087,8068.244768,-2528.115143
548.557882,6587.832884,9178.553681,-2221.676944
548.558203,8216.285956,12139.377449,-2757.943793
548.558523,5847.626942,11029.068536,-2451.505594
548.558844,4959.379811,8586.388927,-536.266849
548.559164,4219.173869,6513.812290,1685.410096
548.559485,3256.906145,5477.523971,2757.943793
548.559805,1406.391290,3478.967927,1378.971896
548.560126,2960.823768,3552.988522,-2604.724693
548.560446,3108.864956,6291.750507,-2068.457845
548.560767,3627.009116,9178.553681,383.047749
548.561087,3701.029710,8808.450710,-383.047749
548.561408,5033.400406,8512.368333,-1991.848295
548.561728,4071.132681,9548.656652,-1608.800546
548.562049,3478.967927,8438.347739,-919.314598
548.562369,4145.153275,6143.709319,-1302.362347
548.562690,6439.791695,7402.059420,-229.828649
548.563010,5181.441594,8364.327145,76.609550
548.563331,5255.462188,7772.162391,-612.876398
548.563651,6365.771101,7476.080014,-1302.362347
548.563972,6291.750507,7254.018232,689.485948
548.564293,5773.606348,6587.832884,2757.943793
548.564613,7031.956449,6217.729913,1762.019645
548.564934,4737.318029,5033.400406,383.047749
548.565254,4663.297435,4959.379811,1072.533697
548.565575,6661.853478,6809.894666,2068.457845
548.565895,6217.729913,8142.265362,919.314598
548.566216,3997.112087,8142.265362,-1072.533697
548.566536,5995.668130,9104.533087,-2374.896044
548.566857,5995.668130,9918.759623,-2451.505594
548.567177,5551.544565,11473.192101,383.047749
548.567498,5847.626942,10658.965565,2221.676944
548.567818,5625.565159,10955.047942,842.705048
548.568139,1998.556043,10510.924376,0.000000
548.568459,2516.700203,10214.842000,383.047749
548.568780,3182.885551,7254.018232,1762.019645
548.569100,2960.823768,5329.482782,2681.334243
548.569421,2442.679609,5033.400406,2451.505594
548.569741,3849.070898,6735.874072,-459.657299
548.570062,2220.617826,6365.771101,-1685.410096
548.570382,3923.091493,7920.203579,383.047749
