#time,accel_x,accel_y,accel_z
105.582827,4811.338623,7846.182985,0.000000
105.583148,5033.400406,8068.244768,76.609550
105.583469,4885.359217,7920.203579,-153.219100
105.583790,5033.400406,8216.285956,-153.219100
105.584111,5033.400406,8216.285956,-76.609550
105.584431,5033.400406,8142.265362,-306.438199
105.584752,5033.400406,7772.162391,-153.219100
105.585073,5033.400406,8142.265362,-306.438199
105.585394,5107.421000,7994.224174,-229.828649
105.585715,4885.359217,8142.265362,0.000000
105.586036,5107.421000,8068.244768,-612.876398
105.586356,5255.462188,8290.306550,-306.438199
105.586677,5033.400406,7994.224174,0.000000
105.586998,5033.400406,8068.244768,-229.828649
105.587319,4959.379811,8068.244768,-76.609550
105.587640,5255.462188,8142.265362,-153.219100
105.587961,4885.359217,8068.244768,-306.438199
105.588281,5107.421000,7920.203579,0.000000
105.588602,4959.379811,7920.203579,0.000000
105.588923,4885.359217,8438.347739,0.000000
105.589244,4885.359217,7846.182985,0.000000
105.589565,4959.379811,8216.285956,-229.828649
105.589886,4811.338623,7772.162391,0.000000
105.590206,4885.359217,8068.244768,-306.438199
105.590527,5033.400406,7920.203579,-153.219100
105.590848,5255.462188,7698.141797,229.828649
105.591169,4959.379811,7624.121203,-153.219100
105.591490,4589.276840,7550.100608,-383.047749
105.591811,4219.173869,7402.059420,-306.438199
105.592131,4441.235652,8216.285956,0.000000
105.592452,4589.276840,9622.677246,0.000000
105.592773,4663.297435,9918.759623,-1149.143247
105.593094,4663.297435,9474.636058,-842.705048
105.593415,4293.194464,9474.636058,-612.876398
105.593736,3627.009116,8660.409521,229.828649
105.594056,3034.844362,8364.327145,1072.533697
105.594377,2664.741391,8882.471304,1072.533697
105.594698,2442.679609,8734.430116,0.000000
105.595019,2664.741391,8142.265362,-306.438199
105.595340,3256.906145,8290.306550,-306.438199
105.595661,3404.947333,9326.594869,-153.219100
105.595981,2812.782580,9548.656652,459.657299
105.596302,2738.761985,9178.553681,229.828649
105.596623,2590.720797,8660.409521,229.828649
105.596944,2516.700203,9178.553681,0.000000
105.597265,1998.556043,10510.924376,-995.924147
105.597586,1776.494261,11547.212695,-1608.800546
105.597906,1332.370696,11843.295072,-1532.190996
105.598227,1110.308913,11473.192101,-919.314598
105.598548,444.123565,11103.089130,-1302.362347
105.598869,0.000000,11769.274478,-1455.581446
105.599190,-1258.350101,12361.439231,-536.266849
105.599511,-1702.473667,12731.542202,306.438199
105.599831,-1554.432478,12065.356855,919.314598
105.600152,-1258.350101,11843.295072,1378.971896
105.600473,-1628.453072,11695.253884,1838.629195
105.600794,-2368.659014,12139.377449,1149.143247
105.601115,-2886.803174,11473.192101,306.438199
105.601436,-2146.597232,10510.924376,-995.924147
105.601756,-1406.391290,10066.800811,-306.438199
105.602077,-888.247130,10436.903782,919.314598
105.602398,0.000000,11103.089130,919.314598
105.602719,222.061783,11029.068536,229.828649
105.603040,1036.288319,10955.047942,-995.924147
105.603361,2220.617826,10658.965565,-1532.190996
105.603681,2516.700203,10066.800811,-689.485948
105.604002,3182.885551,10436.903782,0.000000
105.604323,3478.967927,9992.780217,-383.047749
105.604644,2664.741391,9104.533087,-1915.238745
105.604965,2738.761985,9326.594869,-2681.334243
105.605286,2664.741391,9252.574275,-1838.629195
105.605606,2664.741391,9548.656652,-612.876398
105.605927,2516.700203,10140.821405,-459.657299
105.606248,1998.556043,10584.944971,-383.047749
105.606569,1406.391290,11177.109724,-76.609550
105.606890,518.144159,10658.965565,153.219100
105.607211,222.061783,10214.842000,536.266849
105.607531,-222.061783,9770.718434,459.657299
105.607852,0.000000,10140.821405,689.485948
105.608173,-222.061783,10510.924376,919.314598
105.608494,-444.123565,10658.965565,1455.581446
105.608815,-148.041188,11177.109724,1762.019645
105.609136,444.123565,11473.192101,1302.362347
105.609456,888.247130,10732.986159,995.924147
105.609777,518.144159,10881.027347,-229.828649
105.610098,666.185348,10362.883188,-612.876398
105.610419,1406.391290,10214.842000,-459.657299
105.610740,1554.432478,9844.739029,0.000000
105.611061,814.226536,9400.615463,-306.438199
105.611381,1628.453072,9548.656652,-383.047749
105.611702,1776.494261,10436.903782,-383.047749
105.612023,1628.453072,11177.109724,-689.485948
105.612344,1554.432478,11399.171507,-383.047749
105.612665,1924.535449,10955.047942,-1532.190996
105.612986,1628.453072,11473.192101,-1378.971896
105.613306,1554.432478,11103.089130,-995.924147
105.613627,962.267725,10807.006753,-1149.143247
105.613948,148.041188,11473.192101,-766.095498
105.614269,0.000000,12065.356855,306.438199
105.614590,-1110.308913,12065.356855,689.485948
105.614911,-888.247130,11991.336260,-689.485948
105.615231,-1110.308913,11399.171507,-1455.581446
105.615552,-1924.535449,10362.883188,0.000000
105.615873,-2072.576638,9030.512492,0.000000
105.616194,-1480.411884,9178.553681,1532.190996
105.616515,-370.102971,10214.842000,2451.505594
105.616836,666.185348,11621.233289,2374.896044
105.617156,1110.308913,12879.583391,995.924147
105.617477,1554.432478,12065.356855,0.000000
105.617798,2590.720797,11029.068536,-383.047749
105.618119,3330.926739,8808.450710,-306.438199
105.618440,3404.947333,7550.100608,-842.705048
105.618761,3997.112087,7550.100608,-1455.581446
105.619081,3701.029710,8512.368333,-2221.676944
105.619402,3034.844362,9178.553681,-2834.553343
105.619723,3404.947333,8586.388927,-2374.896044
105.620044,4959.379811,8438.347739,-383.047749
105.620365,5847.626942,9400.615463,1225.752797
105.620686,5107.421000,9474.636058,1072.533697
105.621006,4219.173869,8734.430116,-766.095498
105.621327,3997.112087,8660.409521,-1608.800546
105.621648,4515.256246,9252.574275,-612.876398
105.621969,4737.318029,8882.471304,689.485948
105.622290,5625.565159,7994.224174,-842.705048
105.622611,5403.503377,8290.306550,-1608.800546
105.622931,4219.173869,8290.306550,-383.047749
105.623252,3404.947333,7105.977043,1455.581446
105.623573,3404.947333,6735.874072,2068.457845
105.623894,3997.112087,7179.997637,919.314598
105.624215,4737.318029,7920.203579,842.705048
105.624536,4589.276840,8586.388927,0.000000
105.624856,4737.318029,9474.636058,-689.485948
105.625177,4737.318029,10584.944971,-766.095498
105.625498,4589.276840,10214.842000,-995.924147
105.625819,4441.235652,9104.533087,-766.095498
105.626140,4367.215058,9400.615463,76.609550
105.626461,4811.338623,9918.759623,0.000000
105.626781,4589.276840,10510.924376,459.657299
105.627102,4219.173869,9178.553681,766.095498
105.627423,3923.091493,7105.977043,1762.019645
105.627744,4145.153275,5255.462188,1685.410096
105.628065,4219.173869,4959.379811,766.095498
105.628386,3923.091493,5995.668130,-536.266849
105.628706,3552.988522,7031.956449,-1302.362347
105.629027,4663.297435,7476.080014,-2145.067394
105.629348,5403.503377,9104.533087,-2221.676944
105.629669,6143.709319,9696.697840,-2298.286494
105.629990,6439.791695,11399.171507,-766.095498
105.630311,5625.565159,12287.418637,-229.828649
105.630631,3849.070898,11695.253884,-1149.143247
105.630952,3627.009116,9178.553681,-1532.190996
105.631273,4293.194464,7772.162391,-459.657299
105.631594,3182.885551,7105.977043,612.876398
105.631915,1998.556043,7031.956449,0.000000
105.632236,1702.473667,6809.894666,-1608.800546
105.632556,1702.473667,7402.059420,-1608.800546
105.632877,2590.720797,8216.285956,689.485948
105.633198,3775.050304,9474.636058,2987.772442
105.633519,4589.276840,10288.862594,2451.505594
105.633840,3701.029710,10066.800811,1302.362347
105.634161,3849.070898,8808.450710,459.657299
105.634481,4145.153275,8882.471304,0.000000
105.634802,4589.276840,8512.368333,229.828649
105.635123,4663.297435,7920.203579,-766.095498
105.635444,4663.297435,7624.121203,-2451.505594
105.635765,5329.482782,7328.038826,-2911.162892
105.636086,6291.750507,7476.080014,-1225.752797
105.636406,7476.080014,7920.203579,306.438199
105.636727,7846.182985,8808.450710,229.828649
105.637048,7476.080014,8216.285956,-383.047749
105.637369,7402.059420,7994.224174,0.000000
105.637690,7031.956449,8142.265362,306.438199
105.638011,6365.771101,7254.018232,689.485948
105.638331,6069.688724,5921.647536,-612.876398
105.638652,5107.421000,5773.606348,-2451.505594
105.638973,4515.256246,6513.812290,-2374.896044
105.639294,5551.544565,7698.141797,-306.438199
105.639615,5699.585753,8216.285956,1149.143247
105.639936,5403.503377,8438.347739,1685.410096
105.640256,5921.647536,8586.388927,2145.067394
105.640577,5847.626942,9252.574275,1302.362347
105.640898,4811.338623,8660.409521,1072.533697
105.641219,4071.132681,7328.038826,229.828649
105.641540,4589.276840,6217.729913,-1225.752797
105.641861,4737.318029,6365.771101,-2221.676944
105.642181,3849.070898,7328.038826,-1762.019645
105.642502,4737.318029,9400.615463,-1378.971896
105.642823,5107.421000,10658.965565,-229.828649
105.643143,4293.194464,10807.006753,995.924147
105.643464,4441.235652,9474.636058,1991.848295
105.643785,5625.565159,7994.224174,2451.505594
105.644105,4885.359217,7254.018232,1838.629195
105.644426,3330.926739,6439.791695,0.000000
105.644746,3330.926739,5107.421000,-1685.410096
105.645067,4737.318029,5995.668130,-1455.581446
105.645388,5921.647536,7550.100608,-612.876398
105.645708,6513.812290,8956.491898,-383.047749
105.646029,6809.894666,9474.636058,-1149.143247
105.646350,5995.668130,9326.594869,-1225.752797
105.646670,6217.729913,8660.409521,229.828649
105.646991,5921.647536,8142.265362,1378.971896
105.647312,5551.544565,7105.977043,536.266849
105.647632,4885.359217,6735.874072,-1072.533697
105.647953,4219.173869,6883.915261,-2068.457845
105.648274,3182.885551,7698.141797,-2987.772442
105.648594,4515.256246,8438.347739,-1991.848295
105.648915,5255.462188,9326.594869,-766.095498
105.649236,4589.276840,9474.636058,76.609550
105.649556,3701.029710,9474.636058,536.266849
105.649877,3775.050304,9918.759623,919.314598
105.650198,2886.803174,10658.965565,1455.581446
105.650518,2072.576638,10658.965565,1302.362347
105.650839,2146.597232,9548.656652,-153.219100
105.651160,1776.494261,9474.636058,-995.924147
105.651480,1036.288319,9992.780217,-995.924147
105.651801,1332.370696,9992.780217,-229.828649
105.652122,1702.473667,8734.430116,383.047749
105.652442,1998.556043,8290.306550,1608.800546
105.652763,3182.885551,8290.306550,1838.629195
105.653083,4663.297435,8808.450710,2528.115143
105.653404,4959.379811,9474.636058,2451.505594
105.653725,4885.359217,8660.409521,842.705048
105.654045,5773.606348,7402.059420,-1455.581446
105.654366,7031.956449,6217.729913,-2834.553343
105.654687,8142.265362,6587.832884,-2451.505594
105.655007,8882.471304,7476.080014,-2145.067394
105.655328,8586.388927,8364.327145,-1685.410096
105.655649,7994.224174,7179.997637,-2068.457845
105.655969,8290.306550,6661.853478,-383.047749
105.656290,8364.327145,6291.750507,1455.581446
105.656611,7402.059420,5181.441594,1838.629195
105.656931,6587.832884,4367.215058,0.000000
105.657252,6069.688724,4367.215058,-1302.362347
105.657573,6883.915261,5551.544565,-1685.410096
105.657893,7550.100608,6661.853478,-1149.143247
105.658214,7846.182985,7328.038826,-536.266849
105.658535,7254.018232,8142.265362,0.000000
105.658855,6809.894666,8142.265362,689.485948
105.659176,5921.647536,7698.141797,1149.143247
105.659497,5255.462188,7179.997637,1532.190996
105.659817,4367.215058,6883.915261,1225.752797
105.660138,4811.338623,6809.894666,76.609550
105.660459,4737.318029,7402.059420,-1225.752797
105.660779,4959.379811,7846.182985,-1378.971896
105.661100,4737.318029,8142.265362,0.000000
105.661420,4811.338623,8142.265362,612.876398
105.661741,5551.544565,7920.203579,1685.410096
105.662062,5477.523971,8734.430116,2068.457845
105.662382,5625.565159,9326.594869,1915.238745
105.662703,6069.688724,9400.615463,842.705048
105.663024,5181.441594,8882.471304,-612.876398
105.663344,4737.318029,7476.080014,-1915.238745
105.663665,5255.462188,7402.059420,-2145.067394
105.663986,5403.503377,7402.059420,-919.314598
105.664306,5329.482782,7920.203579,-383.047749
105.664627,4515.256246,7624.121203,-766.095498
105.664948,4663.297435,8512.368333,-612.876398
105.665268,4885.359217,9622.677246,306.438199
105.665589,5181.441594,9844.739029,1378.971896
105.665910,4367.215058,8364.327145,0.000000
105.666230,3775.050304,6957.935855,-1608.800546
105.666551,4589.276840,7624.121203,-2145.067394
105.666872,4589.276840,9030.512492,-995.924147
105.667192,4071.132681,10510.924376,-766.095498
105.667513,4145.153275,10288.862594,-1149.143247
105.667834,3775.050304,9696.697840,-536.266849
105.668154,3404.947333,8956.491898,1225.752797
105.668475,3256.906145,8216.285956,1991.848295
105.668796,2886.803174,6883.915261,1225.752797
105.669116,2886.803174,6661.853478,-459.657299
105.669437,3478.967927,6217.729913,-1149.143247
105.669757,4589.276840,6809.894666,0.000000
105.670078,5699.585753,8142.265362,1149.143247
105.670399,6365.771101,9474.636058,536.266849
105.670719,5921.647536,9474.636058,-536.266849
105.671040,6513.812290,8512.368333,-1378.971896
105.671361,7179.997637,7772.162391,-689.485948
105.671681,7031.956449,7550.100608,306.438199
105.672002,6587.832884,6883.915261,306.438199
105.672323,5847.626942,6587.832884,-766.095498
105.672643,5551.544565,5921.647536,-2451.505594
105.672964,6735.874072,7105.977043,-1455.581446
105.673285,7105.977043,7920.203579,-766.095498
105.673605,7402.059420,7402.059420,0.000000
105.673926,7179.997637,6809.894666,229.828649
105.674247,7179.997637,6439.791695,536.266849
105.674567,7031.956449,7550.100608,1378.971896
105.674888,6883.915261,8438.347739,1378.971896
105.675209,6735.874072,7994.224174,306.438199
105.675529,6513.812290,7031.956449,-383.047749
105.675850,6587.832884,6587.832884,-1072.533697
105.676171,6069.688724,5995.668130,-766.095498
105.676491,5625.565159,6513.812290,-306.438199
105.676812,5181.441594,7402.059420,0.000000
105.677133,4589.276840,7031.956449,306.438199
105.677453,5551.544565,7105.977043,766.095498
105.677774,6217.729913,8290.306550,1302.362347
105.678094,4293.194464,8512.368333,1149.143247
105.678415,3552.988522,8142.265362,-153.219100
105.678736,3997.112087,8216.285956,-1762.019645
105.679056,4145.153275,9400.615463,-1302.362347
105.679377,4367.215058,9622.677246,-1225.752797
105.679698,4071.132681,10436.903782,-1225.752797
105.680018,3404.947333,10658.965565,-766.095498
105.680339,3404.947333,10140.821405,229.828649
105.680660,4145.153275,8290.306550,2068.457845
105.680980,3627.009116,6735.874072,2298.286494
105.681301,2738.761985,6291.750507,995.924147
105.681622,2294.638420,6513.812290,-306.438199
105.681942,3182.885551,7105.977043,-919.314598
105.682263,5403.503377,7550.100608,-612.876398
105.682584,7550.100608,7920.203579,-229.828649
105.682904,7550.100608,7402.059420,0.000000
105.683225,6365.771101,7031.956449,-612.876398
105.683546,5921.647536,7846.182985,-536.266849
105.683866,6661.853478,8956.491898,76.609550
105.684187,6809.894666,9474.636058,229.828649
105.684508,6809.894666,7920.203579,-1302.362347
105.684828,6069.688724,7254.018232,-2374.896044
105.685149,5107.421000,7994.224174,-3217.601092
105.685470,4737.318029,8586.388927,-2451.505594
105.685790,4367.215058,8882.471304,-1838.629195
105.686111,3182.885551,8512.368333,-536.266849
105.686431,3775.050304,9178.553681,919.314598
105.686752,3330.926739,10362.883188,2221.676944
105.687073,1998.556043,12213.398043,2298.286494
105.687393,518.144159,12361.439231,1532.190996
105.687714,592.164754,11251.130318,76.609550
105.688035,1480.411884,9400.615463,536.266849
105.688355,1924.535449,8586.388927,1378.971896
105.688676,2072.576638,9030.512492,995.924147
105.688997,2220.617826,9104.533087,1072.533697
105.689317,2294.638420,9252.574275,306.438199
105.689638,3478.967927,7772.162391,1072.533697
105.689959,6069.688724,7402.059420,2298.286494
105.690279,7031.956449,7328.038826,2451.505594
105.690600,6069.688724,7105.977043,459.657299
105.690921,6217.729913,6217.729913,-2221.676944
105.691241,7624.121203,5995.668130,-3524.039291
105.691562,9622.677246,6513.812290,-2068.457845
105.691883,10658.965565,7254.018232,-1149.143247
105.692203,10066.800811,7698.141797,-1608.800546
105.692524,8290.306550,7328.038826,-2298.286494
105.692845,7772.162391,7105.977043,-1149.143247
105.693165,7994.224174,6069.688724,-229.828649
105.693486,7920.203579,4811.338623,306.438199
105.693807,6735.874072,4737.318029,-1225.752797
105.694127,5255.462188,4367.215058,-2145.067394
105.694448,5033.400406,5107.421000,-1838.629195
105.694768,5107.421000,5995.668130,0.000000
105.695089,5181.441594,7031.956449,1378.971896
105.695410,5625.565159,8068.244768,1455.581446
105.695730,4959.379811,8734.430116,842.705048
105.696051,4737.318029,8808.450710,536.266849
105.696372,4811.338623,9252.574275,459.657299
105.696692,4737.318029,8734.430116,612.876398
105.697013,4515.256246,8512.368333,-612.876398
105.697334,4737.318029,8068.244768,-612.876398
105.697654,4737.318029,8512.368333,-1225.752797
105.697975,4515.256246,9252.574275,-1072.533697
105.698296,3997.112087,9326.594869,-1149.143247
105.698616,4589.276840,8734.430116,383.047749
105.698937,4959.379811,7624.121203,1685.410096
105.699258,5551.544565,7994.224174,2681.334243
105.699578,4441.235652,9104.533087,1608.800546
105.699899,3256.906145,9252.574275,-689.485948
105.700220,3478.967927,9474.636058,-1838.629195
105.700540,4441.235652,9178.553681,-2451.505594
105.700861,5847.626942,9178.553681,-1762.019645
105.701182,7031.956449,9178.553681,-842.705048
105.701502,5403.503377,9474.636058,-1455.581446
105.701823,3552.988522,9474.636058,-1378.971896
105.702144,3923.091493,8882.471304,-536.266849
105.702464,4589.276840,8660.409521,229.828649
105.702785,4145.153275,8290.306550,229.828649
105.703105,3923.091493,8216.285956,-842.705048
105.703426,3552.988522,8956.491898,-1762.019645
105.703747,3923.091493,9770.718434,-1532.190996
105.704067,3478.967927,10658.965565,-153.219100
105.704388,3182.885551,10066.800811,-612.876398
105.704709,2960.823768,9400.615463,306.438199
105.705029,3182.885551,9474.636058,1532.190996
105.705350,2664.741391,9622.677246,2145.067394
105.705671,2812.782580,9474.636058,1915.238745
105.705991,1850.514855,8882.471304,842.705048
105.706312,1998.556043,7994.224174,-536.266849
105.706633,2442.679609,7328.038826,-536.266849
105.706953,3701.029710,6809.894666,0.000000
105.707274,4515.256246,7179.997637,612.876398
105.707595,4219.173869,7328.038826,229.828649
105.707915,4737.318029,7624.121203,0.000000
105.708236,6365.771101,8956.491898,459.657299
105.708557,6069.688724,9918.759623,689.485948
105.708877,6291.750507,9474.636058,0.000000
105.709198,6291.750507,8142.265362,-1608.800546
105.709519,6513.812290,7179.997637,-2451.505594
105.709839,7550.100608,6587.832884,-1455.581446
105.710160,7254.018232,5625.565159,-842.705048
105.710481,6735.874072,5551.544565,-153.219100
105.710801,5033.400406,5995.668130,0.000000
105.711122,5847.626942,6735.874072,383.047749
105.711442,6735.874072,6883.915261,1685.410096
105.711763,7105.977043,7254.018232,2068.457845
105.712084,6069.688724,7105.977043,1225.752797
105.712404,5255.462188,6735.874072,-689.485948
105.712725,5181.441594,6365.771101,-1608.800546
105.713046,5625.565159,6883.915261,-995.924147
105.713366,6291.750507,7624.121203,-306.438199
105.713687,5773.606348,7846.182985,-842.705048
105.714008,4737.318029,8734.430116,-766.095498
105.714328,4663.297435,8956.491898,153.219100
105.714649,4737.318029,8364.327145,1225.752797
105.714970,4737.318029,7624.121203,383.047749
105.715290,4219.173869,6217.729913,-612.876398
105.715611,3478.967927,6439.791695,-1685.410096
105.715932,4145.153275,7624.121203,-1225.752797
105.716252,5625.565159,9548.656652,-689.485948
105.716573,5773.606348,9918.759623,-229.828649
105.716894,5699.585753,9696.697840,-383.047749
105.717214,5329.482782,9326.594869,-536.266849
105.717535,4515.256246,9844.739029,0.000000
105.717856,5033.400406,9844.739029,1149.143247
105.718176,5107.421000,8882.471304,1225.752797
105.718497,4663.297435,7105.977043,-459.657299
105.718818,3997.112087,5847.626942,-1991.848295
105.719138,4071.132681,7179.997637,-1991.848295
105.719459,4293.194464,8660.409521,-1378.971896
105.719779,3478.967927,8660.409521,-153.219100
105.720100,4885.359217,7624.121203,-153.219100
105.720421,4885.359217,8290.306550,-459.657299
105.720741,4589.276840,10658.965565,0.000000
105.721062,4293.194464,12657.521608,0.000000
105.721383,3404.947333,12509.480420,-536.266849
105.721703,3701.029710,11473.192101,-2145.067394
105.722024,3997.112087,10362.883188,-2145.067394
105.722345,3330.926739,9696.697840,-1532.190996
105.722665,2072.576638,9844.739029,-995.924147
105.722986,444.123565,10288.862594,306.438199
105.723307,370.102971,10066.800811,459.657299
105.723627,1258.350101,8882.471304,1302.362347
105.723948,2220.617826,8216.285956,2987.772442
105.724269,2220.617826,9622.677246,3294.210641
105.724589,592.164754,9696.697840,1838.629195
105.724910,1850.514855,8586.388927,-459.657299
105.725231,3775.050304,7698.141797,-1378.971896
105.725551,5625.565159,7698.141797,0.000000
105.725872,6661.853478,8734.430116,1302.362347
105.726193,6217.729913,8734.430116,-229.828649
105.726513,5847.626942,8142.265362,-1302.362347
105.726834,7105.977043,7105.977043,-383.047749
105.727155,7846.182985,5477.523971,383.047749
105.727475,8512.368333,4515.256246,76.609550
105.727796,8216.285956,3552.988522,-1072.533697
105.728116,7105.977043,3849.070898,-1991.848295
105.728437,7846.182985,4959.379811,-1225.752797
105.728758,8216.285956,6587.832884,-459.657299
105.729078,8734.430116,7105.977043,-842.705048
105.729399,8956.491898,6883.915261,-766.095498
105.729720,8068.244768,7105.977043,-306.438199
105.730040,7179.997637,6883.915261,383.047749
105.730361,5995.668130,6069.688724,1838.629195
105.730682,5033.400406,5477.523971,1685.410096
105.731002,4737.318029,5329.482782,459.657299
105.731323,4885.359217,5921.647536,-383.047749
105.731644,5107.421000,6587.832884,-1455.581446
105.731964,5033.400406,6809.894666,-1072.533697
105.732285,4589.276840,6439.791695,459.657299
105.732606,5847.626942,5847.626942,1915.238745
105.732926,6883.915261,7105.977043,2681.334243
105.733247,5921.647536,8364.327145,1991.848295
105.733568,5699.585753,9696.697840,0.000000
105.733888,6143.709319,10214.842000,-1685.410096
105.734209,6439.791695,9104.533087,-2451.505594
105.734530,6661.853478,7846.182985,-1455.581446
105.734850,7254.018232,7550.100608,0.000000
105.735171,5477.523971,8734.430116,306.438199
105.735492,2220.617826,8438.347739,0.000000
105.735812,2886.803174,8290.306550,-689.485948
105.736133,4589.276840,8734.430116,229.828649
105.736453,4885.359217,8734.430116,1302.362347
105.736774,5255.462188,8660.409521,1072.533697
105.737095,3330.926739,9326.594869,-1455.581446
105.737415,3404.947333,9622.677246,-2604.724693
105.737736,3552.988522,10658.965565,-1378.971896
105.738057,4219.173869,10288.862594,-1149.143247
105.738377,4293.194464,10288.862594,-1072.533697
105.738698,3775.050304,11103.089130,-306.438199
105.739019,2516.700203,10955.047942,0.000000
105.739339,2590.720797,10288.862594,842.705048
105.739660,2294.638420,9104.533087,1149.143247
105.739981,1850.514855,7698.141797,153.219100
105.740301,2294.638420,6809.894666,-306.438199
105.740622,3182.885551,8438.347739,306.438199
105.740943,3997.112087,9400.615463,383.047749
105.741263,4293.194464,9918.759623,229.828649
105.741584,5107.421000,9400.615463,-459.657299
105.741905,4959.379811,9474.636058,-153.219100
105.742225,5181.441594,9400.615463,383.047749
105.742546,5181.441594,9548.656652,459.657299
105.742867,4959.379811,8956.491898,229.828649
105.743187,4737.318029,7920.203579,229.828649
105.743508,4515.256246,7105.977043,-1225.752797
105.743829,4885.359217,6587.832884,-2145.067394
105.744149,5551.544565,6735.874072,-1072.533697
105.744470,5847.626942,6513.812290,-229.828649
105.744790,5847.626942,5329.482782,995.924147
105.745111,7179.997637,4959.379811,2528.115143
105.745432,8142.265362,6217.729913,2068.457845
105.745752,8142.265362,7105.977043,1302.362347
105.746073,7624.121203,6735.874072,-306.438199
105.746394,8364.327145,5403.503377,-1762.019645
105.746714,9178.553681,5773.606348,-1302.362347
105.747035,8882.471304,5255.462188,-995.924147
105.747355,8808.450710,5773.606348,-766.095498
105.747676,7550.100608,5255.462188,-689.485948
105.747997,6809.894666,5773.606348,-306.438199
105.748317,7402.059420,6513.812290,459.657299
105.748638,6809.894666,6735.874072,1225.752797
105.748959,5699.585753,6587.832884,1149.143247
105.749279,5477.523971,6513.812290,383.047749
105.749600,5625.565159,6661.853478,-842.705048
105.749920,5477.523971,7624.121203,-995.924147
105.750241,4959.379811,8882.471304,-1762.019645
105.750562,5403.503377,8956.491898,-1378.971896
105.750882,4515.256246,9104.533087,0.000000
105.751203,3478.967927,8660.409521,1302.362347
105.751524,3552.988522,8586.388927,2451.505594
105.751844,3552.988522,7920.203579,2221.676944
105.752165,3256.906145,7328.038826,1225.752797
105.752485,3552.988522,7254.018232,-383.047749
105.752806,3849.070898,7402.059420,-1378.971896
105.753127,4811.338623,7920.203579,-919.314598
105.753447,5625.565159,8586.388927,306.438199
105.753768,5699.585753,9030.512492,0.000000
105.754089,6143.709319,9178.553681,-766.095498
105.754409,6291.750507,9548.656652,-1072.533697
105.754730,5625.565159,9918.759623,-1149.143247
105.755050,4959.379811,10066.800811,-383.047749
105.755371,4219.173869,9178.553681,-689.485948
105.755692,3552.988522,7920.203579,-1915.238745
105.756012,3923.091493,8290.306550,-2681.334243
105.756333,3108.864956,8660.409521,-2451.505594
105.756654,1924.535449,9770.718434,-1378.971896
105.756974,1850.514855,9844.739029,-459.657299
105.757295,2664.741391,10288.862594,383.047749
105.757615,3182.885551,10955.047942,1762.019645
105.757936,2146.597232,11695.253884,1685.410096
105.758257,592.164754,11325.150913,-383.047749
105.758577,1110.308913,11177.109724,-995.924147
105.758898,1332.370696,11103.089130,0.000000
105.759219,1628.453072,10807.006753,459.657299
105.759539,3034.844362,9474.636058,919.314598
105.759860,2368.659014,10140.821405,766.095498
105.760180,1628.453072,9844.739029,306.438199
105.760501,2442.679609,8734.430116,459.657299
105.760822,3997.112087,7328.038826,842.705048
105.761142,5921.647536,5699.585753,2528.115143
105.761463,6809.894666,5625.565159,2528.115143
105.761784,6513.812290,5699.585753,-612.876398
105.762104,7328.038826,6439.791695,-2451.505594
105.762425,9474.636058,7105.977043,-1302.362347
105.762745,10436.903782,6883.915261,-1072.533697
105.763066,11177.109724,5033.400406,-1378.971896
105.763387,11251.130318,4737.318029,-1532.190996
105.763707,10214.842000,5107.421000,-919.314598
105.764028,8808.450710,5107.421000,0.000000
105.764349,8438.347739,4663.297435,-689.485948
105.764669,8142.265362,3627.009116,-1838.629195
105.764990,8216.285956,3552.988522,-1915.238745
105.765310,8290.306550,5403.503377,-689.485948
105.765631,7105.977043,6365.771101,-229.828649
105.765952,6291.750507,6439.791695,-766.095498
105.766272,6809.894666,6143.709319,0.000000
105.766593,6439.791695,6217.729913,995.924147
105.766914,6439.791695,7920.203579,2298.286494
105.767234,5551.544565,8956.491898,2068.457845
105.767555,4589.276840,9400.615463,76.609550
105.767875,4219.173869,8364.327145,-383.047749
105.768196,3997.112087,7105.977043,306.438199
105.768517,4515.256246,6957.935855,459.657299
105.768837,4515.256246,7698.141797,1072.533697
105.769158,2590.720797,8142.265362,689.485948
105.769479,2886.803174,8216.285956,306.438199
105.769799,3997.112087,7846.182985,2145.067394
105.770120,4885.359217,8956.491898,2834.553343
105.770440,5107.421000,8956.491898,1608.800546
105.770761,4589.276840,9326.594869,-1225.752797
105.771082,4071.132681,9844.739029,-3370.820191
105.771402,4219.173869,9622.677246,-2757.943793
105.771723,5329.482782,9400.615463,-1149.143247
105.772043,6069.688724,9104.533087,-612.876398
105.772364,5181.441594,9400.615463,-995.924147
105.772685,3552.988522,9844.739029,-1225.752797
105.773005,3478.967927,10140.821405,-1378.971896
105.773326,3478.967927,9770.718434,-1302.362347
105.773647,3034.844362,8586.388927,-919.314598
105.773967,3330.926739,7994.224174,-383.047749
105.774288,3627.009116,9178.553681,-689.485948
105.774608,3182.885551,10881.027347,-842.705048
105.774929,2146.597232,11843.295072,-995.924147
105.775250,2664.741391,10881.027347,-842.705048
105.775570,3108.864956,9992.780217,459.657299
105.775891,3034.844362,8586.388927,2145.067394
105.776212,2960.823768,9104.533087,1838.629195
105.776532,2516.700203,8734.430116,842.705048
105.776853,2516.700203,8142.265362,-306.438199
105.777173,3108.864956,7624.121203,-766.095498
105.777494,4959.379811,7254.018232,-689.485948
105.777815,5995.668130,7994.224174,-229.828649
105.778135,6291.750507,8364.327145,459.657299
105.778456,5551.544565,8660.409521,-306.438199
105.778777,6587.832884,7624.121203,-766.095498
105.779097,6883.915261,7994.224174,-153.219100
105.779418,7402.059420,9030.512492,-306.438199
105.779738,6809.894666,8586.388927,-1072.533697
105.780059,6513.812290,8142.265362,-1455.581446
105.780380,6217.729913,7402.059420,-919.314598
105.780700,6439.791695,6957.935855,-76.609550
105.781021,6291.750507,5699.585753,153.219100
105.781342,5181.441594,5255.462188,0.000000
105.781662,5255.462188,5033.400406,0.000000
105.781983,6143.709319,5181.441594,612.876398
105.782303,7179.997637,6217.729913,1991.848295
105.782624,7105.977043,7550.100608,1302.362347
105.782945,6587.832884,7698.141797,-229.828649
105.783265,6513.812290,7402.059420,-1302.362347
105.783586,6217.729913,7254.018232,-1225.752797
105.783907,5921.647536,7550.100608,-383.047749
105.784227,5625.565159,8068.244768,-76.609550
105.784548,5107.421000,8512.368333,-459.657299
105.784868,3775.050304,9030.512492,76.609550
105.785189,3923.091493,8734.430116,229.828649
105.785510,4145.153275,8142.265362,919.314598
105.785830,2886.803174,7328.038826,689.485948
105.786151,2516.700203,7105.977043,229.828649
105.786472,2516.700203,7698.141797,0.000000
105.786792,3627.009116,8290.306550,0.000000
105.787113,3997.112087,9400.615463,229.828649
105.787433,3923.091493,9622.677246,0.000000
105.787754,3997.112087,9622.677246,0.000000
105.788075,4441.235652,9918.759623,383.047749
105.788395,4737.318029,9548.656652,229.828649
105.788716,4737.318029,8808.450710,0.000000
105.789037,4515.256246,7994.224174,-229.828649
105.789357,3923.091493,6957.935855,-842.705048
105.789678,4145.153275,7031.956449,-1149.143247
105.789998,4811.338623,8068.244768,-1762.019645
105.790319,4737.318029,9104.533087,-1149.143247
105.790640,4959.379811,9400.615463,-153.219100
105.790960,6143.709319,8512.368333,0.000000
105.791281,5773.606348,8660.409521,0.000000
105.791602,5403.503377,9474.636058,766.095498
105.791922,4737.318029,9844.739029,0.000000
105.792243,3552.988522,9696.697840,-1149.143247
105.792563,4441.235652,8808.450710,-1149.143247
105.792884,5181.441594,8586.388927,-612.876398
105.793205,4441.235652,8068.244768,-689.485948
105.793525,3404.947333,8660.409521,-383.047749
105.793846,2368.659014,9178.553681,-459.657299
105.794167,2516.700203,8142.265362,0.000000
105.794487,4737.318029,7698.141797,1608.800546
105.794808,5625.565159,7698.141797,2298.286494
105.795128,3997.112087,8660.409521,612.876398
105.795449,3701.029710,8808.450710,-1762.019645
105.795770,4515.256246,8808.450710,-1991.848295
105.796090,5921.647536,8956.491898,-1149.143247
105.796411,7179.997637,8734.430116,919.314598
105.796732,7254.018232,8882.471304,0.000000
105.797052,5033.400406,8364.327145,-1532.190996
105.797373,4663.297435,7920.203579,-229.828649
105.797693,6143.709319,7105.977043,1455.581446
105.798014,6661.853478,5773.606348,1532.190996
105.798335,5625.565159,5181.441594,689.485948
105.798655,5625.565159,5477.523971,-1302.362347
105.798976,5403.503377,6439.791695,-1915.238745
105.799297,6143.709319,8512.368333,-612.876398
105.799617,6365.771101,8734.430116,-229.828649
105.799938,6365.771101,7846.182985,-612.876398
105.800258,6957.935855,7254.018232,-153.219100
105.800579,5773.606348,7994.224174,229.828649
105.800900,4663.297435,7846.182985,0.000000
105.801220,4811.338623,7179.997637,-229.828649
105.801541,4441.235652,7105.977043,-689.485948
105.801862,4589.276840,7476.080014,-1225.752797
105.802182,5625.565159,7772.162391,-689.485948
105.802503,5551.544565,8364.327145,-612.876398
105.802823,4811.338623,8290.306550,-536.266849
105.803144,4589.276840,7328.038826,383.047749
105.803465,4959.379811,6883.915261,1455.581446
105.803785,5625.565159,8586.388927,1991.848295
105.804106,5107.421000,9474.636058,1762.019645
105.804427,4589.276840,9696.697840,-689.485948
105.804747,3330.926739,9030.512492,-2068.457845
105.805068,3552.988522,7994.224174,-1149.143247
105.805388,4441.235652,7476.080014,383.047749
105.805709,4145.153275,7698.141797,689.485948
105.806030,3256.906145,7994.224174,229.828649
105.806350,3256.906145,8438.347739,-306.438199
105.806671,4589.276840,8364.327145,0.000000
105.806991,5255.462188,8438.347739,612.876398
105.807312,5625.565159,8216.285956,229.828649
105.807633,5255.462188,7698.141797,-306.438199
105.807953,4515.256246,8068.244768,-1608.800546
105.808274,4811.338623,8808.450710,-1532.190996
105.808595,5107.421000,9770.718434,-1225.752797
105.808915,5329.482782,10362.883188,-1991.848295
105.809236,5329.482782,9918.759623,-766.095498
105.809556,5033.400406,9178.553681,76.609550
105.809877,4737.318029,8290.306550,1225.752797
105.810198,3775.050304,7550.100608,1149.143247
105.810518,3034.844362,7031.956449,459.657299
105.810839,2886.803174,6735.874072,0.000000
105.811160,3997.112087,6883.915261,0.000000
105.811480,5329.482782,7624.121203,689.485948
105.811801,5995.668130,9030.512492,383.047749
105.812121,5181.441594,9622.677246,-306.438199
105.812442,5033.400406,8956.491898,-842.705048
105.812763,6069.688724,8364.327145,-536.266849
105.813083,6291.750507,8216.285956,0.000000
105.813404,5699.585753,7920.203579,306.438199
105.813725,4737.318029,7476.080014,-153.219100
105.814045,4737.318029,8142.265362,-1302.362347
105.814366,5107.421000,7994.224174,-1225.752797
105.814686,5625.565159,7772.162391,-612.876398
105.815007,5847.626942,8142.265362,-306.438199
105.815328,4737.318029,8142.265362,0.000000
105.815648,5107.421000,7994.224174,689.485948
105.815969,6143.709319,7772.162391,1378.971896
105.816290,5847.626942,8438.347739,1608.800546
105.816610,5107.421000,8216.285956,842.705048
105.816931,4367.215058,7698.141797,-766.095498
105.817251,4663.297435,7624.121203,-1455.581446
105.817572,5107.421000,7105.977043,-459.657299
105.817893,5403.503377,6809.894666,383.047749
105.818213,5329.482782,7328.038826,-76.609550
105.818534,4737.318029,7476.080014,76.609550
105.818855,5551.544565,7846.182985,766.095498
105.819175,6291.750507,7624.121203,1378.971896
105.819496,5403.503377,7179.997637,689.485948
105.819816,4811.338623,6809.894666,-459.657299
105.820137,5255.462188,6587.832884,-1608.800546
105.820458,5403.503377,7031.956449,-1225.752797
105.820778,6365.771101,8364.327145,-995.924147
105.821099,6513.812290,9474.636058,-995.924147
105.821420,5255.462188,9178.553681,-766.095498
105.821740,4737.318029,8660.409521,0.000000
105.822061,5181.441594,7772.162391,1149.143247
105.822381,5773.606348,6513.812290,1072.533697
105.822702,5107.421000,5773.606348,536.266849
105.823023,4811.338623,5995.668130,-612.876398
105.823343,4515.256246,6587.832884,-1378.971896
105.823664,5625.565159,7698.141797,-306.438199
105.823985,6439.791695,8586.388927,1149.143247
105.824305,6143.709319,9252.574275,383.047749
105.824626,6143.709319,8364.327145,-383.047749
105.824946,5847.626942,7920.203579,-842.705048
105.825267,5625.565159,8512.368333,-459.657299
105.825588,5329.482782,8808.450710,76.609550
105.825908,4441.235652,8142.265362,-536.266849
105.826229,3923.091493,7772.162391,-1225.752797
105.826550,4293.194464,7920.203579,-995.924147
105.826870,4737.318029,9252.574275,-306.438199
105.827191,4441.235652,9548.656652,-689.485948
105.827511,3849.070898,9030.512492,-383.047749
105.827832,4071.132681,8956.491898,383.047749
105.828153,4959.379811,8216.285956,1762.019645
105.828473,4663.297435,8512.368333,1838.629195
105.828794,3627.009116,9326.594869,842.705048
105.829115,3108.864956,10362.883188,-1302.362347
105.829435,2960.823768,9696.697840,-1915.238745
105.829756,3997.112087,8586.388927,-1225.752797
105.830076,5403.503377,7772.162391,229.828649
105.830397,4293.194464,7624.121203,536.266849
105.830718,3256.906145,8734.430116,0.000000
105.831038,3627.009116,8660.409521,0.000000
105.831359,5773.606348,8660.409521,995.924147
105.831680,7105.977043,8364.327145,1302.362347
105.832000,7031.956449,7846.182985,306.438199
105.832321,5477.523971,7254.018232,-1762.019645
105.832641,5255.462188,7105.977043,-1838.629195
105.832962,6143.709319,7846.182985,-536.266849
105.833283,7031.956449,8068.244768,-383.047749
105.833603,6439.791695,8364.327145,0.000000
105.833924,5477.523971,8216.285956,-459.657299
105.834245,5033.400406,7698.141797,0.000000
105.834565,4959.379811,6661.853478,1838.629195
105.834886,4811.338623,5995.668130,766.095498
105.835206,4367.215058,5107.421000,0.000000
105.835527,4441.235652,5625.565159,-536.266849
105.835848,5107.421000,6513.812290,-306.438199
105.836168,5625.565159,7920.203579,153.219100
105.836489,6217.729913,8438.347739,-76.609550
105.836810,6661.853478,8808.450710,-766.095498
105.837130,5921.647536,7920.203579,-766.095498
105.837451,6587.832884,7772.162391,-153.219100
105.837771,7328.038826,7994.224174,229.828649
105.838092,5477.523971,7031.956449,-306.438199
105.838413,5033.400406,6513.812290,-842.705048
105.838733,5551.544565,6439.791695,-919.314598
105.839054,5995.668130,7179.997637,-612.876398
105.839374,6809.894666,7402.059420,0.000000
105.839695,6143.709319,7846.182985,-536.266849
105.840016,5033.400406,7994.224174,-383.047749
105.840336,5033.400406,7624.121203,1302.362347
105.840657,5847.626942,7846.182985,2528.115143
105.840978,5773.606348,8290.306550,1762.019645
105.841299,4441.235652,8660.409521,0.000000
105.841619,3923.091493,8882.471304,-2145.067394
105.841940,4071.132681,8512.368333,-2528.115143
105.842261,5107.421000,8586.388927,-1608.800546
105.842582,5329.482782,8512.368333,689.485948
105.842903,4959.379811,8290.306550,459.657299
105.843223,4071.132681,8290.306550,459.657299
105.843544,4663.297435,8364.327145,459.657299
105.843865,4737.318029,8364.327145,76.609550
105.844186,5033.400406,7994.224174,0.000000
105.844507,4959.379811,7920.203579,-995.924147
105.844827,5255.462188,8142.265362,-1225.752797
105.845148,5033.400406,8734.430116,-1149.143247
105.845469,5329.482782,9696.697840,-842.705048
105.845790,4885.359217,10584.944971,-536.266849
105.846111,3775.050304,10066.800811,-153.219100
105.846431,3849.070898,9474.636058,842.705048
105.846752,4441.235652,7994.224174,1455.581446
105.847073,4071.132681,7328.038826,995.924147
105.847394,2886.803174,7105.977043,383.047749
105.847715,2664.741391,7402.059420,-842.705048
105.848035,3552.988522,7550.100608,-612.876398
105.848356,5181.441594,7846.182985,0.000000
105.848677,5625.565159,9030.512492,459.657299
105.848998,5477.523971,9474.636058,459.657299
105.849319,4293.194464,9400.615463,-306.438199
105.849640,4959.379811,8586.388927,-306.438199
105.849960,5995.668130,8216.285956,-76.609550
105.850281,5921.647536,7920.203579,0.000000
105.850602,4811.338623,7179.997637,-1149.143247
105.850923,4367.215058,7031.956449,-1685.410096
105.851244,4959.379811,7254.018232,-689.485948
105.851564,6217.729913,7328.038826,0.000000
105.851885,6143.709319,6957.935855,-229.828649
105.852206,5403.503377,7031.956449,-766.095498
105.852527,5403.503377,7105.977043,536.266849
105.852848,5699.585753,7550.100608,1455.581446
105.853168,5995.668130,7624.121203,1149.143247
105.853489,6439.791695,7624.121203,0.000000
105.853810,4959.379811,7179.997637,-1455.581446
105.854131,4589.276840,7402.059420,-1838.629195
105.854452,5107.421000,7994.224174,-1302.362347
105.854772,5625.565159,8512.368333,229.828649
105.855093,4811.338623,8660.409521,536.266849
105.855414,4663.297435,8216.285956,306.438199
105.855735,4367.215058,7624.121203,459.657299
105.856056,4663.297435,7254.018232,995.924147
105.856376,4811.338623,6957.935855,459.657299
105.856697,5033.400406,6809.894666,-306.438199
105.857018,4885.359217,7402.059420,-1532.190996
105.857339,5477.523971,8290.306550,-842.705048
105.857660,6217.729913,9400.615463,-612.876398
105.857980,6439.791695,9696.697840,-306.438199
105.858301,5699.585753,9474.636058,-612.876398
105.858622,4959.379811,8660.409521,-306.438199
105.858943,5699.585753,7698.141797,153.219100
105.859264,5329.482782,7402.059420,229.828649
105.859584,4589.276840,7624.121203,76.609550
105.859905,3552.988522,7402.059420,-842.705048
105.860226,3627.009116,7328.038826,-919.314598
105.860547,4885.359217,7772.162391,-383.047749
105.860868,5625.565159,8586.388927,0.000000
105.861188,5255.462188,9400.615463,0.000000
105.861509,4441.235652,9252.574275,-383.047749
105.861830,4367.215058,9326.594869,-383.047749
105.862151,4885.359217,8660.409521,76.609550
105.862472,5255.462188,9400.615463,153.219100
105.862792,4663.297435,9326.594869,-383.047749
105.863113,3404.947333,8956.491898,-1378.971896
105.863434,3627.009116,8068.244768,-1532.190996
105.863755,4589.276840,7846.182985,-306.438199
105.864076,5107.421000,8290.306550,229.828649
105.864397,3997.112087,8512.368333,76.609550
105.864717,4293.194464,8660.409521,229.828649
105.865038,4219.173869,8438.347739,1072.533697
105.865359,5107.421000,8068.244768,1149.143247
105.865680,5255.462188,7994.224174,919.314598
105.866001,4441.235652,7254.018232,-459.657299
105.866321,4219.173869,7254.018232,-1608.800546
105.866642,5181.441594,8364.327145,-1762.019645
105.866963,6439.791695,8734.430116,-842.705048
105.867284,6513.812290,9104.533087,-153.219100
105.867605,6069.688724,8808.450710,0.000000
105.867925,5181.441594,7698.141797,0.000000
105.868246,5699.585753,7105.977043,842.705048
105.868567,5773.606348,6809.894666,1455.581446
105.868888,5033.400406,6661.853478,0.000000
105.869209,4145.153275,5847.626942,-842.705048
105.869529,4959.379811,6513.812290,-1532.190996
105.869850,5995.668130,7698.141797,-689.485948
105.870171,6143.709319,9770.718434,229.828649
105.870492,5329.482782,9770.718434,-689.485948
105.870813,4811.338623,9252.574275,-995.924147
105.871133,4811.338623,8660.409521,153.219100
105.871454,5255.462188,8438.347739,1225.752797
105.871775,4737.318029,7698.141797,1149.143247
105.872096,3256.906145,7105.977043,-919.314598
105.872417,2590.720797,6809.894666,-1302.362347
105.872737,3404.947333,7105.977043,-689.485948
105.873058,4885.359217,7624.121203,229.828649
105.873379,5551.544565,8734.430116,612.876398
105.873700,4737.318029,8586.388927,0.000000
105.874021,4367.215058,8364.327145,-459.657299
105.874341,4737.318029,7772.162391,536.266849
105.874662,6217.729913,8808.450710,612.876398
105.874983,5255.462188,9178.553681,459.657299
105.875304,4663.297435,8882.471304,-1378.971896
105.875625,4589.276840,8808.450710,-2757.943793
105.875945,4589.276840,8512.368333,-1915.238745
105.876266,4663.297435,8290.306550,-612.876398
105.876587,4293.194464,8364.327145,459.657299
105.876908,3627.009116,8364.327145,459.657299
105.877229,3997.112087,8956.491898,919.314598
105.877549,4145.153275,8882.471304,1225.752797
105.877870,4219.173869,8808.450710,919.314598
105.878191,3701.029710,8660.409521,-229.828649
105.878512,4145.153275,7772.162391,-995.924147
105.878833,4737.318029,7994.224174,-842.705048
105.879153,4737.318029,8660.409521,-612.876398
105.879474,5403.503377,9548.656652,-383.047749
105.879795,4811.338623,10362.883188,-459.657299
105.880116,4219.173869,9696.697840,0.000000
105.880437,5181.441594,8512.368333,842.705048
105.880758,6069.688724,6809.894666,919.314598
105.881078,5033.400406,6069.688724,459.657299
105.881399,4293.194464,5995.668130,459.657299
105.881720,4737.318029,6735.874072,-919.314598
105.882041,4737.318029,7550.100608,-1225.752797
105.882362,7254.018232,8364.327145,-766.095498
105.882682,7105.977043,9252.574275,-383.047749
105.883003,5847.626942,9326.594869,-689.485948
105.883324,6513.812290,8364.327145,-306.438199
105.883645,6513.812290,7624.121203,383.047749
105.883966,5995.668130,7105.977043,383.047749
105.884286,5773.606348,6513.812290,0.000000
105.884607,4145.153275,6587.832884,-1915.238745
105.884928,4219.173869,6735.874072,-1532.190996
105.885249,5477.523971,7698.141797,-383.047749
105.885570,6069.688724,8142.265362,0.000000
105.885890,5551.544565,8290.306550,153.219100
105.886211,4959.379811,8216.285956,306.438199
105.886532,4737.318029,8290.306550,536.266849
105.886853,4885.359217,8512.368333,1762.019645
105.887174,4959.379811,8734.430116,1225.752797
105.887494,4293.194464,8512.368333,-689.485948
105.887815,4293.194464,8142.265362,-1915.238745
105.888136,4145.153275,7846.182985,-1378.971896
105.888457,4515.256246,7994.224174,-612.876398
105.888778,4737.318029,8290.306550,0.000000
105.889098,4071.132681,8290.306550,306.438199
105.889419,4219.173869,7846.182985,306.438199
105.889740,5181.441594,8364.327145,1762.019645
105.890061,5329.482782,8438.347739,2145.067394
105.890382,4145.153275,7846.182985,153.219100
105.890702,3923.091493,7328.038826,-1608.800546
105.891023,4219.173869,7624.121203,-1608.800546
105.891344,4441.235652,8216.285956,-1225.752797
105.891665,6143.709319,9696.697840,-536.266849
105.891986,5847.626942,10288.862594,-689.485948
105.892306,4441.235652,9844.739029,-536.266849
105.892627,4515.256246,8734.430116,459.657299
105.892948,5255.462188,7031.956449,1072.533697
105.893269,5255.462188,6587.832884,1072.533697
105.893590,4219.173869,6809.894666,-306.438199
105.893910,4071.132681,6809.894666,-1378.971896
105.894231,4441.235652,7105.977043,-689.485948
105.894552,5403.503377,7920.203579,306.438199
105.894873,5699.585753,9548.656652,459.657299
105.895194,4959.379811,10436.903782,0.000000
105.895515,4293.194464,9918.759623,-1149.143247
105.895835,4737.318029,9104.533087,0.000000
105.896156,5551.544565,8734.430116,689.485948
105.896477,4663.297435,8364.327145,689.485948
105.896798,3034.844362,7698.141797,0.000000
105.897119,3330.926739,7402.059420,-1149.143247
105.897439,4589.276840,7328.038826,229.828649
105.897760,4367.215058,6957.935855,612.876398
105.898081,5255.462188,7105.977043,383.047749
105.898402,5329.482782,7624.121203,383.047749
105.898723,5329.482782,8068.244768,1072.533697
105.899043,6513.812290,7624.121203,1302.362347
105.899364,7105.977043,7624.121203,612.876398
105.899685,6439.791695,7624.121203,0.000000
105.900006,5625.565159,7846.182985,-842.705048
105.900327,5625.565159,6439.791695,-2374.896044
105.900647,7105.977043,6587.832884,-2757.943793
105.900968,7920.203579,7254.018232,-1302.362347
105.901289,7105.977043,7772.162391,-612.876398
105.901610,5625.565159,7772.162391,-459.657299
105.901931,6365.771101,7846.182985,-153.219100
105.902251,7105.977043,7772.162391,995.924147
105.902572,5773.606348,6809.894666,995.924147
105.902893,4737.318029,6069.688724,-306.438199
105.903214,4293.194464,6735.874072,-1225.752797
105.903535,4811.338623,7698.141797,-1072.533697
105.903855,5625.565159,9400.615463,-612.876398
105.904176,5847.626942,9030.512492,-919.314598
105.904497,4737.318029,8734.430116,-459.657299
105.904818,4145.153275,9178.553681,919.314598
105.905139,3997.112087,8216.285956,1762.019645
105.905459,4515.256246,7254.018232,1915.238745
105.905780,4663.297435,7105.977043,536.266849
105.906101,3478.967927,7031.956449,-1302.362347
105.906422,3330.926739,7254.018232,-2451.505594
105.906743,4737.318029,8438.347739,-459.657299
105.907063,5921.647536,9400.615463,766.095498
105.907384,5699.585753,9992.780217,229.828649
105.907705,5551.544565,9992.780217,-766.095498
105.908026,4441.235652,9474.636058,-1149.143247
105.908347,5329.482782,9474.636058,-76.609550
105.908667,5181.441594,9696.697840,1149.143247
105.908988,3701.029710,8882.471304,0.000000
105.909309,2960.823768,7254.018232,-1302.362347
105.909630,3478.967927,6735.874072,-1072.533697
105.909951,3997.112087,7624.121203,-306.438199
105.910271,3775.050304,8290.306550,689.485948
105.910592,3849.070898,7402.059420,0.000000
105.910913,4367.215058,7920.203579,306.438199
105.911234,4663.297435,8734.430116,2221.676944
105.911555,5625.565159,8956.491898,2221.676944
105.911876,5477.523971,8734.430116,383.047749
105.912196,4737.318029,8882.471304,-1762.019645
105.912517,5033.400406,8364.327145,-2987.772442
105.912838,5625.565159,7476.080014,-2451.505594
105.913159,6883.915261,7476.080014,-459.657299
105.913480,6217.729913,7994.224174,536.266849
105.913800,4811.338623,8216.285956,612.876398
105.914121,4219.173869,7994.224174,-306.438199
105.914442,5773.606348,7624.121203,383.047749
105.914763,5921.647536,7105.977043,1072.533697
105.915084,5921.647536,5995.668130,842.705048
105.915404,5403.503377,5181.441594,-536.266849
105.915725,5181.441594,6365.771101,-995.924147
105.916046,5477.523971,7994.224174,-459.657299
105.916367,6291.750507,9326.594869,-229.828649
105.916688,6365.771101,9844.739029,-459.657299
105.917008,5699.585753,9400.615463,0.000000
105.917329,4959.379811,7772.162391,766.095498
105.917650,5403.503377,7031.956449,766.095498
105.917971,4515.256246,6735.874072,229.828649
105.918292,3552.988522,6513.812290,-1149.143247
105.918612,3849.070898,6291.750507,-995.924147
105.918933,5181.441594,6661.853478,-306.438199
105.919254,6587.832884,8438.347739,919.314598
105.919575,7105.977043,9992.780217,459.657299
105.919896,6587.832884,9400.615463,-689.485948
105.920216,6143.709319,8216.285956,-536.266849
105.920537,6291.750507,6957.935855,995.924147
105.920858,6661.853478,7328.038826,766.095498
105.921179,5699.585753,7994.224174,-306.438199
105.921500,4219.173869,8142.265362,-2221.676944
105.921820,4737.318029,7624.121203,-2298.286494
105.922141,5403.503377,7254.018232,-1302.362347
105.922462,5403.503377,7624.121203,-153.219100
105.922783,5181.441594,8364.327145,612.876398
105.923104,3627.009116,7920.203579,306.438199
105.923424,4071.132681,8068.244768,1072.533697
105.923745,5625.565159,8660.409521,2221.676944
105.924066,5699.585753,9104.533087,689.485948
105.924387,4589.276840,8956.491898,-1838.629195
105.924708,4737.318029,8882.471304,-2374.896044
105.925028,4293.194464,8586.388927,-2221.676944
105.925349,4885.359217,7920.203579,-689.485948
105.925670,5033.400406,7772.162391,229.828649
105.925991,3849.070898,9252.574275,0.000000
105.926312,3034.844362,9400.615463,-76.609550
105.926633,4145.153275,9252.574275,842.705048
105.926953,5329.482782,8068.244768,1378.971896
105.927274,4589.276840,6957.935855,536.266849
105.927595,3775.050304,7105.977043,-306.438199
105.927916,3404.947333,7328.038826,-1072.533697
105.928237,4441.235652,8290.306550,-919.314598
105.928557,5995.668130,9474.636058,-919.314598
105.928878,6439.791695,9918.759623,-612.876398
105.929199,5625.565159,9992.780217,-612.876398
105.929520,5181.441594,9696.697840,0.000000
105.929841,5477.523971,7698.141797,1302.362347
105.930161,5773.606348,6661.853478,612.876398
105.930482,4885.359217,6291.750507,0.000000
105.930803,4145.153275,6365.771101,-1225.752797
105.931124,4737.318029,6957.935855,-1455.581446
105.931445,6439.791695,7698.141797,153.219100
105.931765,6661.853478,8438.347739,766.095498
105.932086,5921.647536,9326.594869,459.657299
105.932407,5403.503377,8882.471304,-229.828649
105.932728,5181.441594,8216.285956,-383.047749
105.933049,5921.647536,8512.368333,919.314598
105.933369,6217.729913,8142.265362,842.705048
105.933690,4441.235652,7698.141797,-459.657299
105.934011,3701.029710,6735.874072,-1685.410096
105.934332,4441.235652,7105.977043,-842.705048
105.934653,4737.318029,7328.038826,0.000000
105.934973,5181.441594,7550.100608,536.266849
105.935294,4811.338623,7402.059420,229.828649
105.935615,5033.400406,7550.100608,229.828649
105.935936,5255.462188,7846.182985,1838.629195
105.936257,5847.626942,8216.285956,1685.410096
105.936577,5255.462188,7772.162391,-153.219100
105.936898,4737.318029,7920.203579,-1915.238745
105.937219,4441.235652,7476.080014,-2528.115143
105.937540,5477.523971,7920.203579,-1762.019645
105.937861,5921.647536,8216.285956,-459.657299
105.938181,5107.421000,8956.491898,383.047749
105.938502,4071.132681,9326.594869,229.828649
105.938823,3923.091493,8438.347739,-76.609550
105.939144,5329.482782,7402.059420,1532.190996
105.939465,4959.379811,7105.977043,1072.533697
105.939785,4145.153275,6439.791695,76.609550
105.940106,3552.988522,6661.853478,-995.924147
105.940427,4367.215058,7920.203579,-1225.752797
105.940748,5847.626942,9474.636058,-766.095498
105.941069,5403.503377,10362.883188,-229.828649
105.941390,4885.359217,10288.862594,-995.924147
105.941710,4071.132681,9622.677246,-612.876398
105.942031,5033.400406,8364.327145,842.705048
105.942352,4811.338623,6809.894666,1455.581446
105.942673,4515.256246,5847.626942,306.438199
105.942994,3701.029710,6291.750507,-1072.533697
105.943314,4367.215058,7550.100608,-1685.410096
105.943635,4885.359217,8512.368333,-1072.533697
105.943956,6587.832884,8586.388927,-76.609550
105.944276,7402.059420,9400.615463,76.609550
105.944597,6143.709319,9622.677246,-229.828649
105.944918,5329.482782,8882.471304,-842.705048
105.945239,6069.688724,8142.265362,-689.485948
105.945559,5625.565159,7920.203579,76.609550
105.945880,5033.400406,7920.203579,0.000000
105.946201,4515.256246,7994.224174,-689.485948
105.946521,3849.070898,7402.059420,-1532.190996
105.946842,4885.359217,8216.285956,-995.924147
105.947163,5329.482782,8216.285956,0.000000
105.947483,4663.297435,7031.956449,-306.438199
105.947804,4663.297435,7105.977043,459.657299
105.948125,5329.482782,8142.265362,1915.238745
105.948445,5699.585753,8956.491898,1455.581446
105.948766,5255.462188,8808.450710,842.705048
105.949087,4959.379811,7698.141797,-1455.581446
105.949408,4959.379811,7994.224174,-2451.505594
105.949728,4885.359217,8512.368333,-1685.410096
105.950049,5107.421000,8734.430116,-842.705048
105.950370,5033.400406,8956.491898,-306.438199
105.950690,4219.173869,8586.388927,459.657299
105.951011,4071.132681,8364.327145,919.314598
105.951332,4663.297435,7698.141797,1225.752797
105.951652,4737.318029,7846.182985,766.095498
105.951973,4219.173869,7254.018232,0.000000
105.952294,4071.132681,6291.750507,-1149.143247
105.952615,4367.215058,6587.832884,-1072.533697
105.952935,5255.462188,8142.265362,-306.438199
105.953256,5699.585753,9844.739029,229.828649
105.953577,5773.606348,10510.924376,-1378.971896
105.953897,5107.421000,8882.471304,-919.314598
105.954218,5403.503377,7476.080014,306.438199
105.954539,6069.688724,7550.100608,1378.971896
105.954859,4293.194464,7920.203579,383.047749
105.955180,3330.926739,7402.059420,-1378.971896
105.955501,3552.988522,7328.038826,-1685.410096
105.955821,4515.256246,6735.874072,0.000000
105.956142,5107.421000,7772.162391,919.314598
105.956463,4737.318029,9474.636058,919.314598
105.956784,3627.009116,10510.924376,-612.876398
105.957104,3627.009116,9474.636058,-383.047749
105.957425,5107.421000,9104.533087,995.924147
105.957746,5181.441594,8660.409521,1302.362347
105.958066,3775.050304,9252.574275,766.095498
105.958387,2664.741391,8956.491898,229.828649
105.958708,2368.659014,8216.285956,-459.657299
105.959028,3478.967927,6957.935855,-383.047749
105.959349,4959.379811,6513.812290,-612.876398
105.959670,4885.359217,7994.224174,-766.095498
105.959991,4737.318029,8882.471304,153.219100
105.960311,5551.544565,9548.656652,1149.143247
105.960632,6661.853478,8512.368333,1532.190996
105.960953,6957.935855,7698.141797,842.705048
105.961273,5995.668130,7550.100608,0.000000
105.961594,5847.626942,7254.018232,-1991.848295
105.961915,5107.421000,7105.977043,-3140.991542
105.962235,6365.771101,6957.935855,-2451.505594
105.962556,7328.038826,7179.997637,-383.047749
105.962877,6069.688724,8364.327145,383.047749
105.963197,4885.359217,8734.430116,1149.143247
105.963518,4811.338623,8364.327145,612.876398
105.963839,5995.668130,7105.977043,153.219100
105.964160,4959.379811,5551.544565,0.000000
105.964480,4663.297435,4737.318029,612.876398
105.964801,4663.297435,6365.771101,-536.266849
105.965122,4811.338623,8660.409521,-1455.581446
105.965442,4885.359217,9844.739029,-1532.190996
105.965763,6069.688724,10288.862594,-1762.019645
105.966084,4811.338623,9918.759623,-1455.581446
105.966404,4367.215058,9178.553681,306.438199
105.966725,4441.235652,8438.347739,1685.410096
105.967046,4367.215058,7254.018232,1378.971896
105.967367,3404.947333,6809.894666,153.219100
105.967687,3330.926739,7402.059420,-1302.362347
105.968008,3108.864956,7624.121203,-1302.362347
105.968329,4515.256246,8364.327145,-383.047749
105.968649,6365.771101,9696.697840,1225.752797
105.968970,6661.853478,9548.656652,995.924147
105.969291,5477.523971,8882.471304,153.219100
105.969611,4885.359217,7920.203579,0.000000
105.969932,5033.400406,8586.388927,306.438199
105.970253,4663.297435,9474.636058,229.828649
105.970573,4441.235652,9104.533087,-995.924147
105.970894,4737.318029,7920.203579,-2145.067394
105.971215,4515.256246,7624.121203,-1378.971896
105.971536,4515.256246,7254.018232,-153.219100
105.971856,4367.215058,7772.162391,-459.657299
105.972177,3775.050304,8364.327145,-1225.752797
105.972498,3849.070898,8438.347739,0.000000
105.972818,5329.482782,8882.471304,1685.410096
105.973139,6217.729913,9104.533087,1685.410096
105.973460,5181.441594,8734.430116,459.657299
105.973780,4071.132681,8586.388927,-1378.971896
105.974101,4145.153275,7772.162391,-2757.943793
105.974422,4885.359217,7550.100608,-2068.457845
105.974743,5995.668130,7846.182985,0.000000
105.975063,6069.688724,8512.368333,689.485948
105.975384,5181.441594,9030.512492,612.876398
105.975705,5033.400406,8216.285956,612.876398
105.976025,5699.585753,7254.018232,1532.190996
105.976346,5921.647536,6439.791695,1378.971896
105.976667,5033.400406,5403.503377,919.314598
105.976987,4737.318029,5107.421000,-76.609550
105.977308,5181.441594,6735.874072,-1378.971896
105.977629,6365.771101,7994.224174,-1225.752797
105.977949,7031.956449,8956.491898,-919.314598
105.978270,6957.935855,9326.594869,-842.705048
105.978591,6143.709319,9326.594869,0.000000
105.978912,5107.421000,8216.285956,229.828649
105.979232,4959.379811,7254.018232,383.047749
105.979553,4737.318029,6439.791695,-153.219100
105.979874,4145.153275,5995.668130,-766.095498
105.980194,4071.132681,6513.812290,-1225.752797
105.980515,5033.400406,7402.059420,-919.314598
105.980836,5181.441594,8956.491898,0.000000
105.981156,5551.544565,9474.636058,383.047749
105.981477,4737.318029,9030.512492,995.924147
105.981798,4811.338623,8586.388927,536.266849
105.982119,5255.462188,8364.327145,1149.143247
105.982439,5403.503377,9104.533087,612.876398
105.982760,4219.173869,8956.491898,-153.219100
105.983081,3478.967927,7920.203579,-995.924147
105.983401,4219.173869,7402.059420,-1149.143247
105.983722,4515.256246,7105.977043,-153.219100
105.984043,5107.421000,8438.347739,0.000000
105.984363,4589.276840,8512.368333,-229.828649
105.984684,4219.173869,8438.347739,-536.266849
105.985005,5033.400406,7920.203579,995.924147
105.985325,5477.523971,8142.265362,2068.457845
105.985646,5107.421000,8734.430116,766.095498
105.985967,4737.318029,8956.491898,-1072.533697
105.986288,3997.112087,8660.409521,-2451.505594
105.986608,4885.359217,7920.203579,-1838.629195
105.986929,6661.853478,7994.224174,-383.047749
105.987250,6217.729913,7920.203579,-229.828649
105.987570,4145.153275,8512.368333,-536.266849
105.987891,3849.070898,8956.491898,-229.828649
105.988212,4959.379811,9030.512492,536.266849
105.988532,5181.441594,7476.080014,689.485948
105.988853,5921.647536,6661.853478,689.485948
105.989174,4441.235652,6365.771101,-459.657299
105.989495,3627.009116,7105.977043,-1838.629195
105.989815,4811.338623,8808.450710,-1225.752797
105.990136,6439.791695,9844.739029,-612.876398
105.990457,6365.771101,9622.677246,-229.828649
105.990777,6217.729913,9400.615463,153.219100
105.991098,5107.421000,8290.306550,612.876398
105.991419,4811.338623,7402.059420,1225.752797
105.991739,5107.421000,6735.874072,1685.410096
105.992060,4219.173869,6069.688724,919.314598
105.992381,3923.091493,5995.668130,-766.095498
105.992701,4737.318029,6217.729913,-1072.533697
105.993022,5847.626942,7402.059420,-612.876398
105.993343,5995.668130,8882.471304,0.000000
105.993664,5847.626942,9252.574275,-306.438199
105.993984,5995.668130,8512.368333,-689.485948
105.994305,5995.668130,8512.368333,689.485948
105.994626,6143.709319,9178.553681,1455.581446
105.994946,5107.421000,9104.533087,536.266849
105.995267,4145.153275,8216.285956,-612.876398
105.995588,4663.297435,7476.080014,-1302.362347
105.995908,5551.544565,6439.791695,-1072.533697
105.996229,5921.647536,6365.771101,-459.657299
105.996550,5477.523971,6809.894666,0.000000
105.996871,4441.235652,6809.894666,0.000000
105.997191,4811.338623,7105.977043,459.657299
105.997512,6365.771101,7105.977043,1532.190996
105.997833,6809.894666,8364.327145,1838.629195
105.998153,5477.523971,9104.533087,76.609550
105.998474,4367.215058,8586.388927,-1991.848295
105.998795,4515.256246,7994.224174,-2528.115143
105.999115,5403.503377,8216.285956,-995.924147
105.999436,5995.668130,8216.285956,229.828649
105.999757,5181.441594,8364.327145,0.000000
106.000077,3627.009116,9400.615463,153.219100
106.000398,3627.009116,9104.533087,383.047749
106.000719,4293.194464,8216.285956,1608.800546
106.001040,4663.297435,7254.018232,1149.143247
106.001360,3404.947333,6883.915261,0.000000
106.001681,3182.885551,6587.832884,-1302.362347
106.002002,4441.235652,7550.100608,-766.095498
106.002322,4959.379811,8882.471304,0.000000
106.002643,5329.482782,9548.656652,0.000000
106.002964,5477.523971,10066.800811,-612.876398
106.003284,4885.359217,9918.759623,-919.314598
106.003605,4737.318029,8660.409521,536.266849
106.003926,5625.565159,7105.977043,1455.581446
106.004247,5403.503377,7031.956449,0.000000
106.004567,3923.091493,6587.832884,-1762.019645
106.004888,4515.256246,7031.956449,-1991.848295
106.005209,5773.606348,7846.182985,-1302.362347
106.005529,6439.791695,8586.388927,-229.828649
106.005850,6217.729913,8734.430116,-153.219100
106.006171,5773.606348,8438.347739,-536.266849
106.006491,6291.750507,8734.430116,-76.609550
106.006812,5921.647536,8956.491898,1072.533697
106.007133,5847.626942,8808.450710,689.485948
106.007453,4811.338623,8364.327145,-229.828649
106.007774,4071.132681,7550.100608,-306.438199
106.008095,3923.091493,6957.935855,-612.876398
106.008416,4737.318029,7031.956449,0.000000
106.008736,5107.421000,7846.182985,-766.095498
106.009057,4589.276840,8438.347739,-536.266849
106.009378,4219.173869,8290.306550,-76.609550
106.009698,5181.441594,8364.327145,1532.190996
106.010019,5255.462188,8364.327145,1838.629195
106.010340,4811.338623,8364.327145,1072.533697
106.010660,3997.112087,8438.347739,-1149.143247
106.010981,4145.153275,8438.347739,-2221.676944
106.011302,4663.297435,8512.368333,-2145.067394
106.011623,5995.668130,8734.430116,-1225.752797
106.011943,6217.729913,8512.368333,-383.047749
106.012264,4811.338623,8512.368333,229.828649
106.012585,4515.256246,8956.491898,842.705048
106.012905,4737.318029,7550.100608,919.314598
106.013226,4589.276840,6661.853478,995.924147
106.013547,4737.318029,6143.709319,689.485948
106.013867,3997.112087,5773.606348,0.000000
106.014188,4737.318029,7105.977043,-1072.533697
106.014509,5033.400406,8586.388927,-1072.533697
106.014829,5921.647536,9696.697840,-919.314598
106.015150,6439.791695,9992.780217,-766.095498
106.015471,5699.585753,9104.533087,0.000000
106.015792,5181.441594,7772.162391,842.705048
106.016112,5181.441594,7328.038826,1532.190996
106.016433,5033.400406,7105.977043,1378.971896
106.016754,4145.153275,7105.977043,-383.047749
106.017074,3997.112087,7179.997637,-1838.629195
106.017395,4885.359217,7476.080014,-1685.410096
106.017716,5773.606348,7550.100608,-689.485948
106.018036,5921.647536,8586.388927,459.657299
106.018357,4811.338623,8882.471304,153.219100
106.018678,4515.256246,8882.471304,1149.143247
106.018999,4737.318029,8882.471304,1608.800546
106.019319,5477.523971,9326.594869,842.705048
106.019640,4589.276840,9326.594869,229.828649
106.019961,3701.029710,8808.450710,-459.657299
106.020281,3552.988522,7846.182985,-1302.362347
106.020602,4515.256246,6809.894666,-689.485948
106.020923,5477.523971,6439.791695,0.000000
106.021243,4737.318029,7179.997637,229.828649
106.021564,4071.132681,7179.997637,306.438199
106.021885,4959.379811,7402.059420,612.876398
106.022205,6661.853478,7994.224174,1378.971896
106.022526,6809.894666,8290.306550,995.924147
106.022847,6217.729913,8142.265362,-689.485948
106.023168,5551.544565,7550.100608,-2757.943793
106.023488,5699.585753,7698.141797,-2757.943793
106.023809,6513.812290,7994.224174,-1455.581446
106.024130,7105.977043,8512.368333,-536.266849
106.024450,6365.771101,8290.306550,-536.266849
106.024771,4589.276840,8438.347739,0.000000
106.025092,4737.318029,8068.244768,1149.143247
106.025412,4811.338623,7846.182985,1072.533697
106.025733,4071.132681,7031.956449,612.876398
106.026054,3775.050304,6291.750507,-229.828649
106.026375,3849.070898,6809.894666,-306.438199
106.026695,3627.009116,7994.224174,-689.485948
106.027016,4737.318029,9252.574275,-229.828649
106.027337,5329.482782,10362.883188,0.000000
106.027657,4663.297435,10510.924376,-459.657299
106.027978,4589.276840,9696.697840,76.609550
106.028299,4885.359217,8882.471304,842.705048
106.028619,4367.215058,8290.306550,995.924147
106.028940,3627.009116,7550.100608,76.609550
106.029261,2886.803174,7328.038826,-1225.752797
106.029581,3627.009116,7550.100608,-1685.410096
106.029902,5181.441594,8216.285956,-459.657299
106.030223,5403.503377,9326.594869,0.000000
106.030544,4441.235652,9548.656652,-459.657299
106.030864,3701.029710,9474.636058,0.000000
106.031185,5107.421000,9326.594869,689.485948
106.031506,4885.359217,9400.615463,2145.067394
106.031826,4737.318029,9696.697840,919.314598
106.032147,3330.926739,9178.553681,-612.876398
106.032468,3182.885551,8660.409521,-1532.190996
106.032788,3849.070898,7550.100608,-919.314598
106.033109,4737.318029,7105.977043,-766.095498
106.033430,5551.544565,7254.018232,-919.314598
106.033751,5255.462188,7772.162391,-612.876398
106.034071,4515.256246,7846.182985,153.219100
106.034392,4811.338623,8142.265362,919.314598
106.034713,5699.585753,8364.327145,1378.971896
106.035033,4811.338623,8142.265362,995.924147
106.035354,4589.276840,7994.224174,-766.095498
106.035675,4589.276840,7254.018232,-1608.800546
106.035995,4737.318029,7846.182985,-1608.800546
106.036316,5625.565159,8956.491898,-1225.752797
106.036637,5847.626942,9474.636058,-689.485948
106.036957,5181.441594,8660.409521,76.609550
106.037278,4959.379811,7402.059420,1455.581446
106.037599,5477.523971,5995.668130,2374.896044
106.037920,5033.400406,5625.565159,1762.019645
106.038240,3552.988522,5255.462188,0.000000
106.038561,4145.153275,5403.503377,-1378.971896
106.038882,6143.709319,5625.565159,-1378.971896
106.039202,7254.018232,6809.894666,-766.095498
106.039523,7772.162391,8586.388927,-459.657299
106.039844,6957.935855,9548.656652,-766.095498
106.040164,6143.709319,9104.533087,-1149.143247
106.040485,7105.977043,8290.306550,0.000000
106.040806,7031.956449,7031.956449,306.438199
106.041127,6217.729913,6735.874072,-383.047749
106.041447,4737.318029,7476.080014,-1225.752797
106.041768,4589.276840,7846.182985,-1915.238745
106.042089,5181.441594,7328.038826,-2681.334243
106.042409,5995.668130,7179.997637,-842.705048
106.042730,5921.647536,7772.162391,0.000000
106.043051,3997.112087,8660.409521,536.266849
106.043371,3552.988522,9474.636058,1838.629195
106.043692,4441.235652,9474.636058,1838.629195
106.044013,4367.215058,9918.759623,1072.533697
106.044334,3552.988522,10214.842000,76.609550
106.044654,3256.906145,10066.800811,-612.876398
106.044975,2664.741391,9400.615463,-842.705048
106.045296,3627.009116,7920.203579,-766.095498
106.045616,4663.297435,8068.244768,0.000000
106.045937,3701.029710,8586.388927,76.609550
106.046258,2960.823768,9252.574275,229.828649
106.046578,4737.318029,9548.656652,1225.752797
106.046899,5403.503377,9622.677246,1225.752797
106.047220,5477.523971,8808.450710,1455.581446
106.047541,4959.379811,7402.059420,-842.705048
106.047861,4737.318029,7328.038826,-2298.286494
106.048182,4885.359217,8142.265362,-1762.019645
106.048503,5773.606348,8882.471304,-1378.971896
106.048823,6365.771101,9696.697840,-1838.629195
106.049144,5403.503377,10066.800811,-995.924147
106.049465,4589.276840,9992.780217,612.876398
106.049785,4367.215058,9030.512492,1685.410096
106.050106,4145.153275,7328.038826,1455.581446
106.050427,3108.864956,5921.647536,459.657299
106.050748,2738.761985,4811.338623,-1149.143247
106.051068,3256.906145,6217.729913,-842.705048
106.051389,4441.235652,8216.285956,-459.657299
106.051710,5107.421000,9474.636058,459.657299
106.052030,5477.523971,9548.656652,612.876398
106.052351,5329.482782,8586.388927,153.219100
106.052672,4959.379811,7772.162391,459.657299
106.052992,5995.668130,7624.121203,459.657299
106.053313,5477.523971,7328.038826,766.095498
106.053634,5107.421000,6365.771101,0.000000
106.053955,5255.462188,6217.729913,-766.095498
106.054275,5477.523971,6809.894666,-919.314598
106.054596,6513.812290,7254.018232,-1225.752797
106.054917,6513.812290,7920.203579,-1072.533697
106.055237,5773.606348,7402.059420,-919.314598
106.055558,5847.626942,6587.832884,0.000000
106.055879,7105.977043,7105.977043,1608.800546
106.056199,7105.977043,8142.265362,1532.190996
106.056520,5403.503377,9400.615463,0.000000
106.056841,4737.318029,8808.450710,-1762.019645
106.057162,4885.359217,7105.977043,-1838.629195
106.057482,5921.647536,5995.668130,-383.047749
106.057803,6217.729913,5773.606348,306.438199
106.058124,5255.462188,7550.100608,-306.438199
106.058444,4071.132681,7772.162391,-919.314598
106.058765,4737.318029,8290.306550,-689.485948
106.059086,6069.688724,8216.285956,1149.143247
106.059406,6439.791695,8438.347739,1455.581446
106.059727,5995.668130,8216.285956,842.705048
106.060048,4811.338623,8068.244768,-995.924147
106.060369,4737.318029,7698.141797,-1302.362347
106.060689,5699.585753,8216.285956,-689.485948
106.061010,5921.647536,9770.718434,-919.314598
106.061331,4589.276840,10881.027347,-1149.143247
106.061651,4515.256246,10732.986159,-306.438199
106.061972,4737.318029,9400.615463,995.924147
106.062293,4885.359217,8290.306550,1762.019645
106.062614,3552.988522,7031.956449,1838.629195
106.062934,2220.617826,7105.977043,842.705048
106.063255,1850.514855,6957.935855,-766.095498
106.063576,3997.112087,7994.224174,-766.095498
106.063896,5699.585753,8882.471304,0.000000
106.064217,5477.523971,10066.800811,-766.095498
106.064538,4737.318029,10510.924376,-459.657299
106.064858,4219.173869,10362.883188,-383.047749
106.065179,4737.318029,8882.471304,306.438199
106.065500,5107.421000,7994.224174,536.266849
106.065821,4293.194464,7920.203579,-383.047749
106.066141,3182.885551,8068.244768,-1378.971896
106.066462,3256.906145,8364.327145,-2068.457845
106.066783,4663.297435,8290.306550,-1915.238745
106.067103,5625.565159,8216.285956,-383.047749
106.067424,5551.544565,7994.224174,536.266849
106.067745,4071.132681,7624.121203,919.314598
106.068065,3997.112087,7105.977043,1225.752797
106.068386,5477.523971,7920.203579,1991.848295
106.068707,6069.688724,8068.244768,1225.752797
106.069028,5329.482782,7550.100608,-459.657299
106.069348,5255.462188,7624.121203,-1302.362347
106.069669,5181.441594,7550.100608,-1608.800546
106.069990,5329.482782,6957.935855,-919.314598
106.070310,6217.729913,6735.874072,-306.438199
106.070631,6069.688724,6587.832884,-306.438199
106.070952,5329.482782,6957.935855,-536.266849
106.071272,5995.668130,6735.874072,459.657299
106.071593,6661.853478,7476.080014,1532.190996
106.071914,6291.750507,7920.203579,995.924147
106.072235,5551.544565,7550.100608,-383.047749
106.072555,5477.523971,6513.812290,-2068.457845
106.072876,6291.750507,7031.956449,-1532.190996
106.073197,6883.915261,8216.285956,-76.609550
106.073517,6365.771101,9030.512492,-383.047749
106.073838,5255.462188,8734.430116,-842.705048
106.074159,5255.462188,8734.430116,536.266849
106.074479,5181.441594,8290.306550,1991.848295
106.074800,4959.379811,7179.997637,2451.505594
106.075121,4145.153275,6735.874072,995.924147
106.075442,2886.803174,6439.791695,-919.314598
106.075762,4145.153275,6217.729913,-1532.190996
106.076083,5995.668130,7179.997637,76.609550
106.076404,5921.647536,8142.265362,229.828649
106.076724,5699.585753,9326.594869,-229.828649
106.077045,5551.544565,9844.739029,-153.219100
106.077366,5255.462188,9474.636058,-459.657299
106.077686,6439.791695,9400.615463,536.266849
106.078007,6513.812290,8734.430116,383.047749
106.078328,5033.400406,8216.285956,-766.095498
106.078649,3923.091493,7698.141797,-1915.238745
106.078969,4367.215058,7328.038826,-1685.410096
106.079290,4959.379811,7550.100608,-1225.752797
106.079611,4441.235652,8142.265362,306.438199
106.079931,4367.215058,8586.388927,76.609550
106.080252,4441.235652,8364.327145,842.705048
106.080573,4663.297435,8586.388927,1915.238745
106.080894,4737.318029,9178.553681,2374.896044
106.081214,3997.112087,8734.430116,76.609550
106.081535,3330.926739,8438.347739,-1608.800546
106.081856,3627.009116,8364.327145,-2221.676944
106.082176,4589.276840,8216.285956,-1149.143247
106.082497,5699.585753,8586.388927,-383.047749
106.082818,4663.297435,8364.327145,-459.657299
106.083138,3775.050304,8290.306550,-612.876398
106.083459,4367.215058,8512.368333,229.828649
106.083780,5699.585753,7624.121203,1302.362347
106.084101,5477.523971,7624.121203,1149.143247
106.084421,5625.565159,7550.100608,76.609550
106.084742,4737.318029,7105.977043,-1608.800546
106.085063,5033.400406,7179.997637,-1685.410096
106.085383,6143.709319,8142.265362,-1072.533697
106.085704,6735.874072,9104.533087,-383.047749
106.086025,5773.606348,9474.636058,-689.485948
106.086345,5107.421000,8660.409521,-76.609550
106.086666,5107.421000,8068.244768,1685.410096
106.086987,5477.523971,7328.038826,1762.019645
106.087308,4737.318029,6735.874072,766.095498
106.087628,3849.070898,6365.771101,-919.314598
106.087949,4071.132681,6217.729913,-1225.752797
106.088270,5107.421000,7105.977043,-1072.533697
106.088590,5995.668130,8068.244768,0.000000
106.088911,6069.688724,9030.512492,-306.438199
106.089232,5329.482782,9548.656652,-229.828649
106.089552,5551.544565,9400.615463,76.609550
106.089873,5847.626942,8882.471304,995.924147
106.090194,5699.585753,8586.388927,842.705048
106.090515,4737.318029,7772.162391,0.000000
106.090835,4219.173869,7031.956449,-612.876398
106.091156,4367.215058,7254.018232,-995.924147
106.091477,4959.379811,7476.080014,-459.657299
106.091797,4885.359217,7476.080014,0.000000
106.092118,4441.235652,7328.038826,0.000000
106.092439,3923.091493,7402.059420,766.095498
106.092759,4959.379811,8586.388927,1915.238745
106.093080,5699.585753,8882.471304,1685.410096
106.093401,5551.544565,9104.533087,229.828649
106.093722,5033.400406,8734.430116,-1455.581446
106.094042,4737.318029,8142.265362,-2068.457845
106.094363,4959.379811,8216.285956,-1685.410096
106.094684,5625.565159,8142.265362,-1149.143247
106.095004,5551.544565,7772.162391,-689.485948
106.095325,4811.338623,8364.327145,0.000000
106.095646,4071.132681,8734.430116,459.657299
106.095966,4293.194464,7994.224174,919.314598
106.096287,4811.338623,7031.956449,1455.581446
106.096608,4737.318029,6809.894666,766.095498
106.096929,3849.070898,6439.791695,-842.705048
106.097249,4589.276840,7476.080014,-1685.410096
106.097570,5773.606348,7994.224174,-1302.362347
106.097891,6291.750507,9104.533087,-995.924147
106.098211,6513.812290,9844.739029,-383.047749
106.098532,5107.421000,9696.697840,-383.047749
106.098853,4959.379811,9030.512492,0.000000
106.099173,5699.585753,8142.265362,766.095498
106.099494,4959.379811,7105.977043,536.266849
106.099815,3923.091493,6957.935855,-766.095498
106.100136,3478.967927,6735.874072,-1302.362347
106.100456,4441.235652,6587.832884,-1149.143247
106.100777,5699.585753,7476.080014,0.000000
106.101098,5255.462188,8364.327145,612.876398
106.101418,5033.400406,8808.450710,-153.219100
106.101739,5033.400406,8290.306550,-612.876398
106.102060,5329.482782,8660.409521,0.000000
106.102381,6439.791695,9400.615463,919.314598
106.102701,5625.565159,9474.636058,306.438199
106.103022,4589.276840,8660.409521,-1378.971896
106.103343,3701.029710,7476.080014,-2068.457845
106.103663,4737.318029,7105.977043,-1608.800546
106.103984,5181.441594,7624.121203,-919.314598
106.104305,4589.276840,7772.162391,-612.876398
106.104625,4145.153275,7920.203579,-1072.533697
106.104946,4737.318029,8142.265362,153.219100
106.105267,4811.338623,8882.471304,1455.581446
106.105588,5181.441594,9400.615463,2374.896044
106.105908,4885.359217,8882.471304,459.657299
106.106229,4071.132681,7846.182985,-1378.971896
106.106550,4663.297435,7624.121203,-1532.190996
106.106870,5921.647536,7624.121203,-995.924147
106.107191,6291.750507,8438.347739,-383.047749
106.107512,5255.462188,8734.430116,-842.705048
106.107832,4515.256246,8808.450710,-536.266849
106.108153,4737.318029,8068.244768,612.876398
106.108474,5181.441594,7402.059420,2068.457845
106.108795,4515.256246,7254.018232,1838.629195
106.109115,4441.235652,6883.915261,536.266849
106.109436,3775.050304,6735.874072,-1149.143247
106.109757,4293.194464,7402.059420,-1532.190996
106.110077,6365.771101,8882.471304,-1225.752797
106.110398,5773.606348,9474.636058,-766.095498
106.110719,5181.441594,9548.656652,-612.876398
106.111039,5255.462188,10066.800811,459.657299
106.111360,4959.379811,9252.574275,1455.581446
106.111681,4367.215058,7550.100608,1762.019645
106.112002,3849.070898,6365.771101,612.876398
106.112322,2960.823768,6069.688724,-612.876398
106.112643,3256.906145,6291.750507,-1378.971896
106.112964,5625.565159,7105.977043,-919.314598
106.113284,6217.729913,7994.224174,-842.705048
106.113605,5773.606348,8586.388927,0.000000
106.113926,5477.523971,8660.409521,306.438199
106.114246,5255.462188,8290.306550,919.314598
106.114567,5625.565159,8808.450710,1455.581446
106.114888,5255.462188,9104.533087,1072.533697
106.115209,4737.318029,8734.430116,-1149.143247
106.115529,4663.297435,8068.244768,-1838.629195
106.115850,4515.256246,7698.141797,-1455.581446
106.116171,4885.359217,7105.977043,-842.705048
106.116491,4885.359217,6809.894666,-153.219100
106.116812,4293.194464,6957.935855,0.000000
106.117133,3997.112087,6957.935855,536.266849
106.117453,4811.338623,7105.977043,1762.019645
106.117774,5921.647536,8660.409521,1762.019645
106.118095,5551.544565,9548.656652,383.047749
106.118416,4737.318029,8882.471304,-842.705048
106.118736,5107.421000,7698.141797,-2145.067394
106.119057,5477.523971,7179.997637,-1455.581446
106.119378,6069.688724,7846.182985,-842.705048
106.119698,5625.565159,8808.450710,-995.924147
106.120019,4737.318029,8882.471304,-1378.971896
106.120340,4811.338623,8734.430116,0.000000
106.120661,5625.565159,8142.265362,1608.800546
106.120981,5551.544565,7328.038826,1532.190996
106.121302,4663.297435,7031.956449,383.047749
106.121623,4145.153275,6661.853478,-842.705048
106.121943,4367.215058,7105.977043,-1455.581446
106.122264,5255.462188,7772.162391,-1072.533697
106.122585,6439.791695,9400.615463,0.000000
106.122905,5921.647536,10732.986159,0.000000
106.123226,4959.379811,10881.027347,-229.828649
106.123547,4737.318029,10066.800811,0.000000
106.123868,4663.297435,8808.450710,1149.143247
106.124188,4441.235652,7698.141797,1378.971896
106.124509,3182.885551,7402.059420,689.485948
106.124830,2960.823768,7846.182985,-1455.581446
106.125150,3997.112087,7772.162391,-1685.410096
106.125471,4959.379811,8364.327145,-1302.362347
106.125792,5181.441594,8290.306550,0.000000
106.126112,4885.359217,8216.285956,766.095498
106.126433,4663.297435,8216.285956,919.314598
106.126754,5181.441594,9030.512492,1608.800546
106.127075,4959.379811,9474.636058,1302.362347
106.127395,4071.132681,8956.491898,-536.266849
106.127716,4219.173869,8068.244768,-1532.190996
106.128037,5181.441594,7772.162391,-1455.581446
106.128357,6365.771101,7179.997637,-995.924147
106.128678,6217.729913,7179.997637,-1149.143247
106.128999,5181.441594,7105.977043,-766.095498
106.129319,4885.359217,6661.853478,-229.828649
106.129640,5995.668130,6365.771101,842.705048
106.129961,6809.894666,7179.997637,1685.410096
106.130282,6069.688724,7254.018232,1149.143247
106.130602,4737.318029,7328.038826,-842.705048
106.130923,4885.359217,7179.997637,-1455.581446
106.131244,5625.565159,7402.059420,-459.657299
106.131564,6661.853478,8142.265362,-919.314598
106.131885,6365.771101,8586.388927,-1225.752797
106.132206,5181.441594,8956.491898,-1762.019645
106.132526,4885.359217,8216.285956,76.609550
106.132847,5921.647536,7179.997637,1838.629195
106.133168,5921.647536,5699.585753,2911.162892
106.133489,4441.235652,5403.503377,689.485948
106.133809,3182.885551,5995.668130,-1225.752797
106.134130,3997.112087,7402.059420,-1532.190996
106.134451,5255.462188,7846.182985,-995.924147
106.134771,6735.874072,8438.347739,-612.876398
106.135092,6957.935855,9474.636058,-459.657299
106.135413,4811.338623,9992.780217,-1302.362347
106.135733,4145.153275,10214.842000,-612.876398
106.136054,4589.276840,9400.615463,689.485948
106.136375,4737.318029,8734.430116,1762.019645
106.136696,4737.318029,7994.224174,1225.752797
106.137016,4071.132681,8068.244768,-459.657299
106.137337,3701.029710,7698.141797,-2451.505594
106.137658,3997.112087,7550.100608,-1532.190996
106.137978,4515.256246,7550.100608,-766.095498
106.138299,4737.318029,7105.977043,0.000000
106.138620,4663.297435,7328.038826,536.266849
106.138940,4959.379811,9104.533087,536.266849
106.139261,5477.523971,10732.986159,766.095498
106.139582,4811.338623,11251.130318,0.000000
106.139903,4663.297435,9918.759623,-1225.752797
106.140223,4441.235652,8586.388927,-1455.581446
106.140544,4737.318029,8512.368333,-1455.581446
106.140865,4737.318029,8956.491898,-919.314598
106.141185,4515.256246,8734.430116,-612.876398
106.141506,3849.070898,8142.265362,-766.095498
106.141827,4293.194464,7476.080014,459.657299
106.142148,4737.318029,7179.997637,1455.581446
106.142468,4737.318029,8142.265362,2068.457845
106.142789,4071.132681,8142.265362,1225.752797
106.143110,3701.029710,7772.162391,-383.047749
106.143430,4441.235652,7254.018232,-1532.190996
106.143751,5699.585753,7624.121203,-1455.581446
106.144072,6513.812290,9030.512492,-1149.143247
106.144392,6365.771101,10140.821405,-842.705048
106.144713,5181.441594,9770.718434,-995.924147
106.145034,4811.338623,8068.244768,76.609550
106.145355,5625.565159,6661.853478,1608.800546
106.145675,5477.523971,5625.565159,2068.457845
106.145996,4737.318029,6069.688724,-229.828649
106.146317,3923.091493,5847.626942,-1685.410096
106.146637,5107.421000,6143.709319,-2221.676944
106.146958,6217.729913,7105.977043,-842.705048
106.147279,7031.956449,7698.141797,612.876398
106.147599,6587.832884,8808.450710,153.219100
106.147920,5847.626942,9030.512492,-689.485948
106.148241,5699.585753,8734.430116,0.000000
106.148562,6217.729913,8586.388927,459.657299
106.148882,5847.626942,7920.203579,1149.143247
106.149203,5773.606348,7328.038826,689.485948
106.149524,5107.421000,7105.977043,-536.266849
106.149844,5107.421000,6365.771101,-1532.190996
106.150165,5107.421000,6661.853478,-1225.752797
106.150486,4737.318029,6809.894666,-536.266849
106.150806,4811.338623,6661.853478,383.047749
106.151127,5551.544565,7031.956449,1378.971896
106.151448,6143.709319,8438.347739,2145.067394
106.151769,5551.544565,9992.780217,995.924147
106.152089,4589.276840,10066.800811,-383.047749
106.152410,4367.215058,9918.759623,-1225.752797
106.152731,4737.318029,8512.368333,-1302.362347
106.153051,5551.544565,8142.265362,-766.095498
106.153372,5477.523971,7772.162391,-1072.533697
106.153693,3849.070898,7920.203579,-842.705048
106.154013,2812.782580,8660.409521,383.047749
106.154334,3849.070898,8882.471304,1608.800546
106.154655,4589.276840,8882.471304,2298.286494
106.154976,4441.235652,8956.491898,1149.143247
106.155296,3552.988522,8512.368333,-229.828649
106.155617,3182.885551,7920.203579,-1378.971896
106.155938,3997.112087,7994.224174,-689.485948
106.156258,5255.462188,8586.388927,153.219100
106.156579,5625.565159,9770.718434,-306.438199
106.156900,4959.379811,10807.006753,-995.924147
106.157221,4071.132681,9844.739029,-919.314598
106.157541,4885.359217,7994.224174,995.924147
106.157862,5477.523971,6957.935855,1991.848295
106.158183,4515.256246,5773.606348,689.485948
106.158503,3775.050304,5699.585753,-1072.533697
106.158824,4441.235652,6883.915261,-1915.238745
106.159145,5995.668130,7698.141797,-995.924147
106.159465,6217.729913,8882.471304,0.000000
106.159786,6587.832884,9252.574275,-612.876398
106.160107,5625.565159,8882.471304,-306.438199
106.160428,5551.544565,8660.409521,0.000000
106.160748,5477.523971,8216.285956,1149.143247
106.161069,4737.318029,7698.141797,306.438199
106.161390,4219.173869,7179.997637,-766.095498
106.161710,4219.173869,7328.038826,-1149.143247
106.162031,4811.338623,7328.038826,-1149.143247
106.162352,5625.565159,7105.977043,-766.095498
106.162672,5403.503377,7179.997637,-536.266849
106.162993,4959.379811,6661.853478,-153.219100
106.163314,5255.462188,6513.812290,689.485948
106.163635,6365.771101,6883.915261,1532.190996
106.163955,6439.791695,7846.182985,842.705048
106.164276,6291.750507,8734.430116,-612.876398
106.164597,5773.606348,8586.388927,-1378.971896
106.164917,5847.626942,8142.265362,-1915.238745
106.165238,7105.977043,8290.306550,-1685.410096
106.165559,7105.977043,8290.306550,-1378.971896
106.165879,5329.482782,7550.100608,-766.095498
106.166200,4219.173869,7550.100608,76.609550
106.166521,4811.338623,7698.141797,1532.190996
106.166842,4811.338623,7550.100608,2221.676944
106.167162,4589.276840,7179.997637,1072.533697
106.167483,4441.235652,6957.935855,0.000000
106.167804,3330.926739,7624.121203,-1302.362347
106.168124,4145.153275,7698.141797,-842.705048
106.168445,5625.565159,8586.388927,-306.438199
106.168766,6513.812290,9844.739029,-383.047749
106.169086,5403.503377,10510.924376,-383.047749
106.169407,4145.153275,9326.594869,-459.657299
106.169728,4441.235652,8956.491898,536.266849
106.170049,5255.462188,7920.203579,1762.019645
106.170369,3849.070898,7550.100608,459.657299
106.170690,3849.070898,7328.038826,-1455.581446
106.171011,3849.070898,7105.977043,-2221.676944
106.171331,4441.235652,7698.141797,-612.876398
106.171652,5625.565159,8808.450710,306.438199
106.171973,4811.338623,9696.697840,306.438199
106.172294,4293.194464,9918.759623,-459.657299
106.172614,4737.318029,9104.533087,383.047749
106.172935,4737.318029,8512.368333,1302.362347
106.173256,4737.318029,8882.471304,995.924147
106.173576,3775.050304,8956.491898,0.000000
106.173897,3256.906145,8808.450710,-919.314598
106.174218,3701.029710,8364.327145,-1149.143247
106.174538,4589.276840,7105.977043,-842.705048
106.174859,5847.626942,6809.894666,0.000000
106.175180,5181.441594,7031.956449,229.828649
106.175501,4515.256246,6957.935855,612.876398
106.175821,5181.441594,6883.915261,459.657299
106.176142,5995.668130,7328.038826,383.047749
106.176463,6439.791695,9104.533087,229.828649
106.176783,5403.503377,9104.533087,-612.876398
106.177104,4811.338623,8364.327145,-2068.457845
106.177425,5921.647536,7698.141797,-2451.505594
106.177745,6587.832884,7624.121203,-1532.190996
106.178066,5773.606348,8290.306550,-383.047749
106.178387,4441.235652,8438.347739,0.000000
106.178708,3701.029710,8438.347739,459.657299
106.179028,5033.400406,7698.141797,1072.533697
106.179349,5625.565159,7179.997637,1455.581446
106.179670,4145.153275,6809.894666,995.924147
106.179990,3478.967927,7254.018232,-536.266849
106.180311,3552.988522,7402.059420,-536.266849
106.180632,4589.276840,7920.203579,-229.828649
106.180952,5921.647536,9252.574275,-229.828649
106.181273,5329.482782,10288.862594,-383.047749
106.181594,3923.091493,10140.821405,-842.705048
106.181915,3997.112087,9326.594869,536.266849
106.182235,4145.153275,7846.182985,1762.019645
106.182556,4737.318029,6735.874072,1685.410096
106.182877,4145.153275,6365.771101,0.000000
106.183197,3775.050304,6587.832884,-1685.410096
106.183518,4737.318029,7402.059420,-1991.848295
106.183839,6809.894666,8660.409521,-459.657299
106.184160,7254.018232,9400.615463,0.000000
106.184480,6957.935855,9252.574275,-612.876398
106.184801,6291.750507,8216.285956,-689.485948
106.185122,6957.935855,7920.203579,306.438199
106.185442,5625.565159,7698.141797,995.924147
106.185763,4737.318029,7920.203579,76.609550
106.186084,5033.400406,8586.388927,-1302.362347
106.186404,5255.462188,8808.450710,-1838.629195
106.186725,4589.276840,7476.080014,-919.314598
106.187046,5699.585753,6217.729913,-306.438199
106.187367,5625.565159,6661.853478,229.828649
106.187687,3849.070898,7105.977043,459.657299
106.188008,4219.173869,7254.018232,1225.752797
106.188329,6143.709319,8142.265362,1838.629195
106.188649,6587.832884,8586.388927,383.047749
106.188970,6069.688724,8882.471304,-153.219100
106.189291,4811.338623,8438.347739,-2145.067394
106.189611,4515.256246,7772.162391,-2911.162892
106.189932,5477.523971,8068.244768,-1532.190996
106.190253,6143.709319,8216.285956,-229.828649
106.190574,5107.421000,8808.450710,229.828649
106.190894,3775.050304,8660.409521,842.705048
106.191215,4515.256246,8364.327145,306.438199
106.191536,4885.359217,8512.368333,1149.143247
106.191856,3997.112087,7550.100608,306.438199
106.192177,3627.009116,6809.894666,0.000000
106.192498,3627.009116,6439.791695,-229.828649
106.192818,4589.276840,7698.141797,-76.609550
106.193139,4737.318029,9178.553681,0.000000
106.193460,5181.441594,10288.862594,-612.876398
106.193781,5181.441594,10214.842000,-1072.533697
106.194101,4737.318029,9252.574275,0.000000
106.194422,5033.400406,7772.162391,1685.410096
106.194743,5403.503377,6883.915261,1378.971896
106.195063,4589.276840,7031.956449,-383.047749
106.195384,3256.906145,6883.915261,-1378.971896
106.195705,4441.235652,7105.977043,-2374.896044
106.196025,6143.709319,7550.100608,-842.705048
106.196346,6217.729913,9474.636058,153.219100
106.196667,5625.565159,10140.821405,0.000000
106.196988,4515.256246,9474.636058,-995.924147
106.197308,4441.235652,8882.471304,153.219100
106.197629,4293.194464,8512.368333,1149.143247
106.197950,4367.215058,8068.244768,919.314598
106.198270,3552.988522,8512.368333,-153.219100
106.198591,3182.885551,8734.430116,-995.924147
106.198912,3256.906145,7624.121203,-1608.800546
106.199233,4959.379811,7328.038826,-1225.752797
106.199553,4959.379811,7402.059420,-306.438199
106.199874,3997.112087,7698.141797,0.000000
106.200195,4367.215058,7328.038826,306.438199
106.200515,5625.565159,7994.224174,1149.143247
106.200836,6217.729913,8882.471304,1072.533697
106.201157,5255.462188,9252.574275,229.828649
106.201477,4811.338623,8808.450710,-1762.019645
106.201798,5107.421000,8290.306550,-1532.190996
106.202119,5847.626942,7994.224174,-1455.581446
106.202440,6143.709319,7772.162391,-995.924147
106.202760,6069.688724,8216.285956,-689.485948
106.203081,4663.297435,8734.430116,0.000000
106.203402,4885.359217,8586.388927,459.657299
106.203722,6143.709319,7550.100608,383.047749
106.204043,5773.606348,6587.832884,919.314598
106.204364,4959.379811,6143.709319,229.828649
106.204684,3849.070898,6365.771101,-306.438199
106.205005,4441.235652,7031.956449,-1072.533697
106.205326,5477.523971,8364.327145,-536.266849
106.205647,5921.647536,9326.594869,-76.609550
106.205967,6143.709319,9696.697840,-689.485948
106.206288,5403.503377,8956.491898,-536.266849
106.206609,4959.379811,8068.244768,919.314598
106.206929,5329.482782,7328.038826,1532.190996
106.207250,5181.441594,6809.894666,689.485948
106.207571,4367.215058,6513.812290,-919.314598
106.207891,4663.297435,6661.853478,-1685.410096
106.208212,6439.791695,6365.771101,-766.095498
106.208533,6809.894666,7105.977043,-536.266849
106.208854,6217.729913,7624.121203,-536.266849
106.209174,5921.647536,9178.553681,-689.485948
106.209495,5773.606348,9474.636058,-229.828649
106.209816,5403.503377,8734.430116,383.047749
106.210136,6513.812290,8808.450710,612.876398
106.210457,5107.421000,9030.512492,842.705048
106.210778,3627.009116,7476.080014,-919.314598
106.211098,3775.050304,7105.977043,-383.047749
106.211419,4737.318029,6513.812290,-536.266849
106.211740,4589.276840,7105.977043,0.000000
106.212061,3997.112087,7846.182985,306.438199
106.212381,3552.988522,7994.224174,-306.438199
106.212702,4663.297435,8586.388927,306.438199
106.213023,5181.441594,9104.533087,1915.238745
106.213343,4811.338623,9400.615463,1762.019645
106.213664,4219.173869,8956.491898,-306.438199
106.213985,3552.988522,8882.471304,-1915.238745
106.214306,4145.153275,9252.574275,-2145.067394
106.214626,5477.523971,9326.594869,-1225.752797
106.214947,5551.544565,9474.636058,-383.047749
106.215268,3849.070898,9696.697840,229.828649
106.215588,3404.947333,9474.636058,459.657299
106.215909,3627.009116,8660.409521,1532.190996
106.216230,3849.070898,7624.121203,1608.800546
106.216550,3404.947333,6883.915261,1072.533697
106.216871,2960.823768,7105.977043,-383.047749
106.217192,3182.885551,7772.162391,-995.924147
106.217513,4737.318029,8660.409521,-383.047749
106.217833,6143.709319,9844.739029,612.876398
106.218154,5181.441594,10362.883188,153.219100
106.218475,4441.235652,8882.471304,-995.924147
106.218795,4737.318029,7920.203579,-306.438199
106.219116,5847.626942,7179.997637,842.705048
106.219437,6143.709319,7402.059420,612.876398
106.219757,5847.626942,6735.874072,-1225.752797
106.220078,5033.400406,6365.771101,-2145.067394
106.220399,5921.647536,6809.894666,-1225.752797
106.220720,7105.977043,7402.059420,536.266849
106.221040,6809.894666,7920.203579,153.219100
106.221361,6143.709319,8290.306550,-536.266849
106.221682,6143.709319,8660.409521,-842.705048
106.222002,5921.647536,8512.368333,306.438199
106.222323,6365.771101,7476.080014,766.095498
106.222644,5773.606348,7328.038826,306.438199
106.222964,3849.070898,7476.080014,-229.828649
106.223285,3552.988522,6735.874072,-536.266849
106.223606,5329.482782,6809.894666,-383.047749
106.223927,5773.606348,7031.956449,-229.828649
106.224247,5255.462188,6957.935855,-229.828649
106.224568,5329.482782,7402.059420,-383.047749
106.224889,5625.565159,7772.162391,229.828649
106.225209,6365.771101,7920.203579,842.705048
106.225530,6439.791695,8290.306550,995.924147
106.225851,5847.626942,8512.368333,-229.828649
106.226172,5625.565159,8364.327145,-1685.410096
106.226492,4885.359217,8438.347739,-1608.800546
106.226813,6143.709319,8068.244768,-1455.581446
106.227134,6069.688724,8216.285956,-842.705048
106.227454,5107.421000,8660.409521,76.609550
106.227775,4293.194464,8216.285956,689.485948
106.228096,4811.338623,7994.224174,766.095498
106.228416,4737.318029,7772.162391,1149.143247
106.228737,4367.215058,7476.080014,766.095498
106.229058,3701.029710,7328.038826,-459.657299
106.229379,3034.844362,7994.224174,-1072.533697
106.229699,3923.091493,8660.409521,-689.485948
106.230020,5403.503377,9992.780217,-536.266849
106.230341,5181.441594,11251.130318,-1225.752797
106.230661,4441.235652,10807.006753,-1532.190996
106.230982,3923.091493,9548.656652,-306.438199
106.231303,4663.297435,8290.306550,842.705048
106.231623,4219.173869,7402.059420,2068.457845
106.231944,3256.906145,7550.100608,612.876398
106.232265,2886.803174,7772.162391,-919.314598
106.232586,3923.091493,8068.244768,-1072.533697
106.232906,5255.462188,7846.182985,229.828649
106.233227,5847.626942,8216.285956,306.438199
106.233548,4959.379811,8734.430116,153.219100
106.233868,4293.194464,9326.594869,0.000000
106.234189,4441.235652,8734.430116,306.438199
106.234510,5625.565159,8290.306550,536.266849
106.234830,5477.523971,8512.368333,0.000000
106.235151,4885.359217,8438.347739,-459.657299
106.235472,4367.215058,8068.244768,-1762.019645
106.235793,4885.359217,7328.038826,-1302.362347
106.236113,6365.771101,6809.894666,-612.876398
106.236434,6217.729913,7105.977043,0.000000
106.236755,5255.462188,7698.141797,0.000000
106.237075,4515.256246,7476.080014,612.876398
106.237396,5625.565159,7402.059420,1608.800546
106.237717,6291.750507,7402.059420,2221.676944
106.238037,5921.647536,7105.977043,1149.143247
106.238358,4811.338623,7105.977043,-1149.143247
106.238679,5033.400406,7476.080014,-2604.724693
106.239000,6217.729913,8068.244768,-1762.019645
106.239320,7031.956449,7920.203579,-766.095498
106.239641,7105.977043,7920.203579,76.609550
106.239962,5329.482782,8290.306550,536.266849
106.240282,4885.359217,8142.265362,995.924147
106.240603,5329.482782,7031.956449,1455.581446
106.240924,6069.688724,5995.668130,383.047749
106.241245,4811.338623,6217.729913,-459.657299
106.241565,4145.153275,6439.791695,-919.314598
106.241886,4737.318029,7624.121203,-842.705048
106.242207,5921.647536,8734.430116,-153.219100
106.242527,6439.791695,9548.656652,-76.609550
106.242848,5625.565159,9548.656652,-612.876398
106.243169,4663.297435,9030.512492,-383.047749
106.243489,4663.297435,8142.265362,1225.752797
106.243810,5551.544565,7624.121203,1149.143247
106.244131,5551.544565,6587.832884,229.828649
106.244452,4071.132681,6143.709319,-1685.410096
106.244772,3997.112087,6957.935855,-1915.238745
106.245093,5181.441594,8290.306550,-995.924147
106.245414,5625.565159,9252.574275,-383.047749
106.245734,5773.606348,9104.533087,0.000000
106.246055,5625.565159,9104.533087,0.000000
106.246376,4663.297435,8882.471304,0.000000
106.246696,4737.318029,8512.368333,459.657299
106.247017,4811.338623,9178.553681,536.266849
106.247338,4293.194464,9622.677246,-459.657299
106.247659,3182.885551,9030.512492,-1149.143247
106.247979,3256.906145,8364.327145,-766.095498
106.248300,4145.153275,7476.080014,-612.876398
106.248621,4441.235652,8586.388927,153.219100
106.248941,3256.906145,9178.553681,0.000000
106.249262,3330.926739,9400.615463,-612.876398
106.249583,4589.276840,9178.553681,1302.362347
106.249903,4663.297435,8660.409521,1991.848295
106.250224,4811.338623,8586.388927,1072.533697
106.250545,3849.070898,8512.368333,-536.266849
106.250866,3552.988522,8734.430116,-1762.019645
106.251186,4737.318029,8808.450710,-2298.286494
106.251507,6217.729913,8586.388927,-995.924147
106.251828,6587.832884,9474.636058,-383.047749
106.252148,5255.462188,9252.574275,306.438199
106.252469,4145.153275,8586.388927,459.657299
106.252790,5403.503377,7402.059420,383.047749
106.253110,5847.626942,6143.709319,919.314598
106.253431,5699.585753,5995.668130,842.705048
106.253752,4811.338623,6143.709319,0.000000
106.254073,4663.297435,6587.832884,-1225.752797
106.254393,5847.626942,7328.038826,-995.924147
106.254714,7105.977043,8882.471304,-689.485948
106.255035,7624.121203,9326.594869,-689.485948
106.255355,6513.812290,8660.409521,-842.705048
106.255676,5847.626942,7550.100608,153.219100
106.255997,5625.565159,6735.874072,1455.581446
106.256317,4885.359217,6809.894666,1225.752797
106.256638,4663.297435,5995.668130,-612.876398
106.256959,3775.050304,6735.874072,-1762.019645
106.257280,4737.318029,7328.038826,-1302.362347
106.257600,5551.544565,7476.080014,0.000000
106.257921,6439.791695,8290.306550,383.047749
106.258242,5551.544565,8512.368333,612.876398
106.258562,4811.338623,8068.244768,766.095498
106.258883,5181.441594,7476.080014,1455.581446
106.259204,5181.441594,8216.285956,1149.143247
106.259524,4811.338623,9104.533087,459.657299
106.259845,4293.194464,8586.388927,-766.095498
106.260166,4589.276840,7698.141797,-1838.629195
106.260487,5551.544565,6883.915261,-1149.143247
106.260807,5329.482782,6513.812290,-383.047749
106.261128,4885.359217,6957.935855,-536.266849
106.261449,4145.153275,8142.265362,153.219100
106.261769,4737.318029,8956.491898,1072.533697
106.262090,6069.688724,8364.327145,1838.629195
106.262411,6809.894666,7920.203579,1302.362347
106.262731,5329.482782,7624.121203,-995.924147
106.263052,3923.091493,7846.182985,-2757.943793
106.263373,4145.153275,7846.182985,-2298.286494
106.263694,5181.441594,8290.306550,-1838.629195
106.264014,6365.771101,9474.636058,-995.924147
106.264335,5403.503377,10362.883188,-153.219100
106.264656,3552.988522,10362.883188,-383.047749
106.264976,3034.844362,9844.739029,383.047749
106.265297,3478.967927,8290.306550,1149.143247
106.265618,4367.215058,7254.018232,919.314598
106.265939,3775.050304,6587.832884,459.657299
106.266259,2664.741391,7476.080014,-995.924147
106.266580,3849.070898,8512.368333,-919.314598
106.266901,4811.338623,9844.739029,-536.266849
106.267221,5181.441594,10214.842000,0.000000
106.267542,5255.462188,9548.656652,-306.438199
106.267863,4885.359217,9400.615463,306.438199
106.268183,5033.400406,8512.368333,919.314598
106.268504,4959.379811,7624.121203,766.095498
106.268825,4885.359217,6883.915261,-689.485948
106.269146,4737.318029,6809.894666,-1838.629195
106.269466,5107.421000,7624.121203,-1838.629195
106.269787,6587.832884,8364.327145,-383.047749
106.270108,6735.874072,8734.430116,0.000000
106.270428,5921.647536,9104.533087,-612.876398
106.270749,5403.503377,8068.244768,153.219100
106.271070,5181.441594,7476.080014,153.219100
106.271390,5921.647536,7624.121203,612.876398
106.271711,6143.709319,7846.182985,0.000000
106.272032,5625.565159,7772.162391,-919.314598
106.272353,4811.338623,8068.244768,-1072.533697
106.272673,4367.215058,7105.977043,-689.485948
106.272994,4811.338623,6513.812290,-306.438199
106.273315,5403.503377,6957.935855,0.000000
106.273635,4589.276840,7624.121203,153.219100
106.273956,4367.215058,7550.100608,229.828649
106.274277,5403.503377,7476.080014,612.876398
106.274597,6143.709319,7920.203579,1072.533697
106.274918,6069.688724,8216.285956,766.095498
106.275239,4885.359217,7624.121203,-612.876398
106.275560,4515.256246,7402.059420,-1302.362347
106.275880,5403.503377,7772.162391,-1455.581446
106.276201,5773.606348,8142.265362,-383.047749
106.276522,5773.606348,8882.471304,612.876398
106.276842,4589.276840,8882.471304,153.219100
106.277163,3775.050304,8290.306550,383.047749
106.277484,4737.318029,7476.080014,689.485948
106.277804,4737.318029,6661.853478,842.705048
106.278125,4071.132681,6809.894666,459.657299
106.278446,3256.906145,6957.935855,-306.438199
106.278767,3849.070898,7698.141797,-536.266849
106.279087,4663.297435,8586.388927,-459.657299
106.279408,5107.421000,9474.636058,0.000000
106.279729,5033.400406,9770.718434,-306.438199
106.280049,5033.400406,9992.780217,-1149.143247
106.280370,5033.400406,9474.636058,0.000000
106.280691,5033.400406,8808.450710,229.828649
106.281011,5181.441594,7476.080014,536.266849
106.281332,3997.112087,7328.038826,-229.828649
106.281653,3552.988522,7105.977043,-536.266849
106.281974,5033.400406,7550.100608,-766.095498
106.282294,6069.688724,8068.244768,0.000000
106.282615,5995.668130,8586.388927,0.000000
106.282936,5033.400406,8586.388927,229.828649
106.283256,4959.379811,8142.265362,383.047749
106.283577,5699.585753,8068.244768,1378.971896
106.283898,5847.626942,8734.430116,1072.533697
106.284218,4811.338623,8956.491898,-306.438199
106.284539,4441.235652,8660.409521,-1838.629195
106.284860,4663.297435,8808.450710,-1762.019645
106.285181,4367.215058,8068.244768,-842.705048
106.285501,5255.462188,7550.100608,-919.314598
106.285822,5033.400406,7846.182985,-1072.533697
106.286143,3849.070898,7994.224174,-919.314598
106.286463,4367.215058,7846.182985,459.657299
106.286784,5625.565159,7846.182985,1532.190996
106.287105,5033.400406,7920.203579,919.314598
106.287425,4737.318029,7920.203579,-306.438199
106.287746,4737.318029,7994.224174,-1838.629195
106.288067,4515.256246,8068.244768,-2068.457845
106.288388,4885.359217,9326.594869,-689.485948
106.288708,5921.647536,9252.574275,-76.609550
106.289029,5551.544565,9178.553681,-306.438199
106.289350,3775.050304,8808.450710,766.095498
106.289670,3627.009116,7698.141797,1149.143247
106.289991,4589.276840,6809.894666,1455.581446
106.290312,4589.276840,6291.750507,1302.362347
106.290632,3775.050304,6513.812290,-229.828649
106.290953,4145.153275,6291.750507,-1225.752797
106.291274,5773.606348,7476.080014,-689.485948
106.291595,6957.935855,9104.533087,0.000000
106.291915,7031.956449,9474.636058,0.000000
106.292236,6365.771101,9326.594869,-1149.143247
106.292557,5477.523971,9104.533087,-689.485948
106.292877,5329.482782,8512.368333,306.438199
106.293198,6069.688724,7254.018232,766.095498
106.293519,5403.503377,6883.915261,153.219100
106.293839,3552.988522,6735.874072,-1072.533697
106.294160,3849.070898,6735.874072,-2145.067394
106.294481,4885.359217,7105.977043,-1455.581446
106.294802,5699.585753,8364.327145,-459.657299
106.295122,4959.379811,8956.491898,-306.438199
106.295443,4589.276840,8660.409521,306.438199
106.295764,5107.421000,8512.368333,919.314598
106.296084,4885.359217,9030.512492,1915.238745
106.296405,4441.235652,9696.697840,1149.143247
106.296726,3849.070898,9400.615463,-459.657299
106.297047,3552.988522,8512.368333,-995.924147
106.297367,4441.235652,7550.100608,-459.657299
106.297688,5329.482782,6587.832884,76.609550
106.298009,5255.462188,6883.915261,-229.828649
106.298329,4441.235652,7550.100608,-689.485948
106.298650,4663.297435,7476.080014,0.000000
106.298971,6439.791695,7105.977043,1072.533697
106.299291,7920.203579,6735.874072,1838.629195
106.299612,7179.997637,7179.997637,919.314598
106.299933,5625.565159,7402.059420,-995.924147
106.300254,5329.482782,7179.997637,-2451.505594
106.300574,6957.935855,7550.100608,-1991.848295
106.300895,8290.306550,8660.409521,-1378.971896
106.301216,7994.224174,9104.533087,-1302.362347
106.301536,6291.750507,8882.471304,-1455.581446
106.301857,4959.379811,7772.162391,-383.047749
106.302178,5773.606348,6291.750507,2068.457845
106.302498,6069.688724,5255.462188,2528.115143
106.302819,4959.379811,5255.462188,612.876398
106.303140,3627.009116,6513.812290,-1072.533697
106.303461,4441.235652,7698.141797,-1762.019645
106.303781,5551.544565,8216.285956,-766.095498
106.304102,6217.729913,8660.409521,0.000000
106.304423,5921.647536,9400.615463,0.000000
106.304743,4737.318029,10066.800811,-229.828649
106.305064,4219.173869,10584.944971,0.000000
106.305385,4441.235652,10214.842000,1072.533697
106.305705,3849.070898,9474.636058,689.485948
106.306026,2812.782580,8512.368333,0.000000
106.306347,2368.659014,8512.368333,-689.485948
106.306668,2590.720797,8734.430116,-919.314598
106.306988,3034.844362,9104.533087,-919.314598
106.307309,3034.844362,8734.430116,-689.485948
106.307630,2368.659014,9252.574275,-536.266849
106.307950,2368.659014,9622.677246,612.876398
106.308271,2960.823768,10510.924376,2757.943793
106.308592,3330.926739,11177.109724,1991.848295
106.308912,2738.761985,11695.253884,76.609550
106.309233,1998.556043,10881.027347,-1378.971896
106.309554,2294.638420,10140.821405,-1455.581446
106.309875,2812.782580,8586.388927,-612.876398
106.310195,3552.988522,7698.141797,-459.657299
106.310516,3997.112087,7624.121203,-995.924147
106.310837,3849.070898,7920.203579,-459.657299
106.311157,4145.153275,8734.430116,536.266849
106.311478,5181.441594,8068.244768,919.314598
106.311799,5921.647536,7476.080014,919.314598
106.312119,5995.668130,7846.182985,383.047749
106.312440,5033.400406,7846.182985,-995.924147
106.312761,5477.523971,7328.038826,-2374.896044
106.313082,6957.935855,7105.977043,-2145.067394
106.313402,7846.182985,7772.162391,-919.314598
106.313723,6809.894666,8216.285956,-842.705048
106.314044,5773.606348,7402.059420,0.000000
106.314364,5625.565159,6735.874072,995.924147
106.314685,5773.606348,5773.606348,1991.848295
106.315006,5551.544565,5107.421000,1991.848295
106.315326,5403.503377,4589.276840,0.000000
106.315647,5181.441594,5107.421000,-1532.190996
106.315968,6365.771101,5847.626942,-1302.362347
106.316289,7698.141797,6809.894666,-689.485948
106.316609,8068.244768,7624.121203,0.000000
106.316930,7476.080014,8512.368333,0.000000
106.317251,7105.977043,8364.327145,-459.657299
106.317571,7328.038826,7772.162391,0.000000
106.317892,7328.038826,7179.997637,689.485948
106.318213,6957.935855,6439.791695,689.485948
106.318533,5403.503377,5921.647536,-919.314598
106.318854,5255.462188,6217.729913,-2221.676944
106.319175,5699.585753,7254.018232,-1991.848295
106.319496,6365.771101,7698.141797,-842.705048
106.319816,5921.647536,7476.080014,-383.047749
106.320137,5995.668130,7328.038826,536.266849
106.320458,5403.503377,7772.162391,1072.533697
106.320778,5403.503377,8734.430116,1378.971896
106.321099,5995.668130,10807.006753,536.266849
106.321420,4737.318029,10807.006753,-459.657299
106.321740,3997.112087,9622.677246,-1072.533697
106.322061,5625.565159,8364.327145,-536.266849
106.322382,4737.318029,7550.100608,-153.219100
106.322703,3478.967927,7328.038826,-612.876398
106.323023,2960.823768,8290.306550,-612.876398
106.323344,3256.906145,8512.368333,-383.047749
106.323665,3923.091493,8882.471304,1072.533697
106.323985,5625.565159,9474.636058,1915.238745
106.324306,4737.318029,9918.759623,306.438199
106.324627,3478.967927,10362.883188,-1225.752797
106.324947,3108.864956,9548.656652,-1685.410096
106.325268,4589.276840,9104.533087,-1915.238745
106.325589,5477.523971,9178.553681,-919.314598
106.325910,4219.173869,9252.574275,-842.705048
106.326230,3330.926739,10066.800811,-842.705048
106.326551,3330.926739,10066.800811,536.266849
106.326872,3108.864956,9178.553681,1991.848295
106.327192,3627.009116,6957.935855,1685.410096
106.327513,3552.988522,6439.791695,306.438199
106.327834,3182.885551,6809.894666,-995.924147
106.328155,2664.741391,7179.997637,-995.924147
106.328475,4811.338623,7772.162391,-612.876398
106.328796,6439.791695,8734.430116,-536.266849
106.329117,6217.729913,9622.677246,0.000000
106.329437,5551.544565,9474.636058,-536.266849
106.329758,5773.606348,8660.409521,-459.657299
106.330079,5551.544565,7550.100608,76.609550
106.330399,5403.503377,6735.874072,689.485948
106.330720,4959.379811,6217.729913,0.000000
106.331041,4811.338623,6735.874072,-689.485948
106.331362,5329.482782,7179.997637,-1762.019645
106.331682,6143.709319,7105.977043,-1762.019645
106.332003,5699.585753,6957.935855,-1302.362347
106.332324,5107.421000,6365.771101,459.657299
106.332644,5329.482782,5847.626942,1838.629195
106.332965,6365.771101,7254.018232,2374.896044
106.333286,5699.585753,8512.368333,1149.143247
106.333606,4959.379811,8956.491898,-995.924147
106.333927,4959.379811,8734.430116,-1762.019645
106.334248,5551.544565,7994.224174,-1072.533697
106.334569,6587.832884,6809.894666,-153.219100
106.334889,6957.935855,5847.626942,-459.657299
106.335210,5551.544565,6143.709319,-689.485948
106.335531,3849.070898,6957.935855,-153.219100
106.335851,4737.318029,7179.997637,76.609550
106.336172,6883.915261,7624.121203,612.876398
106.336493,7624.121203,8290.306550,1378.971896
106.336813,5995.668130,8438.347739,383.047749
106.337134,5255.462188,7550.100608,-1072.533697
106.337455,5625.565159,7254.018232,-2374.896044
106.337776,6291.750507,8142.265362,-1302.362347
106.338096,6883.915261,8956.491898,-536.266849
106.338417,5847.626942,9252.574275,-1225.752797
106.338738,4737.318029,9474.636058,-229.828649
106.339058,4663.297435,9252.574275,1762.019645
106.339379,4071.132681,8512.368333,1991.848295
106.339700,3849.070898,7402.059420,842.705048
106.340020,2886.803174,6513.812290,-1072.533697
106.340341,3182.885551,6587.832884,-1915.238745
106.340662,4145.153275,7846.182985,-766.095498
106.340983,5181.441594,9474.636058,383.047749
106.341303,4959.379811,10584.944971,842.705048
106.341624,4071.132681,11103.089130,-459.657299
106.341945,3701.029710,10955.047942,-459.657299
106.342265,3923.091493,9918.759623,-153.219100
106.342586,4219.173869,9548.656652,1072.533697
106.342907,3478.967927,9104.533087,0.000000
106.343227,2590.720797,8734.430116,-995.924147
106.343548,2886.803174,8660.409521,-2145.067394
106.343869,3775.050304,8290.306550,-1378.971896
106.344190,3182.885551,8882.471304,-689.485948
106.344510,2516.700203,9400.615463,0.000000
106.344831,2664.741391,8364.327145,1225.752797
106.345152,4219.173869,8512.368333,1838.629195
106.345472,5107.421000,9400.615463,1685.410096
106.345793,4589.276840,9696.697840,-306.438199
106.346114,3923.091493,9178.553681,-1991.848295
106.346434,3923.091493,8956.491898,-1838.629195
106.346755,4885.359217,7994.224174,-536.266849
106.347076,6069.688724,7031.956449,229.828649
106.347396,6439.791695,7179.997637,0.000000
106.347717,5107.421000,7994.224174,-306.438199
106.348037,4737.318029,7105.977043,0.000000
106.348358,5995.668130,5921.647536,536.266849
106.348679,7031.956449,5329.482782,1149.143247
106.348999,6957.935855,6143.709319,919.314598
106.349320,6439.791695,6587.832884,-383.047749
106.349641,6513.812290,6661.853478,-2145.067394
106.349961,7254.018232,7031.956449,-1378.971896
106.350282,7846.182985,7624.121203,-536.266849
106.350603,7328.038826,8068.244768,-612.876398
106.350923,6587.832884,8586.388927,-536.266849
106.351244,5625.565159,8068.244768,459.657299
106.351565,6143.709319,7105.977043,1225.752797
106.351885,5773.606348,5625.565159,612.876398
106.352206,4367.215058,5847.626942,-842.705048
106.352527,4293.194464,5625.565159,-383.047749
106.352847,4811.338623,6809.894666,0.000000
106.353168,5329.482782,7624.121203,689.485948
106.353489,5551.544565,7846.182985,612.876398
106.353809,5551.544565,8586.388927,0.000000
106.354130,5477.523971,8808.450710,153.219100
106.354451,5847.626942,9030.512492,612.876398
106.354771,5995.668130,9030.512492,459.657299
106.355092,5477.523971,8956.491898,-306.438199
106.355413,4663.297435,8216.285956,-766.095498
106.355733,4441.235652,7624.121203,-1608.800546
106.356054,5551.544565,7402.059420,-1225.752797
106.356375,5773.606348,8142.265362,-995.924147
106.356695,4737.318029,8216.285956,-536.266849
106.357016,4145.153275,8438.347739,-229.828649
106.357337,4737.318029,8808.450710,1608.800546
106.357657,4515.256246,9548.656652,1685.410096
106.357978,4737.318029,9770.718434,689.485948
106.358299,3775.050304,9474.636058,-1455.581446
106.358619,3182.885551,8734.430116,-2374.896044
106.358940,3923.091493,8882.471304,-995.924147
106.359261,4885.359217,9400.615463,-536.266849
106.359581,4663.297435,9548.656652,-306.438199
106.359902,3849.070898,10288.862594,-306.438199
106.360223,3182.885551,10362.883188,0.000000
106.360543,3182.885551,8216.285956,1149.143247
106.360864,3997.112087,6957.935855,2068.457845
106.361185,4071.132681,6735.874072,1532.190996
106.361505,3034.844362,7105.977043,-153.219100
106.361826,3404.947333,7328.038826,-1685.410096
106.362147,4663.297435,8512.368333,-2374.896044
106.362467,5699.585753,10140.821405,-1149.143247
106.362788,5773.606348,10140.821405,-842.705048
106.363109,5551.544565,9400.615463,-842.705048
106.363429,6217.729913,9326.594869,306.438199
106.363750,5329.482782,8586.388927,1225.752797
106.364071,4885.359217,7476.080014,995.924147
106.364391,4071.132681,6661.853478,-459.657299
106.364712,3997.112087,6661.853478,-1455.581446
106.365033,4219.173869,6513.812290,-1608.800546
106.365353,6143.709319,6365.771101,-153.219100
106.365674,6661.853478,6957.935855,229.828649
106.365995,5033.400406,7105.977043,229.828649
106.366315,4737.318029,7328.038826,306.438199
106.366636,5551.544565,7698.141797,919.314598
106.366957,6513.812290,9104.533087,766.095498
106.367277,6957.935855,9548.656652,0.000000
106.367598,6217.729913,8660.409521,-1455.581446
106.367919,6069.688724,7920.203579,-2451.505594
106.368239,5403.503377,7328.038826,-1149.143247
106.368560,5403.503377,6957.935855,-459.657299
106.368880,5033.400406,7105.977043,0.000000
106.369201,4293.194464,7698.141797,383.047749
106.369522,4441.235652,8290.306550,1685.410096
106.369842,4885.359217,8660.409521,2068.457845
106.370163,5033.400406,8882.471304,2145.067394
106.370484,4441.235652,8734.430116,766.095498
106.370804,3997.112087,7994.224174,-536.266849
106.371125,4589.276840,7624.121203,-383.047749
106.371446,5773.606348,7772.162391,-383.047749
106.371766,5921.647536,8364.327145,-306.438199
106.372087,5625.565159,8808.450710,-306.438199
106.372408,4811.338623,9178.553681,229.828649
106.372728,5329.482782,8586.388927,1149.143247
106.373049,5625.565159,6735.874072,1532.190996
106.373370,5847.626942,5329.482782,1072.533697
106.373690,5107.421000,5847.626942,-229.828649
106.374011,4071.132681,7105.977043,-1915.238745
106.374332,5625.565159,7105.977043,-2298.286494
106.374652,7550.100608,8438.347739,-1378.971896
106.374973,7179.997637,9770.718434,-689.485948
106.375294,5625.565159,9696.697840,0.000000
106.375614,4737.318029,9104.533087,-536.266849
106.375935,4219.173869,8364.327145,229.828649
106.376256,4367.215058,8068.244768,1072.533697
106.376576,3775.050304,7550.100608,689.485948
106.376897,3552.988522,6883.915261,-612.876398
106.377218,2368.659014,7105.977043,-1072.533697
106.377538,3404.947333,6809.894666,-842.705048
106.377859,4293.194464,7624.121203,-383.047749
106.378180,4441.235652,8290.306550,0.000000
106.378500,4589.276840,7772.162391,153.219100
106.378821,5625.565159,8364.327145,842.705048
106.379142,6069.688724,9326.594869,919.314598
106.379462,5625.565159,10214.842000,306.438199
106.379783,4811.338623,9992.780217,-1302.362347
106.380104,4885.359217,8882.471304,-2834.553343
106.380424,4959.379811,7920.203579,-2374.896044
106.380745,5181.441594,7179.997637,-1225.752797
106.381066,5255.462188,7105.977043,-766.095498
106.381386,3997.112087,8364.327145,-229.828649
106.381707,3552.988522,8808.450710,153.219100
106.382028,4367.215058,8734.430116,1225.752797
106.382348,5329.482782,7994.224174,2451.505594
106.382669,5033.400406,8438.347739,1685.410096
106.382990,4293.194464,8364.327145,-153.219100
106.383310,3627.009116,7698.141797,-1991.848295
106.383631,4663.297435,8068.244768,-2068.457845
106.383952,6291.750507,8956.491898,-766.095498
106.384272,6587.832884,9992.780217,-459.657299
106.384593,5329.482782,9918.759623,-689.485948
106.384914,4219.173869,9992.780217,766.095498
106.385234,5107.421000,8586.388927,1915.238745
106.385555,4811.338623,7105.977043,2221.676944
106.385876,4959.379811,5847.626942,842.705048
106.386196,4367.215058,6365.771101,-1072.533697
106.386517,4737.318029,7031.956449,-1302.362347
106.386838,5255.462188,7772.162391,-383.047749
106.387158,6439.791695,8438.347739,76.609550
106.387479,6587.832884,8586.388927,153.219100
106.387800,6735.874072,8734.430116,153.219100
106.388120,5551.544565,8586.388927,612.876398
106.388441,5921.647536,7624.121203,459.657299
106.388762,5551.544565,7254.018232,306.438199
106.389082,5033.400406,6957.935855,-383.047749
106.389403,4737.318029,6735.874072,-1378.971896
106.389723,4737.318029,6957.935855,-1532.190996
106.390044,5773.606348,6957.935855,-995.924147
106.390365,5773.606348,6809.894666,-229.828649
106.390685,4885.359217,6513.812290,536.266849
106.391006,4663.297435,6957.935855,1378.971896
106.391327,5773.606348,7254.018232,1302.362347
106.391647,5995.668130,8660.409521,1072.533697
106.391968,5477.523971,8216.285956,-536.266849
106.392289,4885.359217,8438.347739,-1685.410096
106.392609,4885.359217,8068.244768,-1915.238745
106.392930,5255.462188,7328.038826,-1378.971896
106.393251,5477.523971,6661.853478,-536.266849
106.393571,5329.482782,7179.997637,0.000000
106.393892,4663.297435,8068.244768,306.438199
106.394213,4293.194464,8142.265362,612.876398
106.394533,4737.318029,7550.100608,1149.143247
106.394854,5551.544565,7772.162391,995.924147
106.395175,4959.379811,7550.100608,612.876398
106.395495,4071.132681,7105.977043,-766.095498
106.395816,4737.318029,7698.141797,-1685.410096
106.396137,5699.585753,9474.636058,-1608.800546
106.396457,5329.482782,10140.821405,-766.095498
106.396778,5773.606348,10362.883188,-689.485948
106.397099,5477.523971,9844.739029,0.000000
106.397419,4589.276840,9474.636058,995.924147
106.397740,4293.194464,8808.450710,1685.410096
106.398061,3775.050304,7698.141797,0.000000
106.398381,2886.803174,6883.915261,-1225.752797
106.398702,3404.947333,7179.997637,-1149.143247
106.399023,4367.215058,7550.100608,-612.876398
106.399343,5181.441594,8512.368333,0.000000
106.399664,5033.400406,10584.944971,306.438199
106.399985,4145.153275,10955.047942,-536.266849
106.400305,4441.235652,10584.944971,-229.828649
106.400626,3997.112087,9474.636058,612.876398
106.400947,4663.297435,9178.553681,536.266849
106.401267,3849.070898,9104.533087,76.609550
106.401588,2812.782580,8216.285956,-995.924147
106.401909,2812.782580,7772.162391,-1915.238745
106.402229,3923.091493,7550.100608,-1072.533697
106.402550,4737.318029,7920.203579,0.000000
106.402871,4885.359217,7846.182985,612.876398
106.403191,4367.215058,7698.141797,919.314598
106.403512,5255.462188,7994.224174,1302.362347
106.403833,5699.585753,8512.368333,1302.362347
106.404153,5773.606348,8438.347739,536.266849
106.404474,5329.482782,7994.224174,-1072.533697
106.404795,5551.544565,7402.059420,-2221.676944
106.405115,5847.626942,6957.935855,-2451.505594
