#time,accel_x,accel_y,accel_z
568.603301,4959.379811,8142.265362,-153.219100
568.603622,5107.421000,8142.265362,-229.828649
568.603942,4959.379811,7772.162391,-153.219100
568.604263,4885.359217,7920.203579,0.000000
568.604583,4885.359217,7920.203579,-76.609550
568.604904,5033.400406,8142.265362,0.000000
568.605224,4811.338623,8068.244768,459.657299
568.605545,4663.297435,7772.162391,-306.438199
568.605865,4885.359217,7846.182985,76.609550
568.606185,4885.359217,8068.244768,0.000000
568.606506,4959.379811,7994.224174,0.000000
568.606826,4737.318029,8216.285956,306.438199
568.607147,4811.338623,7994.224174,-153.219100
568.607467,5033.400406,7994.224174,-229.828649
568.607788,5033.400406,7994.224174,0.000000
568.608108,4959.379811,8068.244768,0.000000
568.608429,5181.441594,8216.285956,-766.095498
568.608749,4811.338623,8290.306550,0.000000
568.609070,4959.379811,8068.244768,0.000000
568.609390,5033.400406,8142.265362,-153.219100
568.609711,4959.379811,8142.265362,0.000000
568.610031,5403.503377,8364.327145,-229.828649
568.610352,5181.441594,8142.265362,0.000000
568.610672,5181.441594,8216.285956,-383.047749
568.610993,4959.379811,7920.203579,-306.438199
568.611313,5255.462188,8068.244768,-383.047749
568.611634,5033.400406,8290.306550,-306.438199
568.611954,5033.400406,7994.224174,-306.438199
568.612275,4811.338623,8216.285956,-306.438199
568.612595,5107.421000,7994.224174,-229.828649
568.612916,4959.379811,7994.224174,-153.219100
568.613236,4885.359217,8364.327145,76.609550
568.613557,4959.379811,8068.244768,0.000000
568.613877,4811.338623,7994.224174,-306.438199
568.614198,4959.379811,8068.244768,-229.828649
568.614518,4959.379811,8068.244768,0.000000
568.614839,5181.441594,8142.265362,76.609550
568.615159,5033.400406,7698.141797,-153.219100
568.615480,4663.297435,7624.121203,-306.438199
568.615800,4293.194464,7476.080014,-229.828649
568.616121,4367.215058,8290.306550,-306.438199
568.616441,4441.235652,9104.533087,-689.485948
568.616762,4663.297435,9918.759623,-1532.190996
568.617082,4811.338623,9474.636058,-1455.581446
568.617403,4293.194464,9474.636058,-536.266849
568.617723,3627.009116,8586.388927,306.438199
568.618044,2738.761985,8808.450710,612.876398
568.618364,2960.823768,9178.553681,1302.362347
568.618685,2590.720797,9178.553681,229.828649
568.619005,2738.761985,8512.368333,-229.828649
568.619326,2886.803174,8438.347739,-612.876398
568.619646,3182.885551,9178.553681,0.000000
568.619967,3034.844362,9326.594869,459.657299
568.620287,2442.679609,8882.471304,306.438199
568.620608,2294.638420,8586.388927,76.609550
568.620928,2516.700203,9696.697840,0.000000
568.621249,2220.617826,10955.047942,-1149.143247
568.621569,1998.556043,11843.295072,-1149.143247
568.621890,1480.411884,11843.295072,-1302.362347
568.622210,1258.350101,11251.130318,-766.095498
568.622531,148.041188,10881.027347,-1225.752797
568.622851,-1036.288319,11547.212695,-1072.533697
568.623172,-1406.391290,11991.336260,-995.924147
568.623492,-1776.494261,12509.480420,306.438199
568.623812,-1702.473667,11991.336260,766.095498
568.624133,-1036.288319,12065.356855,1378.971896
568.624453,-1184.329507,12657.521608,1455.581446
568.624774,-1998.556043,12657.521608,1685.410096
568.625094,-2812.782580,11843.295072,919.314598
568.625415,-1998.556043,10288.862594,0.000000
568.625735,-1110.308913,9548.656652,0.000000
568.626056,-814.226536,9474.636058,612.876398
568.626376,-592.164754,10362.883188,383.047749
568.626697,-222.061783,11325.150913,0.000000
568.627017,740.205942,11695.253884,-1378.971896
568.627338,1554.432478,11325.150913,-1991.848295
568.627658,2146.597232,10584.944971,-919.314598
568.627979,3108.864956,11177.109724,229.828649
568.628299,3182.885551,10658.965565,0.000000
568.628620,2516.700203,9770.718434,-1608.800546
568.628940,2220.617826,9252.574275,-2451.505594
568.629261,1998.556043,9548.656652,-1072.533697
568.629581,2294.638420,9622.677246,-383.047749
568.629902,2146.597232,9844.739029,0.000000
568.630222,1702.473667,10362.883188,-383.047749
568.630543,1036.288319,11177.109724,-306.438199
568.630863,148.041188,11473.192101,612.876398
568.631184,0.000000,10584.944971,919.314598
568.631504,-296.082377,9918.759623,919.314598
568.631825,-74.020594,9918.759623,612.876398
568.632145,-444.123565,10362.883188,536.266849
568.632466,-518.144159,10881.027347,919.314598
568.632786,0.000000,11621.233289,1302.362347
568.633107,370.102971,11769.274478,1302.362347
568.633427,740.205942,11695.253884,536.266849
568.633748,814.226536,10955.047942,-459.657299
568.634068,370.102971,10732.986159,-766.095498
568.634389,1258.350101,10140.821405,-383.047749
568.634709,1480.411884,9252.574275,0.000000
568.635030,1702.473667,8142.265362,-76.609550
568.635350,1776.494261,7994.224174,0.000000
568.635671,2146.597232,9696.697840,-153.219100
568.635991,2368.659014,10881.027347,-306.438199
568.636312,2812.782580,11103.089130,-612.876398
568.636632,3627.009116,10584.944971,-995.924147
568.636953,3775.050304,9918.759623,-1225.752797
568.637273,3404.947333,9548.656652,-1149.143247
568.637594,2516.700203,8956.491898,-612.876398
568.637914,1702.473667,10362.883188,-1302.362347
568.638235,962.267725,10881.027347,-919.314598
568.638555,1036.288319,11547.212695,-842.705048
568.638876,888.247130,11769.274478,-1378.971896
568.639196,148.041188,11251.130318,-2068.457845
568.639517,-666.185348,10584.944971,-1762.019645
568.639837,-1184.329507,9104.533087,-536.266849
568.640158,-1850.514855,8586.388927,1455.581446
568.640478,-888.247130,9770.718434,2221.676944
568.640798,0.000000,11917.315666,2451.505594
568.641119,-222.061783,13545.768739,1149.143247
568.641439,148.041188,13693.809927,459.657299
568.641760,1776.494261,13027.624579,0.000000
568.642080,1776.494261,11473.192101,153.219100
568.642401,1480.411884,9918.759623,0.000000
568.642721,666.185348,9696.697840,-229.828649
568.643042,-962.267725,9252.574275,-1149.143247
568.643362,-1406.391290,9400.615463,-1608.800546
568.643683,-1110.308913,10288.862594,-1762.019645
568.644003,0.000000,11621.233289,-1455.581446
568.644324,888.247130,13027.624579,0.000000
568.644644,1036.288319,13027.624579,-536.266849
568.644965,962.267725,13249.686362,-1225.752797
568.645285,222.061783,13619.789333,229.828649
568.645606,444.123565,13027.624579,459.657299
568.645926,1480.411884,11103.089130,153.219100
568.646247,1628.453072,9030.512492,0.000000
568.646567,1554.432478,8512.368333,-306.438199
568.646888,740.205942,9104.533087,-306.438199
568.647208,296.082377,9622.677246,1072.533697
568.647529,0.000000,9918.759623,1225.752797
568.647849,148.041188,9104.533087,1072.533697
568.648170,148.041188,7846.182985,-229.828649
568.648490,888.247130,9104.533087,-612.876398
568.648811,814.226536,12213.398043,-306.438199
568.649131,148.041188,14063.912898,-766.095498
568.649452,444.123565,13471.748144,-1762.019645
568.649772,1554.432478,12731.542202,-2068.457845
568.650093,888.247130,12583.501014,-919.314598
568.650413,-444.123565,11917.315666,-383.047749
568.650734,148.041188,11547.212695,459.657299
568.651054,0.000000,11103.089130,536.266849
568.651375,-666.185348,10362.883188,1378.971896
568.651695,370.102971,9252.574275,1915.238745
568.652016,-1332.370696,8364.327145,1532.190996
568.652336,-2442.679609,8586.388927,1762.019645
568.652657,-1776.494261,8660.409521,612.876398
568.652977,-222.061783,9030.512492,-306.438199
568.653298,1554.432478,11103.089130,76.609550
568.653618,2368.659014,13101.645173,0.000000
568.653939,2368.659014,13545.768739,-612.876398
568.654259,1184.329507,11695.253884,-2068.457845
568.654580,592.164754,8956.491898,-2068.457845
568.654900,2368.659014,7920.203579,306.438199
568.655221,3478.967927,9474.636058,2757.943793
568.655541,1628.453072,11029.068536,766.095498
568.655862,592.164754,12213.398043,-2451.505594
568.656182,1480.411884,12287.418637,-3294.210641
568.656503,814.226536,10732.986159,-2681.334243
568.656823,-370.102971,7624.121203,-995.924147
568.657144,592.164754,6809.894666,0.000000
568.657464,0.000000,10214.842000,306.438199
568.657785,-1406.391290,13767.830521,536.266849
568.658105,-1332.370696,14285.974681,306.438199
568.658425,-444.123565,14285.974681,-306.438199
568.658746,296.082377,13841.851115,459.657299
568.659066,-1184.329507,12731.542202,1302.362347
568.659387,-888.247130,11029.068536,689.485948
568.659707,-444.123565,10214.842000,0.000000
568.660028,0.000000,9770.718434,612.876398
568.660348,0.000000,8364.327145,383.047749
568.660669,222.061783,7994.224174,459.657299
568.660989,1110.308913,8586.388927,842.705048
568.661310,2146.597232,10658.965565,1685.410096
568.661630,4663.297435,11917.315666,536.266849
568.661951,4737.318029,11251.130318,-1532.190996
568.662271,4811.338623,10140.821405,-1915.238745
568.662592,4663.297435,10955.047942,-1608.800546
568.662912,2220.617826,9400.615463,-2834.553343
568.663233,296.082377,6883.915261,-2604.724693
568.663553,3552.988522,7328.038826,-306.438199
568.663874,2590.720797,10881.027347,459.657299
568.664194,1924.535449,14137.933492,0.000000
568.664514,1628.453072,14434.015869,-1915.238745
568.664835,-666.185348,12731.542202,-2145.067394
568.665155,-2442.679609,10658.965565,-229.828649
568.665476,-2590.720797,9474.636058,2374.896044
568.665796,-1998.556043,9548.656652,1608.800546
568.666117,-1924.535449,11917.315666,766.095498
568.666437,-2368.659014,13471.748144,76.609550
568.666758,-2886.803174,13101.645173,-689.485948
568.667078,-2072.576638,11843.295072,919.314598
568.667399,-1184.329507,11547.212695,3447.429741
568.667719,-148.041188,12583.501014,3064.381992
568.668040,-592.164754,12065.356855,459.657299
568.668360,-296.082377,9770.718434,-1149.143247
568.668681,518.144159,8882.471304,229.828649
568.669001,740.205942,7846.182985,2068.457845
568.669321,444.123565,6809.894666,1072.533697
568.669642,3256.906145,8512.368333,-153.219100
568.669962,4663.297435,11251.130318,-1149.143247
568.670283,3404.947333,11843.295072,-2528.115143
568.670603,4219.173869,10584.944971,-2681.334243
568.670924,4441.235652,10362.883188,-2145.067394
568.671244,3627.009116,9548.656652,-919.314598
568.671565,2812.782580,8290.306550,0.000000
568.671885,2664.741391,6587.832884,-1762.019645
568.672206,1628.453072,8734.430116,-1991.848295
568.672526,1184.329507,11991.336260,-995.924147
568.672847,1184.329507,12731.542202,-1225.752797
568.673167,370.102971,10510.924376,-1608.800546
568.673487,888.247130,9400.615463,-229.828649
568.673808,962.267725,10658.965565,2145.067394
568.674128,-3034.844362,12361.439231,2298.286494
568.674449,-2886.803174,12509.480420,689.485948
568.674769,-2590.720797,12657.521608,383.047749
568.675090,-1184.329507,11843.295072,612.876398
568.675410,148.041188,10881.027347,1762.019645
568.675731,0.000000,12139.377449,1685.410096
568.676051,-2590.720797,12805.562797,-306.438199
568.676372,-2590.720797,13101.645173,0.000000
568.676692,-740.205942,11695.253884,229.828649
568.677013,888.247130,9844.739029,919.314598
568.677333,1702.473667,9474.636058,2298.286494
568.677653,2294.638420,9770.718434,842.705048
568.677974,1332.370696,10436.903782,-383.047749
568.678294,1628.453072,9696.697840,-1378.971896
568.678615,4663.297435,9770.718434,-1915.238745
568.678935,6365.771101,10066.800811,-1302.362347
568.679256,4145.153275,9326.594869,-1302.362347
568.679576,2738.761985,8808.450710,-2221.676944
568.679897,2886.803174,9400.615463,-1915.238745
568.680217,3997.112087,12139.377449,-1378.971896
568.680538,1702.473667,11991.336260,-1302.362347
568.680858,740.205942,10658.965565,-2451.505594
568.681179,2072.576638,11325.150913,-2451.505594
568.681499,296.082377,11399.171507,-1685.410096
568.681819,-2072.576638,10362.883188,306.438199
568.682140,-1406.391290,12213.398043,1225.752797
568.682460,-2886.803174,13323.706956,1838.629195
568.682781,-4959.379811,12953.603985,1455.581446
568.683101,-1850.514855,11325.150913,1838.629195
568.683422,-1554.432478,11547.212695,2451.505594
568.683742,-3627.009116,12953.603985,3140.991542
568.684063,-3034.844362,12065.356855,3064.381992
568.684383,-3552.988522,10732.986159,1455.581446
568.684704,-1480.411884,10658.965565,1915.238745
568.685024,222.061783,11251.130318,4136.915689
568.685345,148.041188,10362.883188,689.485948
568.685665,666.185348,10140.821405,-3217.601092
568.685986,2220.617826,9918.759623,-2451.505594
568.686306,3775.050304,9696.697840,-612.876398
568.686626,4959.379811,9918.759623,1225.752797
568.686947,4737.318029,10362.883188,153.219100
568.687267,4737.318029,10584.944971,-2681.334243
568.687588,3849.070898,9104.533087,-2681.334243
568.687908,3478.967927,7402.059420,-919.314598
568.688229,4885.359217,7179.997637,229.828649
568.688549,4737.318029,7920.203579,0.000000
568.688870,2146.597232,8142.265362,-1991.848295
568.689190,2812.782580,8586.388927,-3140.991542
568.689511,3034.844362,8290.306550,-1455.581446
568.689831,3182.885551,10140.821405,-306.438199
568.690152,518.144159,9622.677246,-383.047749
568.690472,-666.185348,8956.491898,0.000000
568.690792,148.041188,9178.553681,1915.238745
568.691113,1406.391290,9696.697840,2987.772442
568.691433,0.000000,10584.944971,995.924147
568.691754,0.000000,12731.542202,-612.876398
568.692074,296.082377,15322.262999,-689.485948
568.692395,-740.205942,13619.789333,229.828649
568.692715,518.144159,9326.594869,459.657299
568.693036,2960.823768,7328.038826,842.705048
568.693356,1110.308913,8142.265362,612.876398
568.693677,-370.102971,8734.430116,919.314598
568.693997,0.000000,7920.203579,0.000000
568.694318,2516.700203,8438.347739,76.609550
568.694638,5995.668130,9326.594869,2451.505594
568.694958,7846.182985,9326.594869,1378.971896
568.695279,7254.018232,7402.059420,-3217.601092
568.695599,4589.276840,5107.421000,-5132.839837
568.695920,5921.647536,5921.647536,-3064.381992
568.696240,7550.100608,6439.791695,0.000000
568.696561,7550.100608,8290.306550,-306.438199
568.696881,8956.491898,11029.068536,-2451.505594
568.697202,7476.080014,12139.377449,-5132.839837
568.697522,6291.750507,12731.542202,-6128.763984
568.697843,6291.750507,10066.800811,-2911.162892
568.698163,3330.926739,6735.874072,153.219100
568.698484,4145.153275,5033.400406,2145.067394
568.698804,2220.617826,6365.771101,1685.410096
568.699125,370.102971,10214.842000,-536.266849
568.699445,74.020594,12361.439231,-766.095498
568.699765,2368.659014,14582.057057,0.000000
568.700086,2442.679609,10955.047942,1685.410096
568.700406,2294.638420,6513.812290,2451.505594
568.700727,4441.235652,5329.482782,3830.477490
568.701047,1554.432478,6735.874072,3064.381992
568.701368,1036.288319,8364.327145,1532.190996
568.701688,4589.276840,8660.409521,-842.705048
568.702009,7402.059420,8216.285956,-3294.210641
568.702329,9474.636058,7328.038826,-1915.238745
568.702650,9622.677246,9326.594869,0.000000
568.702970,7846.182985,8882.471304,-1685.410096
568.703291,5699.585753,7624.121203,-3294.210641
568.703611,6735.874072,6735.874072,-2834.553343
568.703931,8216.285956,6809.894666,-1762.019645
568.704252,9178.553681,8734.430116,1455.581446
568.704572,6883.915261,11695.253884,2145.067394
568.704893,4959.379811,12657.521608,-536.266849
568.705213,2442.679609,9400.615463,-2451.505594
568.705534,4219.173869,6661.853478,-1149.143247
568.705854,3478.967927,5033.400406,1685.410096
568.706175,1924.535449,5699.585753,2681.334243
568.706495,1406.391290,6661.853478,1302.362347
568.706816,-222.061783,6661.853478,306.438199
568.707136,1998.556043,7476.080014,2451.505594
568.707457,5329.482782,8586.388927,4903.011187
568.707777,6143.709319,7105.977043,3370.820191
568.708097,5329.482782,6735.874072,-766.095498
568.708418,5921.647536,7476.080014,-1685.410096
568.708738,5403.503377,8808.450710,-842.705048
568.709059,6587.832884,7772.162391,153.219100
568.709379,6883.915261,5773.606348,-1072.533697
568.709700,10881.027347,7476.080014,-2145.067394
568.710020,7402.059420,8660.409521,-1991.848295
568.710341,4885.359217,9400.615463,-1455.581446
568.710661,7328.038826,8808.450710,153.219100
568.710982,5773.606348,5847.626942,2068.457845
568.711302,5551.544565,4589.276840,2987.772442
568.711623,6069.688724,5403.503377,1991.848295
568.711943,3182.885551,5403.503377,-2834.553343
568.712264,3849.070898,6365.771101,-3600.648841
568.712584,4367.215058,5995.668130,-612.876398
568.712904,5255.462188,5255.462188,1378.971896
568.713225,5773.606348,6809.894666,2757.943793
568.713545,3997.112087,8512.368333,689.485948
568.713866,3775.050304,11621.233289,-2451.505594
568.714186,4589.276840,12435.459826,-2221.676944
568.714507,4959.379811,11843.295072,-1225.752797
568.714827,5921.647536,8882.471304,-1608.800546
568.715148,6143.709319,8438.347739,76.609550
568.715468,4737.318029,9030.512492,612.876398
568.715789,2368.659014,10066.800811,-536.266849
568.716109,3775.050304,9178.553681,-689.485948
568.716430,4737.318029,7846.182985,-919.314598
568.716750,5625.565159,8216.285956,842.705048
568.717070,5551.544565,7031.956449,2451.505594
568.717391,4885.359217,6291.750507,1685.410096
568.717711,3256.906145,5403.503377,1225.752797
568.718032,3627.009116,7031.956449,612.876398
568.718352,4293.194464,7772.162391,-919.314598
568.718673,4589.276840,7994.224174,-3140.991542
568.718993,7772.162391,12361.439231,-3140.991542
568.719314,7402.059420,13989.892304,-2834.553343
568.719634,5625.565159,12065.356855,-2834.553343
568.719955,6069.688724,11251.130318,-2068.457845
568.720275,8068.244768,10658.965565,-766.095498
568.720596,2664.741391,8364.327145,-612.876398
568.720916,2220.617826,7179.997637,229.828649
568.721236,2886.803174,8290.306550,766.095498
568.721557,1628.453072,6957.935855,1302.362347
568.721877,1480.411884,4441.235652,1532.190996
568.722198,5625.565159,3997.112087,459.657299
568.722518,3627.009116,5033.400406,229.828649
568.722839,3034.844362,8068.244768,689.485948
568.723159,4959.379811,10288.862594,-306.438199
568.723480,5181.441594,9918.759623,-766.095498
568.723800,7476.080014,9548.656652,919.314598
568.724121,8808.450710,8956.491898,842.705048
568.724441,7550.100608,7476.080014,-1685.410096
568.724762,7624.121203,8512.368333,-2604.724693
568.725082,5773.606348,9252.574275,-2374.896044
568.725403,5255.462188,7624.121203,-1838.629195
568.725723,6809.894666,6143.709319,612.876398
568.726043,5921.647536,4367.215058,153.219100
568.726364,4293.194464,4811.338623,-1149.143247
568.726684,6069.688724,5773.606348,2298.286494
568.727005,5329.482782,5329.482782,2145.067394
568.727325,6883.915261,5107.421000,1685.410096
568.727646,7179.997637,4441.235652,1225.752797
568.727966,5699.585753,4737.318029,-536.266849
568.728287,8512.368333,7254.018232,536.266849
568.728607,8808.450710,7698.141797,229.828649
568.728928,6957.935855,7328.038826,-3753.867940
568.729248,10658.965565,8438.347739,-4136.915689
568.729569,8734.430116,9622.677246,-1225.752797
568.729889,5477.523971,9178.553681,-536.266849
568.730209,6513.812290,7624.121203,-229.828649
568.730530,5107.421000,7031.956449,-1225.752797
568.730850,2442.679609,6735.874072,-306.438199
568.731171,3108.864956,8586.388927,1991.848295
568.731491,2072.576638,9252.574275,1302.362347
568.731812,2072.576638,10510.924376,-995.924147
568.732132,3775.050304,11547.212695,995.924147
568.732453,1258.350101,8808.450710,1072.533697
568.732773,1406.391290,6513.812290,3064.381992
568.733094,2886.803174,7698.141797,5132.839837
568.733414,2812.782580,9770.718434,1608.800546
568.733735,3404.947333,10436.903782,612.876398
568.734055,5625.565159,9918.759623,-1685.410096
568.734375,4441.235652,7402.059420,-2451.505594
568.734696,4589.276840,7402.059420,0.000000
568.735016,7772.162391,9696.697840,1455.581446
568.735337,4441.235652,11473.192101,-842.705048
568.735657,3997.112087,9030.512492,-4366.744339
568.735978,6957.935855,6957.935855,-3677.258390
568.736298,5625.565159,7624.121203,-2068.457845
568.736619,5255.462188,9844.739029,2451.505594
568.736939,5477.523971,10732.986159,3524.039291
568.737260,3256.906145,9104.533087,-536.266849
568.737580,5773.606348,8586.388927,-1608.800546
568.737901,6291.750507,6883.915261,-383.047749
568.738221,3256.906145,3701.029710,-1378.971896
568.738541,3923.091493,5181.441594,536.266849
568.738862,3997.112087,8142.265362,2374.896044
568.739182,4145.153275,8438.347739,306.438199
568.739503,5255.462188,6957.935855,-536.266849
568.739823,5033.400406,7105.977043,-2221.676944
568.740144,2442.679609,8734.430116,-2145.067394
568.740464,3108.864956,9104.533087,-995.924147
568.740785,5847.626942,8438.347739,-1838.629195
568.741105,8290.306550,8734.430116,-1149.143247
568.741426,7254.018232,9844.739029,1762.019645
568.741746,4811.338623,10214.842000,536.266849
568.742067,2960.823768,8586.388927,-2221.676944
568.742387,4367.215058,5699.585753,-689.485948
568.742708,7328.038826,5403.503377,2374.896044
568.743028,9622.677246,5033.400406,3064.381992
568.743348,8808.450710,6809.894666,1838.629195
568.743669,5773.606348,6439.791695,-842.705048
568.743989,4441.235652,5551.544565,-1991.848295
568.744310,6069.688724,5181.441594,-229.828649
568.744630,7772.162391,6143.709319,842.705048
568.744951,8734.430116,8956.491898,-306.438199
568.745271,7624.121203,11251.130318,-1225.752797
568.745592,4071.132681,10362.883188,-2068.457845
568.745912,4145.153275,9622.677246,-1149.143247
568.746233,5107.421000,8290.306550,0.000000
568.746553,3552.988522,6735.874072,-229.828649
568.746874,4515.256246,8512.368333,76.609550
568.747194,5773.606348,10436.903782,0.000000
568.747514,3478.967927,9178.553681,-1225.752797
568.747835,4737.318029,5699.585753,229.828649
568.748155,5847.626942,4737.318029,1685.410096
568.748476,4145.153275,5625.565159,1378.971896
568.748796,3997.112087,7179.997637,229.828649
568.749117,5921.647536,8512.368333,76.609550
568.749437,5995.668130,8216.285956,0.000000
568.749758,6883.915261,9400.615463,1378.971896
568.750078,5699.585753,9548.656652,-612.876398
568.750399,3997.112087,9992.780217,-4366.744339
568.750719,5847.626942,11473.192101,-2911.162892
568.751040,3701.029710,10955.047942,-306.438199
568.751360,2886.803174,8956.491898,229.828649
568.751680,4219.173869,7698.141797,1072.533697
568.752001,1776.494261,8734.430116,383.047749
568.752321,1110.308913,9918.759623,-536.266849
568.752642,2072.576638,8290.306550,383.047749
568.752962,1406.391290,5847.626942,-76.609550
568.753283,2960.823768,4071.132681,153.219100
568.753603,6365.771101,6143.709319,3064.381992
568.753924,5699.585753,8734.430116,2681.334243
568.754244,5847.626942,10066.800811,-153.219100
568.754565,6883.915261,9474.636058,-2145.067394
568.754885,6513.812290,7476.080014,-2757.943793
568.755206,7105.977043,6735.874072,0.000000
568.755526,7550.100608,7698.141797,1915.238745
568.755847,5699.585753,8882.471304,-1608.800546
568.756167,6735.874072,10732.986159,-4366.744339
568.756487,6291.750507,10362.883188,-2681.334243
568.756808,3404.947333,6439.791695,-1072.533697
568.757128,3997.112087,5255.462188,1455.581446
568.757449,4663.297435,6957.935855,2145.067394
568.757769,2220.617826,7698.141797,306.438199
568.758090,4663.297435,9548.656652,1838.629195
568.758410,5403.503377,9326.594869,1225.752797
568.758731,3478.967927,7254.018232,306.438199
568.759051,5921.647536,7328.038826,2374.896044
568.759372,5995.668130,7105.977043,1455.581446
568.759692,3182.885551,5995.668130,536.266849
568.760013,5847.626942,7994.224174,1072.533697
568.760333,7402.059420,8438.347739,0.000000
568.760653,4663.297435,9326.594869,-1225.752797
568.760974,6957.935855,9770.718434,-995.924147
568.761294,6587.832884,10510.924376,-612.876398
568.761615,3478.967927,9178.553681,-1378.971896
568.761935,5033.400406,6957.935855,-919.314598
568.762256,5921.647536,6069.688724,-459.657299
568.762576,3552.988522,5255.462188,-995.924147
568.762897,4145.153275,7328.038826,536.266849
568.763217,4589.276840,8808.450710,0.000000
568.763538,4367.215058,8882.471304,-612.876398
568.763858,6957.935855,8660.409521,2451.505594
568.764179,6735.874072,7105.977043,2221.676944
568.764499,5921.647536,5403.503377,-229.828649
568.764820,4885.359217,3256.906145,-612.876398
568.765141,5625.565159,6365.771101,-842.705048
568.765461,5921.647536,8142.265362,-306.438199
568.765782,5773.606348,9474.636058,-842.705048
568.766102,7179.997637,9844.739029,-3140.991542
568.766423,3775.050304,7994.224174,-4596.572988
568.766743,2960.823768,8438.347739,-2451.505594
568.767064,4663.297435,8956.491898,153.219100
568.767385,2294.638420,8438.347739,-459.657299
568.767705,3034.844362,8364.327145,-229.828649
568.768026,3627.009116,9696.697840,-383.047749
568.768346,2220.617826,10288.862594,-306.438199
568.768667,3478.967927,11103.089130,1762.019645
568.768987,5773.606348,10658.965565,2528.115143
568.769308,6217.729913,8660.409521,1072.533697
568.769628,6291.750507,7476.080014,689.485948
568.769949,3997.112087,5699.585753,-612.876398
568.770270,3330.926739,6883.915261,-766.095498
568.770590,4367.215058,9178.553681,1762.019645
568.770911,3108.864956,9844.739029,689.485948
568.771231,6217.729913,9844.739029,-153.219100
568.771552,6957.935855,9474.636058,-383.047749
568.771872,3330.926739,8142.265362,-1378.971896
568.772193,2294.638420,6587.832884,-766.095498
568.772514,4145.153275,8586.388927,-612.876398
568.772834,4959.379811,8438.347739,76.609550
568.773155,6365.771101,7994.224174,689.485948
568.773475,9992.780217,9474.636058,0.000000
568.773796,6143.709319,9622.677246,-2374.896044
568.774116,4071.132681,8216.285956,-2987.772442
568.774437,7550.100608,7031.956449,0.000000
568.774758,7624.121203,5477.523971,1225.752797
568.775078,8956.491898,5551.544565,2221.676944
568.775399,8734.430116,8142.265362,306.438199
568.775719,1776.494261,6439.791695,-4443.353888
568.776040,1924.535449,6439.791695,-3907.087040
568.776360,4737.318029,7105.977043,536.266849
568.776681,5921.647536,8364.327145,2374.896044
568.777002,5921.647536,8734.430116,2681.334243
568.777322,3108.864956,9622.677246,-229.828649
568.777643,592.164754,10288.862594,-2068.457845
568.777963,370.102971,10214.842000,76.609550
568.778284,3330.926739,8512.368333,2145.067394
568.778604,6143.709319,7402.059420,2911.162892
568.778925,6143.709319,8068.244768,2834.553343
568.779245,5033.400406,8290.306550,1302.362347
568.779566,3775.050304,8808.450710,-1455.581446
568.779887,2590.720797,7624.121203,-1225.752797
568.780207,4589.276840,6661.853478,306.438199
568.780528,6217.729913,6069.688724,919.314598
568.780848,6661.853478,5921.647536,766.095498
568.781169,5625.565159,7031.956449,-536.266849
568.781489,3552.988522,7402.059420,-2451.505594
568.781810,3627.009116,7994.224174,-2451.505594
568.782131,4959.379811,9326.594869,-1608.800546
568.782451,7105.977043,8586.388927,-995.924147
568.782772,7698.141797,8882.471304,-1072.533697
568.783092,5921.647536,9696.697840,-995.924147
568.783413,5255.462188,9992.780217,-1149.143247
568.783733,4219.173869,9252.574275,306.438199
568.784054,5847.626942,6957.935855,919.314598
568.784375,8586.388927,6809.894666,2604.724693
568.784695,6069.688724,9252.574275,1072.533697
568.785016,2442.679609,8290.306550,-612.876398
568.785336,1850.514855,7105.977043,-1302.362347
568.785657,5699.585753,4811.338623,-153.219100
568.785977,6143.709319,3552.988522,1455.581446
568.786298,4441.235652,4811.338623,766.095498
568.786618,4737.318029,9844.739029,-1302.362347
568.786939,2516.700203,13175.665768,-1685.410096
568.787260,3108.864956,11843.295072,-766.095498
568.787580,7328.038826,10140.821405,76.609550
568.787901,6513.812290,9326.594869,-306.438199
568.788221,4811.338623,11251.130318,-1149.143247
568.788542,2368.659014,11473.192101,-612.876398
568.788862,1776.494261,10140.821405,-1455.581446
568.789183,2886.803174,7920.203579,919.314598
568.789504,4589.276840,7846.182985,3064.381992
568.789824,4145.153275,9030.512492,1455.581446
568.790145,3330.926739,10140.821405,0.000000
568.790465,1850.514855,7476.080014,-1532.190996
568.790786,3404.947333,3256.906145,-536.266849
568.791106,6661.853478,3627.009116,2298.286494
568.791427,6587.832884,6217.729913,2451.505594
568.791748,5477.523971,9326.594869,153.219100
568.792068,6883.915261,11843.295072,-2221.676944
568.792389,7920.203579,11177.109724,-2528.115143
568.792709,7105.977043,7624.121203,-1838.629195
568.793030,7402.059420,5847.626942,-689.485948
568.793350,7402.059420,6587.832884,-766.095498
568.793671,5625.565159,8364.327145,-612.876398
568.793992,6587.832884,9474.636058,-229.828649
568.794312,6661.853478,8734.430116,-2451.505594
568.794633,4071.132681,6957.935855,-2374.896044
568.794953,4885.359217,6735.874072,536.266849
568.795274,4589.276840,5847.626942,1532.190996
568.795594,3256.906145,4515.256246,1225.752797
568.795915,5625.565159,5625.565159,2298.286494
568.796235,3478.967927,6439.791695,919.314598
568.796556,1406.391290,7994.224174,0.000000
568.796877,3330.926739,10288.862594,229.828649
568.797197,4885.359217,11029.068536,536.266849
568.797518,5181.441594,8882.471304,383.047749
568.797838,6217.729913,7402.059420,-459.657299
568.798159,5107.421000,7624.121203,-2068.457845
568.798479,2664.741391,8438.347739,-2221.676944
568.798800,3627.009116,10214.842000,0.000000
568.799121,5107.421000,10955.047942,995.924147
568.799441,4959.379811,7476.080014,76.609550
568.799762,6217.729913,6587.832884,306.438199
568.800082,5107.421000,5625.565159,-536.266849
568.800403,2294.638420,3997.112087,-2374.896044
568.800723,4441.235652,4737.318029,-1072.533697
568.801044,5847.626942,7920.203579,229.828649
568.801365,5921.647536,7994.224174,1838.629195
568.801685,7105.977043,8290.306550,1991.848295
568.802006,6513.812290,10510.924376,0.000000
568.802326,6513.812290,12657.521608,-689.485948
568.802647,3701.029710,12065.356855,-842.705048
568.802967,5847.626942,7920.203579,-2145.067394
568.803288,7476.080014,5995.668130,0.000000
568.803608,5995.668130,7105.977043,919.314598
568.803929,2146.597232,9696.697840,-612.876398
568.804250,1554.432478,9474.636058,-3140.991542
568.804570,2886.803174,9252.574275,-2374.896044
568.804891,6143.709319,7476.080014,1378.971896
568.805211,5033.400406,5255.462188,3064.381992
568.805532,4737.318029,5995.668130,2528.115143
568.805852,2590.720797,8216.285956,229.828649
568.806173,1480.411884,8956.491898,-1225.752797
568.806494,5033.400406,7698.141797,-76.609550
568.806814,8290.306550,7920.203579,306.438199
568.807135,8956.491898,10362.883188,0.000000
568.807455,7476.080014,11695.253884,-1072.533697
568.807776,3997.112087,9770.718434,-2604.724693
568.808096,3997.112087,7550.100608,-2145.067394
568.808417,6513.812290,5847.626942,1532.190996
568.808738,6217.729913,5329.482782,2451.505594
568.809058,3404.947333,6587.832884,-1302.362347
568.809379,740.205942,7772.162391,-3753.867940
568.809699,2368.659014,8142.265362,-2298.286494
568.810020,3849.070898,5995.668130,76.609550
568.810340,5625.565159,5551.544565,1685.410096
568.810661,5403.503377,5847.626942,2451.505594
568.810982,3478.967927,8216.285956,153.219100
568.811302,4071.132681,9918.759623,-1225.752797
568.811623,5773.606348,8068.244768,-1225.752797
568.811943,7624.121203,5699.585753,-1072.533697
568.812264,11399.171507,7550.100608,0.000000
568.812584,8290.306550,8808.450710,-1838.629195
568.812905,6143.709319,9696.697840,-4519.963438
568.813225,6661.853478,10362.883188,-4213.525239
568.813546,4441.235652,8364.327145,-2528.115143
568.813867,3627.009116,6143.709319,612.876398
568.814187,4367.215058,5255.462188,1072.533697
568.814508,2812.782580,9622.677246,-383.047749
568.814828,222.061783,10881.027347,612.876398
568.815149,1480.411884,11473.192101,1455.581446
568.815469,2368.659014,9992.780217,842.705048
568.815790,2516.700203,8512.368333,842.705048
568.816111,3627.009116,8142.265362,2834.553343
568.816431,4737.318029,9400.615463,2068.457845
568.816752,3478.967927,10362.883188,153.219100
568.817072,4441.235652,10140.821405,-536.266849
568.817393,5847.626942,9474.636058,-2757.943793
568.817713,6587.832884,9474.636058,-1072.533697
568.818034,6069.688724,9400.615463,612.876398
568.818355,4959.379811,10140.821405,-1302.362347
568.818675,7328.038826,7328.038826,-2374.896044
568.818996,4959.379811,5921.647536,-2298.286494
568.819316,5477.523971,6069.688724,1225.752797
568.819637,6513.812290,8956.491898,3677.258390
568.819957,5551.544565,8142.265362,1532.190996
568.820278,5995.668130,6365.771101,919.314598
568.820598,9178.553681,5033.400406,1608.800546
568.820919,6143.709319,3923.091493,1072.533697
568.821240,7031.956449,3923.091493,0.000000
568.821560,7550.100608,5773.606348,-766.095498
568.821881,7105.977043,7624.121203,-1378.971896
568.822201,7476.080014,8290.306550,153.219100
568.822522,7476.080014,8512.368333,-153.219100
568.822842,6587.832884,7772.162391,-2145.067394
568.823163,3849.070898,8808.450710,-2451.505594
568.823484,3034.844362,8808.450710,-459.657299
568.823804,2960.823768,7105.977043,-383.047749
568.824125,3701.029710,5995.668130,306.438199
568.824445,3775.050304,6957.935855,689.485948
568.824766,3552.988522,8882.471304,229.828649
568.825086,370.102971,9178.553681,689.485948
568.825407,888.247130,8364.327145,1302.362347
568.825728,3404.947333,8142.265362,2757.943793
568.826048,3182.885551,6661.853478,3447.429741
568.826369,3478.967927,9030.512492,995.924147
568.826689,4663.297435,10214.842000,-1532.190996
568.827010,2220.617826,10214.842000,-2374.896044
568.827330,4293.194464,9178.553681,-2145.067394
568.827651,7105.977043,7772.162391,1149.143247
568.827972,6439.791695,8512.368333,1608.800546
568.828292,5625.565159,7994.224174,-689.485948
568.828613,5033.400406,7402.059420,-2451.505594
568.828933,3997.112087,5329.482782,-3447.429741
568.829254,6661.853478,5773.606348,-306.438199
568.829574,7179.997637,5773.606348,2374.896044
568.829895,6809.894666,7994.224174,229.828649
568.830215,7772.162391,9622.677246,-919.314598
568.830536,4441.235652,9696.697840,-3677.258390
568.830857,5551.544565,8142.265362,-3524.039291
568.831177,7920.203579,8290.306550,-459.657299
568.831498,6291.750507,9992.780217,0.000000
568.831818,5107.421000,10658.965565,0.000000
568.832139,6217.729913,11621.233289,459.657299
568.832459,4885.359217,11473.192101,-689.485948
568.832780,2664.741391,8660.409521,-1608.800546
568.833101,1998.556043,4959.379811,-612.876398
568.833421,2738.761985,4219.173869,229.828649
568.833742,4441.235652,5625.565159,2221.676944
568.834062,3701.029710,7624.121203,2681.334243
568.834383,4145.153275,9104.533087,-689.485948
568.834703,3775.050304,9696.697840,-2145.067394
568.835024,4367.215058,9252.574275,-919.314598
568.835345,6439.791695,9918.759623,383.047749
568.835665,8142.265362,11399.171507,995.924147
568.835986,7402.059420,11695.253884,306.438199
568.836306,5033.400406,10362.883188,-919.314598
568.836627,5477.523971,9326.594869,-1072.533697
568.836947,5181.441594,8808.450710,689.485948
568.837268,3923.091493,6143.709319,459.657299
568.837588,4811.338623,4441.235652,536.266849
568.837909,5403.503377,6809.894666,-459.657299
568.838230,2812.782580,5181.441594,0.000000
568.838550,4737.318029,3923.091493,383.047749
568.838871,7328.038826,3775.050304,-229.828649
568.839191,6143.709319,5255.462188,-1072.533697
568.839512,5699.585753,9326.594869,-2221.676944
568.839832,6735.874072,11991.336260,-3294.210641
568.840153,6365.771101,11325.150913,-3447.429741
568.840474,7698.141797,9548.656652,-1532.190996
568.840794,8216.285956,8586.388927,-536.266849
568.841115,4737.318029,8660.409521,-1838.629195
568.841435,2960.823768,10214.842000,-612.876398
568.841756,3256.906145,10807.006753,842.705048
568.842076,2664.741391,9918.759623,1685.410096
568.842397,3775.050304,7031.956449,3983.696590
568.842718,3775.050304,5255.462188,3677.258390
568.843038,2886.803174,4885.359217,1991.848295
568.843359,2294.638420,4441.235652,2528.115143
568.843679,2294.638420,4219.173869,1378.971896
568.844000,3182.885551,3627.009116,229.828649
568.844320,5181.441594,5551.544565,689.485948
568.844641,6143.709319,9030.512492,76.609550
568.844962,6661.853478,10732.986159,-2145.067394
568.845282,7179.997637,11695.253884,-2528.115143
568.845603,7920.203579,10807.006753,-2528.115143
568.845923,6661.853478,9770.718434,-2298.286494
568.846244,6809.894666,10436.903782,-1762.019645
568.846564,7328.038826,9030.512492,-919.314598
568.846885,5921.647536,8142.265362,-459.657299
568.847205,5699.585753,7846.182985,1149.143247
568.847526,4589.276840,8364.327145,2221.676944
568.847847,2590.720797,8142.265362,1915.238745
568.848167,3182.885551,7550.100608,2298.286494
568.848488,2220.617826,5107.421000,1838.629195
568.848808,2072.576638,2664.741391,1608.800546
568.849129,4515.256246,3478.967927,2145.067394
568.849449,2886.803174,5699.585753,229.828649
568.849770,4293.194464,9474.636058,-842.705048
568.850091,6735.874072,13545.768739,-842.705048
568.850411,7698.141797,13915.871710,-1991.848295
568.850732,6365.771101,9992.780217,-1838.629195
568.851052,8808.450710,7402.059420,-1149.143247
568.851373,7402.059420,7624.121203,229.828649
568.851693,3849.070898,8068.244768,-842.705048
568.852014,4293.194464,7920.203579,-1915.238745
568.852335,6069.688724,8216.285956,-2681.334243
568.852655,5403.503377,8068.244768,-1608.800546
568.852976,4441.235652,9104.533087,1532.190996
568.853296,3849.070898,8512.368333,2374.896044
568.853617,2442.679609,6661.853478,1838.629195
568.853937,3478.967927,5921.647536,3677.258390
568.854258,2812.782580,6143.709319,2604.724693
568.854578,2664.741391,7105.977043,536.266849
568.854899,3256.906145,8586.388927,-459.657299
568.855220,4071.132681,10955.047942,-1378.971896
568.855540,5921.647536,11769.274478,-383.047749
568.855861,5921.647536,9622.677246,0.000000
568.856181,5847.626942,7476.080014,-2145.067394
568.856502,5255.462188,7624.121203,-1991.848295
568.856822,3552.988522,9252.574275,-1762.019645
568.857143,5773.606348,9548.656652,-1455.581446
568.857464,7328.038826,9326.594869,-1608.800546
568.857784,5995.668130,8216.285956,0.000000
568.858105,4441.235652,6883.915261,1838.629195
568.858425,4293.194464,8290.306550,1915.238745
568.858746,3182.885551,6957.935855,0.000000
568.859066,4441.235652,4885.359217,-995.924147
568.859387,5773.606348,3627.009116,612.876398
568.859708,5625.565159,5477.523971,2068.457845
568.860028,4515.256246,7402.059420,3217.601092
568.860349,5477.523971,9400.615463,536.266849
568.860669,6513.812290,10140.821405,-3447.429741
568.860990,5921.647536,8512.368333,-3753.867940
568.861310,7698.141797,7698.141797,-2298.286494
568.861631,7994.224174,7031.956449,-2068.457845
568.861952,4515.256246,7105.977043,-1838.629195
568.862272,4885.359217,11103.089130,-689.485948
568.862593,4959.379811,12435.459826,-766.095498
568.862913,2812.782580,10955.047942,-1302.362347
568.863234,5477.523971,7254.018232,0.000000
568.863555,3923.091493,5551.544565,1532.190996
568.863875,2294.638420,5033.400406,2451.505594
568.864196,1332.370696,5403.503377,3064.381992
568.864516,2590.720797,5033.400406,2068.457845
568.864837,4441.235652,6143.709319,229.828649
568.865158,5921.647536,8216.285956,153.219100
568.865478,5773.606348,8882.471304,-919.314598
568.865799,5625.565159,10288.862594,-3140.991542
568.866120,7031.956449,10214.842000,-1685.410096
568.866440,6513.812290,8882.471304,459.657299
568.866761,7179.997637,8956.491898,612.876398
568.867081,7550.100608,9844.739029,-919.314598
568.867402,4219.173869,12361.439231,-3830.477490
568.867723,3701.029710,12139.377449,-4136.915689
568.868043,4959.379811,9474.636058,-1455.581446
568.868364,6217.729913,7550.100608,2145.067394
568.868685,5329.482782,5995.668130,5592.497135
568.869005,2516.700203,6513.812290,3370.820191
568.869326,1998.556043,7105.977043,0.000000
568.869647,740.205942,5329.482782,0.000000
568.869967,3701.029710,5033.400406,1455.581446
568.870288,7031.956449,5255.462188,2374.896044
568.870608,6587.832884,7772.162391,1685.410096
568.870929,5699.585753,10584.944971,-766.095498
568.871250,5995.668130,11325.150913,-2987.772442
568.871570,6143.709319,9030.512492,-4213.525239
568.871891,6957.935855,7698.141797,-2374.896044
568.872212,7698.141797,7920.203579,-229.828649
568.872532,6661.853478,10140.821405,76.609550
568.872853,5107.421000,10510.924376,-383.047749
568.873173,5107.421000,9696.697840,-1991.848295
568.873494,5551.544565,7031.956449,-919.314598
568.873815,3552.988522,4219.173869,1149.143247
568.874135,3034.844362,5033.400406,1762.019645
568.874456,2072.576638,6513.812290,2374.896044
568.874777,2294.638420,8290.306550,2757.943793
568.875097,3478.967927,7994.224174,2757.943793
568.875418,4959.379811,7179.997637,919.314598
568.875739,5107.421000,6809.894666,-1225.752797
568.876059,5329.482782,6735.874072,-919.314598
568.876380,5847.626942,8216.285956,0.000000
568.876700,6217.729913,8290.306550,459.657299
568.877021,8068.244768,8290.306550,-766.095498
568.877342,7994.224174,9548.656652,-2145.067394
568.877662,6957.935855,9474.636058,-3217.601092
568.877983,4367.215058,9770.718434,-4826.401637
568.878304,5921.647536,9992.780217,-3294.210641
568.878624,5847.626942,9696.697840,-153.219100
568.878945,3552.988522,7920.203579,2068.457845
568.879265,2738.761985,6513.812290,3753.867940
568.879586,2294.638420,9252.574275,2221.676944
568.879907,888.247130,9696.697840,919.314598
568.880227,2294.638420,7105.977043,-459.657299
568.880548,4663.297435,5329.482782,76.609550
568.880869,5403.503377,5699.585753,2451.505594
568.881189,5477.523971,6957.935855,3064.381992
568.881510,5847.626942,8660.409521,842.705048
568.881831,6365.771101,9918.759623,-2221.676944
568.882151,6439.791695,9104.533087,-3677.258390
568.882472,7698.141797,7179.997637,-3753.867940
568.882792,10436.903782,8438.347739,-2834.553343
568.883113,8290.306550,11251.130318,-1225.752797
568.883434,4959.379811,11399.171507,-1378.971896
568.883754,5255.462188,10362.883188,-2604.724693
568.884075,5773.606348,8216.285956,-2068.457845
568.884396,4663.297435,6809.894666,1608.800546
568.884716,4145.153275,6735.874072,3753.867940
568.885037,3182.885551,6143.709319,2374.896044
568.885357,2368.659014,6735.874072,1302.362347
568.885678,2960.823768,6291.750507,2451.505594
568.885999,5329.482782,4959.379811,2911.162892
568.886319,5847.626942,4737.318029,612.876398
568.886640,4663.297435,6143.709319,-1225.752797
568.886961,4515.256246,10436.903782,-2298.286494
568.887281,5551.544565,10584.944971,-2221.676944
568.887602,7846.182985,9844.739029,0.000000
568.887922,9030.512492,9548.656652,-153.219100
568.888243,4959.379811,11473.192101,-2298.286494
568.888564,2368.659014,10584.944971,-4136.915689
568.888884,1554.432478,9030.512492,-2374.896044
568.889205,4071.132681,7994.224174,1532.190996
568.889526,4811.338623,5773.606348,3983.696590
568.889846,4589.276840,7698.141797,3677.258390
568.890167,1776.494261,9400.615463,306.438199
568.890488,-740.205942,7846.182985,-2374.896044
568.890808,1406.391290,5625.565159,-689.485948
568.891129,4515.256246,4219.173869,2068.457845
568.891449,5329.482782,5921.647536,4826.401637
568.891770,5107.421000,8142.265362,3753.867940
568.892091,3330.926739,10362.883188,-2374.896044
568.892411,4811.338623,11473.192101,-4366.744339
568.892732,7476.080014,10732.986159,-2451.505594
568.893053,7105.977043,7402.059420,-1532.190996
568.893373,7698.141797,6291.750507,76.609550
568.893694,7254.018232,9918.759623,612.876398
568.894014,4071.132681,11769.274478,0.000000
568.894335,4441.235652,9770.718434,-919.314598
568.894656,4219.173869,5255.462188,-1149.143247
568.894976,4145.153275,4145.153275,0.000000
568.895297,6217.729913,5033.400406,1685.410096
568.895618,4145.153275,7031.956449,1455.581446
568.895938,3256.906145,7624.121203,383.047749
568.896259,4811.338623,7105.977043,-229.828649
568.896580,4737.318029,7031.956449,0.000000
568.896900,5995.668130,7328.038826,0.000000
568.897221,7328.038826,7846.182985,766.095498
568.897541,7105.977043,8660.409521,-766.095498
568.897862,7624.121203,9548.656652,-2374.896044
568.898183,6439.791695,7328.038826,-1225.752797
568.898503,7550.100608,7624.121203,-2221.676944
568.898824,8512.368333,7550.100608,-1685.410096
568.899145,5255.462188,7994.224174,-2068.457845
568.899465,4589.276840,8808.450710,-2298.286494
568.899786,4145.153275,9104.533087,-306.438199
568.900106,2886.803174,7994.224174,1532.190996
568.900427,3404.947333,7920.203579,2451.505594
568.900748,5847.626942,8364.327145,1455.581446
568.901068,1332.370696,8586.388927,-1685.410096
568.901389,1406.391290,6365.771101,-1608.800546
568.901710,3701.029710,5107.421000,1838.629195
568.902030,4071.132681,6143.709319,3064.381992
568.902351,5033.400406,7846.182985,2681.334243
568.902672,6513.812290,11251.130318,-842.705048
568.902992,5181.441594,10807.006753,-5669.106685
568.903313,4737.318029,9992.780217,-5592.497135
568.903633,6365.771101,9474.636058,-2911.162892
568.903954,6365.771101,9770.718434,-1455.581446
568.904275,6291.750507,11177.109724,0.000000
568.904595,4811.338623,11843.295072,-306.438199
568.904916,3775.050304,12287.418637,-1378.971896
568.905237,2812.782580,9622.677246,-612.876398
568.905557,2294.638420,6661.853478,2068.457845
568.905878,2738.761985,6291.750507,2528.115143
568.906198,3775.050304,6513.812290,2604.724693
568.906519,3404.947333,5625.565159,2145.067394
568.906840,4515.256246,4811.338623,383.047749
568.907160,4367.215058,5403.503377,689.485948
568.907481,3997.112087,5847.626942,459.657299
568.907802,6365.771101,7994.224174,-383.047749
568.908122,8734.430116,9918.759623,-1149.143247
568.908443,8882.471304,8882.471304,-1762.019645
568.908764,8586.388927,7920.203579,-2068.457845
568.909084,7772.162391,8586.388927,-2451.505594
568.909405,7031.956449,11325.150913,-3524.039291
568.909725,7031.956449,11103.089130,-2681.334243
568.910046,6217.729913,8734.430116,-1149.143247
568.910367,6217.729913,7031.956449,1608.800546
568.910687,3182.885551,5033.400406,3600.648841
568.911008,814.226536,5403.503377,3600.648841
568.911329,962.267725,4663.297435,1225.752797
568.911649,3330.926739,4589.276840,229.828649
568.911970,3552.988522,3997.112087,995.924147
568.912290,4071.132681,4145.153275,1762.019645
568.912611,4145.153275,7846.182985,2757.943793
568.912932,4515.256246,12139.377449,2451.505594
568.913252,4885.359217,12287.418637,-612.876398
568.913573,8438.347739,8808.450710,-3983.696590
568.913894,9326.594869,5921.647536,-4366.744339
568.914214,7105.977043,6439.791695,-2451.505594
568.914535,5033.400406,8512.368333,-995.924147
568.914856,4737.318029,10807.006753,-1149.143247
568.915176,6513.812290,9770.718434,-2298.286494
568.915497,7550.100608,8808.450710,-1225.752797
568.915817,4589.276840,7105.977043,153.219100
568.916138,1258.350101,6365.771101,459.657299
568.916459,814.226536,6143.709319,2681.334243
568.916779,1406.391290,6883.915261,3140.991542
568.917100,5107.421000,6513.812290,3753.867940
568.917421,5181.441594,7846.182985,2987.772442
568.917741,2960.823768,8734.430116,-919.314598
568.918062,3552.988522,9992.780217,-1685.410096
568.918382,5477.523971,9992.780217,-612.876398
568.918703,7105.977043,8438.347739,-1149.143247
568.919024,7920.203579,7772.162391,-153.219100
568.919344,7105.977043,8734.430116,-842.705048
568.919665,4737.318029,10362.883188,-2451.505594
568.919986,3701.029710,11695.253884,-3524.039291
568.920306,4737.318029,10510.924376,-4596.572988
568.920627,6439.791695,9400.615463,-3294.210641
568.920948,5329.482782,8956.491898,1608.800546
568.921268,2368.659014,9400.615463,4136.915689
568.921589,2072.576638,9400.615463,3753.867940
568.921909,1776.494261,8808.450710,1762.019645
568.922230,3108.864956,6661.853478,-153.219100
568.922551,4219.173869,4811.338623,612.876398
568.922871,5773.606348,5181.441594,2604.724693
568.923192,5847.626942,6291.750507,3600.648841
568.923513,6883.915261,6957.935855,2221.676944
568.923833,8882.471304,7550.100608,-1378.971896
568.924154,7105.977043,6143.709319,-4290.134789
568.924474,6957.935855,4959.379811,-4136.915689
568.924795,9474.636058,7476.080014,-2528.115143
568.925116,9844.739029,11029.068536,-1608.800546
568.925436,7772.162391,12583.501014,-2221.676944
568.925757,8068.244768,11103.089130,-3370.820191
568.926078,5329.482782,7550.100608,-2834.553343
568.926398,3478.967927,6217.729913,-842.705048
568.926719,1702.473667,4737.318029,3064.381992
568.927039,2294.638420,4811.338623,4136.915689
568.927360,3552.988522,6217.729913,3217.601092
568.927681,3478.967927,6735.874072,1302.362347
568.928001,2664.741391,6069.688724,76.609550
568.928322,2294.638420,5625.565159,-229.828649
568.928643,4441.235652,6957.935855,766.095498
568.928963,5033.400406,8882.471304,0.000000
568.929284,5995.668130,8734.430116,-1455.581446
568.929605,6143.709319,8142.265362,-1838.629195
568.929925,6809.894666,10807.006753,-1149.143247
568.930246,4663.297435,13027.624579,-1225.752797
568.930566,4441.235652,12805.562797,-3753.867940
568.930887,6735.874072,10955.047942,-4903.011187
568.931208,4589.276840,9030.512492,-1915.238745
568.931528,2812.782580,7994.224174,2451.505594
568.931849,592.164754,7254.018232,4060.306139
568.932170,962.267725,7550.100608,3064.381992
568.932490,1628.453072,6957.935855,1915.238745
568.932811,2886.803174,6143.709319,1455.581446
568.933131,4589.276840,6069.688724,153.219100
568.933452,4589.276840,7624.121203,612.876398
568.933773,4811.338623,9030.512492,1915.238745
568.934093,6809.894666,9178.553681,-229.828649
568.934414,9696.697840,9326.594869,-1915.238745
568.934735,9178.553681,9178.553681,-2681.334243
568.935055,9400.615463,9326.594869,-2451.505594
568.935376,6439.791695,9400.615463,-2145.067394
568.935697,6143.709319,10362.883188,-2145.067394
568.936017,7328.038826,10510.924376,-1072.533697
568.936338,6957.935855,8512.368333,0.000000
568.936658,5033.400406,6217.729913,-842.705048
568.936979,1850.514855,4515.256246,229.828649
568.937300,0.000000,6883.915261,1455.581446
568.937620,888.247130,8364.327145,2911.162892
568.937941,3849.070898,7105.977043,2987.772442
568.938262,6883.915261,6661.853478,2374.896044
568.938582,5033.400406,6587.832884,689.485948
568.938903,2146.597232,6365.771101,-1225.752797
568.939223,4885.359217,6883.915261,-229.828649
568.939544,6069.688724,6809.894666,153.219100
568.939865,7920.203579,7772.162391,-536.266849
568.940185,10510.924376,9474.636058,-919.314598
568.940506,7402.059420,9400.615463,-2068.457845
568.940827,6217.729913,9326.594869,-3370.820191
568.941147,6661.853478,9918.759623,-3524.039291
568.941468,5847.626942,8142.265362,-3753.867940
568.941789,5995.668130,6143.709319,-383.047749
568.942109,4441.235652,5625.565159,2374.896044
568.942430,3256.906145,8364.327145,2911.162892
568.942750,2442.679609,9992.780217,2374.896044
568.943071,1924.535449,8734.430116,76.609550
568.943392,4293.194464,5329.482782,-995.924147
568.943712,4589.276840,3256.906145,1455.581446
568.944033,3997.112087,5255.462188,3524.039291
568.944354,4145.153275,7031.956449,2834.553343
568.944674,4293.194464,9252.574275,-306.438199
568.944995,5921.647536,10140.821405,-3753.867940
568.945315,6143.709319,9918.759623,-4519.963438
568.945636,8734.430116,9696.697840,-2528.115143
568.945957,8142.265362,10881.027347,-229.828649
568.946277,5329.482782,11473.192101,0.000000
568.946598,4515.256246,11325.150913,-1455.581446
568.946919,5033.400406,10510.924376,-2604.724693
568.947239,3923.091493,9178.553681,-459.657299
568.947560,3849.070898,7920.203579,2681.334243
568.947881,2590.720797,7624.121203,4443.353888
568.948201,1332.370696,7105.977043,3140.991542
568.948522,2886.803174,6217.729913,3447.429741
568.948842,3330.926739,2590.720797,1991.848295
568.949163,3034.844362,1776.494261,76.609550
568.949484,3849.070898,6291.750507,229.828649
568.949804,5551.544565,9918.759623,-1378.971896
568.950125,6513.812290,10436.903782,-2987.772442
568.950446,9622.677246,9770.718434,-3677.258390
568.950766,8956.491898,8882.471304,-2068.457845
568.951087,6513.812290,9178.553681,-2068.457845
568.951407,5255.462188,9844.739029,-2451.505594
568.951728,5181.441594,10658.965565,-3600.648841
568.952049,5921.647536,8586.388927,-3294.210641
568.952369,7772.162391,9178.553681,229.828649
568.952690,5329.482782,7920.203579,3140.991542
568.953011,1998.556043,7550.100608,3524.039291
568.953331,1924.535449,6735.874072,2987.772442
568.953652,2294.638420,4885.359217,1378.971896
568.953973,4071.132681,2886.803174,1072.533697
568.954293,4441.235652,2072.576638,2451.505594
568.954614,3923.091493,4885.359217,689.485948
568.954934,3997.112087,9178.553681,0.000000
568.955255,5403.503377,13249.686362,-1838.629195
568.955576,7179.997637,10955.047942,-3677.258390
568.955896,7920.203579,7476.080014,-3140.991542
568.956217,7920.203579,8068.244768,-1838.629195
568.956538,5181.441594,10066.800811,-1685.410096
568.956858,4737.318029,11769.274478,-2374.896044
568.957179,7698.141797,11251.130318,-612.876398
568.957499,6735.874072,8512.368333,-766.095498
568.957820,6587.832884,7402.059420,383.047749
568.958141,4663.297435,6883.915261,2528.115143
568.958461,2442.679609,6587.832884,1685.410096
568.958782,2664.741391,6439.791695,1532.190996
568.959103,4811.338623,5699.585753,1685.410096
568.959423,5107.421000,4959.379811,1072.533697
568.959744,5551.544565,6513.812290,1838.629195
568.960064,4737.318029,8438.347739,306.438199
568.960385,5033.400406,11029.068536,-2145.067394
568.960706,5551.544565,9918.759623,-2604.724693
568.961026,7476.080014,9178.553681,-1991.848295
568.961347,10807.006753,8364.327145,1149.143247
568.961668,7105.977043,8512.368333,153.219100
568.961988,3701.029710,8660.409521,-2911.162892
568.962309,5403.503377,10955.047942,-4213.525239
568.962630,5403.503377,11325.150913,-2451.505594
568.962950,3849.070898,7994.224174,1608.800546
568.963271,8068.244768,6143.709319,3983.696590
568.963591,4885.359217,6735.874072,3217.601092
568.963912,-592.164754,6735.874072,1685.410096
568.964233,74.020594,5625.565159,1225.752797
568.964553,3182.885551,3775.050304,766.095498
568.964874,4663.297435,5033.400406,1532.190996
568.965195,5995.668130,8290.306550,3064.381992
568.965515,5107.421000,9474.636058,-1225.752797
568.965836,4441.235652,10140.821405,-4443.353888
568.966157,4737.318029,9622.677246,-2451.505594
568.966477,6069.688724,9622.677246,-1685.410096
568.966798,5625.565159,8068.244768,-1072.533697
568.967119,5773.606348,7772.162391,-689.485948
568.967439,4737.318029,10955.047942,-2528.115143
568.967760,3923.091493,12213.398043,-1532.190996
568.968081,3775.050304,10584.944971,-766.095498
568.968402,5107.421000,7328.038826,0.000000
568.968722,3552.988522,4219.173869,1915.238745
568.969043,4145.153275,5699.585753,4290.134789
568.969364,2368.659014,6439.791695,3370.820191
568.969684,2146.597232,5329.482782,995.924147
568.970005,3701.029710,4959.379811,1149.143247
568.970326,4737.318029,5033.400406,536.266849
568.970646,6735.874072,7105.977043,-995.924147
568.970967,7476.080014,10140.821405,-1302.362347
568.971288,6439.791695,10807.006753,-3524.039291
568.971609,7031.956449,10214.842000,-3524.039291
568.971929,8290.306550,9844.739029,-1072.533697
568.972250,8142.265362,9474.636058,-919.314598
568.972571,7772.162391,10288.862594,-2221.676944
568.972891,6957.935855,11473.192101,-2451.505594
568.973212,4737.318029,9178.553681,-2145.067394
568.973533,5699.585753,6735.874072,1455.581446
568.973853,6069.688724,4145.153275,4519.963438
568.974174,2886.803174,3627.009116,4519.963438
568.974495,2590.720797,6587.832884,2298.286494
568.974816,2664.741391,7772.162391,0.000000
568.975136,2442.679609,4959.379811,-306.438199
568.975457,7031.956449,3552.988522,1378.971896
568.975778,7698.141797,7179.997637,1455.581446
568.976098,4219.173869,9252.574275,-995.924147
568.976419,5551.544565,11103.089130,-2604.724693
568.976740,8216.285956,11917.315666,-3370.820191
568.977060,6883.915261,9918.759623,-3217.601092
568.977381,7476.080014,8512.368333,-1225.752797
568.977702,6809.894666,8364.327145,-766.095498
568.978023,4663.297435,10140.821405,-1378.971896
568.978343,4663.297435,9252.574275,0.000000
568.978664,4589.276840,7772.162391,-689.485948
568.978985,3256.906145,5477.523971,0.000000
568.979305,2664.741391,4737.318029,2834.553343
568.979626,2664.741391,7402.059420,3524.039291
568.979947,1924.535449,8512.368333,1608.800546
568.980267,1776.494261,7402.059420,1302.362347
568.980588,2368.659014,5477.523971,76.609550
568.980909,4737.318029,5995.668130,76.609550
568.981230,5477.523971,9104.533087,536.266849
568.981550,5107.421000,10214.842000,-1149.143247
568.981871,5995.668130,11621.233289,-3753.867940
568.982192,6513.812290,9992.780217,-1378.971896
568.982512,5921.647536,8216.285956,306.438199
568.982833,6735.874072,7105.977043,-536.266849
568.983154,5773.606348,8438.347739,-3140.991542
568.983474,4663.297435,11177.109724,-3370.820191
568.983795,4589.276840,10214.842000,-1608.800546
568.984116,3997.112087,6735.874072,689.485948
568.984437,4515.256246,5551.544565,3600.648841
568.984757,3923.091493,9030.512492,4136.915689
568.985078,1110.308913,9696.697840,1455.581446
568.985399,1332.370696,7328.038826,-919.314598
568.985719,4811.338623,5921.647536,-76.609550
568.986040,4663.297435,5181.441594,1991.848295
568.986361,5699.585753,6439.791695,3907.087040
568.986681,6439.791695,9400.615463,2374.896044
568.987002,5107.421000,12065.356855,-2681.334243
568.987323,4811.338623,10732.986159,-5056.230287
568.987644,7105.977043,7772.162391,-4136.915689
568.987964,7402.059420,6957.935855,-2221.676944
568.988285,6735.874072,9918.759623,76.609550
568.988606,5625.565159,12139.377449,0.000000
568.988926,3701.029710,11843.295072,-3064.381992
568.989247,4367.215058,8734.430116,-1915.238745
568.989568,3552.988522,6069.688724,2298.286494
568.989888,4589.276840,5921.647536,4826.401637
568.990209,3108.864956,6217.729913,4136.915689
568.990530,1776.494261,5921.647536,1302.362347
568.990851,3256.906145,5625.565159,536.266849
568.991171,4071.132681,5255.462188,2145.067394
568.991492,4293.194464,4145.153275,1532.190996
568.991813,9474.636058,6069.688724,-229.828649
568.992133,8660.409521,9992.780217,-3524.039291
568.992454,5551.544565,11029.068536,-5592.497135
568.992775,7994.224174,8734.430116,-2834.553343
568.993095,9696.697840,5847.626942,-76.609550
568.993416,9400.615463,7402.059420,306.438199
568.993737,7328.038826,10066.800811,-2298.286494
568.994058,3775.050304,9474.636058,-6741.640382
568.994378,4367.215058,8956.491898,-4596.572988
568.994699,4737.318029,8586.388927,3064.381992
568.995020,3552.988522,5773.606348,5822.325785
568.995340,2516.700203,5255.462188,3907.087040
568.995661,1406.391290,7105.977043,306.438199
568.995982,-2590.720797,8660.409521,-1838.629195
568.996302,0.000000,7031.956449,0.000000
568.996623,4663.297435,6661.853478,4060.306139
568.996944,5181.441594,9326.594869,3524.039291
568.997265,6217.729913,12213.398043,1455.581446
568.997585,6143.709319,13767.830521,-3064.381992
568.997906,3034.844362,11547.212695,-7124.688131
568.998227,4589.276840,7031.956449,-3524.039291
568.998547,8290.306550,5995.668130,1072.533697
568.998868,8142.265362,8734.430116,766.095498
568.999189,5551.544565,11103.089130,-689.485948
568.999509,3627.009116,11473.192101,-2451.505594
568.999830,4367.215058,9400.615463,-2528.115143
569.000151,3701.029710,6291.750507,1149.143247
569.000472,3849.070898,5255.462188,3064.381992
569.000792,5107.421000,6143.709319,1532.190996
569.001113,4071.132681,7624.121203,0.000000
569.001434,2294.638420,7624.121203,689.485948
569.001754,4145.153275,7476.080014,1685.410096
569.002075,7328.038826,6809.894666,1532.190996
569.002396,7772.162391,7550.100608,-306.438199
569.002716,5995.668130,8438.347739,-3064.381992
569.003037,7402.059420,9622.677246,-4060.306139
569.003358,7402.059420,9178.553681,-1378.971896
569.003679,6513.812290,6735.874072,153.219100
569.003999,8734.430116,6291.750507,-2145.067394
569.004320,6661.853478,9548.656652,-4749.792088
569.004641,3034.844362,11399.171507,-4673.182538
569.004961,2590.720797,10807.006753,-842.705048
569.005282,4145.153275,7105.977043,3370.820191
569.005603,4219.173869,5921.647536,3753.867940
569.005923,2812.782580,7031.956449,3524.039291
569.006244,0.000000,7031.956449,-1302.362347
569.006565,1184.329507,7031.956449,-2374.896044
569.006886,1184.329507,6587.832884,1225.752797
569.007206,2886.803174,5329.482782,3294.210641
569.007527,6439.791695,5699.585753,4136.915689
569.007848,6439.791695,8586.388927,1455.581446
569.008168,5477.523971,12361.439231,-3600.648841
569.008489,3552.988522,9992.780217,-5745.716235
569.008810,5847.626942,6513.812290,-5209.449386
569.009130,9030.512492,6513.812290,-1225.752797
569.009451,9104.533087,10214.842000,1532.190996
569.009772,6957.935855,14063.912898,-459.657299
569.010093,4737.318029,13841.851115,-4060.306139
569.010413,3256.906145,8808.450710,-2911.162892
569.010734,4441.235652,5625.565159,2911.162892
569.011055,4441.235652,4441.235652,5669.106685
569.011375,2368.659014,5921.647536,3064.381992
569.011696,3182.885551,8068.244768,1455.581446
569.012017,4737.318029,7105.977043,2145.067394
569.012337,4589.276840,4441.235652,3294.210641
569.012658,8216.285956,5033.400406,2757.943793
569.012979,10732.986159,8364.327145,689.485948
569.013300,9400.615463,10362.883188,-1915.238745
569.013620,9992.780217,7105.977043,-2451.505594
569.013941,13101.645173,3330.926739,-306.438199
569.014262,15174.221811,2072.576638,1378.971896
569.014582,12213.398043,2516.700203,-842.705048
569.014903,8216.285956,4219.173869,-4903.011187
569.015224,12065.356855,7328.038826,-6358.592633
569.015544,12139.377449,6439.791695,-2068.457845
569.015865,9400.615463,1628.453072,2911.162892
569.016186,13619.789333,-740.205942,3447.429741
569.016507,9326.594869,3330.926739,0.000000
569.016827,4663.297435,7476.080014,-3140.991542
569.017148,5033.400406,6439.791695,-2834.553343
569.017469,8438.347739,4071.132681,-766.095498
569.017789,9326.594869,4293.194464,2834.553343
569.018110,7031.956449,8364.327145,3907.087040
569.018431,5995.668130,12213.398043,-995.924147
569.018751,3552.988522,11621.233289,-6511.811733
569.019072,2590.720797,7328.038826,-3600.648841
569.019393,5403.503377,3775.050304,689.485948
569.019714,7328.038826,2960.823768,3907.087040
569.020034,5477.523971,6365.771101,3370.820191
569.020355,5181.441594,9622.677246,0.000000
569.020676,5403.503377,9178.553681,-1608.800546
569.020996,9326.594869,5625.565159,229.828649
569.021317,11029.068536,3404.947333,3524.039291
569.021638,10214.842000,2886.803174,3983.696590
569.021958,11251.130318,5403.503377,766.095498
569.022279,11473.192101,6069.688724,-2221.676944
569.022600,11843.295072,4811.338623,-2451.505594
569.022921,13915.871710,3478.967927,-383.047749
569.023241,14582.057057,3478.967927,612.876398
569.023562,14063.912898,7254.018232,689.485948
569.023883,10288.862594,8438.347739,-459.657299
569.024203,11325.150913,6809.894666,-3294.210641
569.024524,11547.212695,2442.679609,-1762.019645
569.024845,9400.615463,740.205942,-689.485948
569.025165,8956.491898,3108.864956,-995.924147
569.025486,8438.347739,6809.894666,-2451.505594
569.025807,7698.141797,9770.718434,-3753.867940
569.026128,9030.512492,10732.986159,76.609550
569.026448,8068.244768,9104.533087,2911.162892
569.026769,6957.935855,6957.935855,3140.991542
569.027090,6143.709319,4959.379811,2298.286494
569.027410,5625.565159,4441.235652,1455.581446
569.027731,6143.709319,3849.070898,1225.752797
569.028052,8586.388927,4145.153275,2528.115143
569.028372,8586.388927,4737.318029,2374.896044
569.028693,8364.327145,5255.462188,1225.752797
569.029014,8512.368333,5477.523971,919.314598
569.029335,9844.739029,3997.112087,536.266849
569.029655,11029.068536,814.226536,306.438199
569.029976,13471.748144,518.144159,0.000000
569.030297,11621.233289,2516.700203,-995.924147
569.030617,11769.274478,6143.709319,-2068.457845
569.030938,12879.583391,8438.347739,-1532.190996
569.031259,12953.603985,6735.874072,-2528.115143
569.031579,13471.748144,3923.091493,-2068.457845
569.031900,13027.624579,3701.029710,-995.924147
569.032221,9252.574275,2664.741391,-1072.533697
569.032542,8364.327145,2960.823768,-383.047749
569.032862,8586.388927,3108.864956,76.609550
569.033183,9326.594869,4663.297435,76.609550
569.033504,8734.430116,5403.503377,1685.410096
569.033824,7994.224174,7772.162391,612.876398
569.034145,5921.647536,6809.894666,-1149.143247
569.034466,4811.338623,4589.276840,-1072.533697
569.034786,7772.162391,3775.050304,153.219100
569.035107,7772.162391,5551.544565,1149.143247
569.035428,5625.565159,8660.409521,766.095498
569.035749,5847.626942,10732.986159,-842.705048
569.036069,6143.709319,10881.027347,-1915.238745
569.036390,8216.285956,10658.965565,229.828649
569.036711,8438.347739,8586.388927,2451.505594
569.037031,8364.327145,6439.791695,1378.971896
569.037352,7328.038826,5329.482782,306.438199
569.037673,6957.935855,5329.482782,1072.533697
569.037993,8660.409521,5255.462188,2451.505594
569.038314,10066.800811,3923.091493,2374.896044
569.038635,11103.089130,3552.988522,536.266849
569.038956,11843.295072,3849.070898,0.000000
569.039276,12509.480420,4293.194464,-459.657299
569.039597,12953.603985,3775.050304,153.219100
569.039918,13175.665768,3552.988522,-766.095498
569.040238,13175.665768,3923.091493,-2604.724693
569.040559,12657.521608,4737.318029,-3217.601092
569.040880,12435.459826,5329.482782,-2757.943793
569.041200,12509.480420,5773.606348,-2757.943793
569.041521,11843.295072,5847.626942,-3217.601092
569.041842,10362.883188,5551.544565,-3217.601092
569.042163,9474.636058,5107.421000,-1455.581446
569.042483,8364.327145,5107.421000,0.000000
569.042804,8364.327145,5403.503377,1838.629195
569.043125,6143.709319,5403.503377,1302.362347
569.043445,5033.400406,4589.276840,229.828649
569.043766,5995.668130,4515.256246,1225.752797
569.044087,7105.977043,5403.503377,1455.581446
569.044407,6513.812290,6661.853478,459.657299
569.044728,6143.709319,7105.977043,459.657299
569.045049,6809.894666,6809.894666,153.219100
569.045370,8290.306550,6809.894666,1455.581446
569.045690,8734.430116,6069.688724,2298.286494
569.046011,8882.471304,5921.647536,536.266849
569.046332,9622.677246,5921.647536,-459.657299
569.046652,10140.821405,5033.400406,-306.438199
569.046973,11991.336260,4145.153275,153.219100
569.047294,12731.542202,2664.741391,-383.047749
569.047614,12657.521608,3108.864956,-1072.533697
569.047935,13471.748144,4293.194464,-306.438199
569.048256,13249.686362,4737.318029,153.219100
569.048577,13545.768739,3256.906145,-459.657299
569.048897,15544.324782,2368.659014,-1072.533697
569.049218,14137.933492,3404.947333,-1378.971896
569.049539,11029.068536,4071.132681,-1072.533697
569.049859,11103.089130,4071.132681,0.000000
569.050180,11843.295072,4367.215058,0.000000
569.050501,11177.109724,3478.967927,0.000000
569.050821,9696.697840,4441.235652,-842.705048
569.051142,7772.162391,5921.647536,-1838.629195
569.051463,5921.647536,7846.182985,-1225.752797
569.051784,6291.750507,8586.388927,1378.971896
569.052104,7105.977043,7920.203579,1455.581446
569.052425,5995.668130,7328.038826,1762.019645
569.052746,4663.297435,7994.224174,1608.800546
569.053066,3849.070898,8290.306550,995.924147
569.053387,3108.864956,7105.977043,1302.362347
569.053708,4367.215058,5995.668130,1762.019645
569.054028,6143.709319,5551.544565,2681.334243
569.054349,6513.812290,5329.482782,2451.505594
569.054670,7254.018232,5551.544565,612.876398
569.054991,8068.244768,4959.379811,-1532.190996
569.055311,9918.759623,5033.400406,-1915.238745
569.055632,11695.253884,5477.523971,-153.219100
569.055953,12953.603985,5329.482782,919.314598
569.056273,13323.706956,4885.359217,229.828649
569.056594,12583.501014,4737.318029,-1762.019645
569.056915,10881.027347,3775.050304,-3524.039291
569.057235,11843.295072,3627.009116,-3677.258390
569.057556,13027.624579,4959.379811,-2681.334243
569.057877,13323.706956,5255.462188,-1072.533697
569.058198,12657.521608,5995.668130,-536.266849
569.058518,11103.089130,5625.565159,-153.219100
569.058839,8364.327145,4515.256246,-306.438199
569.059160,7328.038826,3330.926739,-229.828649
569.059480,7994.224174,3108.864956,0.000000
569.059801,9474.636058,4959.379811,-153.219100
569.060122,9474.636058,7105.977043,995.924147
569.060442,7994.224174,9400.615463,459.657299
569.060763,6513.812290,8882.471304,-459.657299
569.061084,6365.771101,7476.080014,459.657299
569.061405,6513.812290,6217.729913,1762.019645
569.061725,6587.832884,4885.359217,1991.848295
569.062046,7402.059420,4589.276840,1225.752797
569.062367,8142.265362,4589.276840,612.876398
569.062687,8956.491898,4737.318029,536.266849
569.063008,10510.924376,6143.709319,919.314598
569.063329,11251.130318,5921.647536,-459.657299
569.063649,11843.295072,5255.462188,-612.876398
569.063970,12213.398043,3627.009116,-229.828649
569.064291,12213.398043,2738.761985,0.000000
569.064612,12065.356855,2368.659014,0.000000
569.064932,12953.603985,3034.844362,-1072.533697
569.065253,12805.562797,4589.276840,-2451.505594
569.065574,12139.377449,6069.688724,-3064.381992
569.065894,11843.295072,6809.894666,-2528.115143
569.066215,11251.130318,6143.709319,-1302.362347
569.066536,10510.924376,5255.462188,76.609550
569.066856,9252.574275,4737.318029,383.047749
569.067177,7179.997637,4737.318029,0.000000
569.067497,6217.729913,4959.379811,-536.266849
569.067818,6069.688724,5403.503377,-229.828649
569.068139,6365.771101,6069.688724,306.438199
569.068459,6587.832884,6957.935855,689.485948
569.068780,6513.812290,7476.080014,306.438199
569.069100,7031.956449,7402.059420,306.438199
569.069421,6513.812290,6661.853478,1225.752797
569.069742,6365.771101,5847.626942,2528.115143
569.070062,6957.935855,5181.441594,2298.286494
569.070383,7772.162391,5699.585753,842.705048
569.070703,8660.409521,6217.729913,-766.095498
569.071024,9622.677246,5847.626942,-1378.971896
569.071345,10436.903782,4811.338623,-1532.190996
569.071665,11029.068536,3923.091493,-1225.752797
569.071986,10362.883188,3849.070898,0.000000
569.072307,10214.842000,5033.400406,306.438199
569.072627,10362.883188,6291.750507,76.609550
569.072948,10584.944971,6735.874072,-612.876398
569.073268,11473.192101,6291.750507,-1225.752797
569.073589,10807.006753,5699.585753,-1302.362347
569.073910,9770.718434,5921.647536,-1225.752797
569.074230,9178.553681,6217.729913,-1072.533697
569.074551,9104.533087,6957.935855,-612.876398
569.074871,8882.471304,5921.647536,-306.438199
569.075192,8512.368333,5403.503377,153.219100
569.075513,8364.327145,4663.297435,766.095498
569.075833,7624.121203,4071.132681,1302.362347
569.076154,8068.244768,3478.967927,1225.752797
569.076474,9178.553681,3701.029710,766.095498
569.076795,9696.697840,4737.318029,76.609550
569.077116,9474.636058,5773.606348,0.000000
569.077436,9770.718434,7031.956449,-689.485948
569.077757,10510.924376,7772.162391,-689.485948
569.078078,10362.883188,7846.182985,-536.266849
569.078398,10214.842000,6957.935855,-306.438199
569.078719,9622.677246,5329.482782,-76.609550
569.079039,8586.388927,4367.215058,612.876398
569.079360,8216.285956,3627.009116,1378.971896
569.079681,8808.450710,3404.947333,1072.533697
569.080001,9326.594869,3552.988522,1455.581446
569.080322,9252.574275,4219.173869,612.876398
569.080642,9030.512492,4071.132681,-306.438199
569.080963,8882.471304,3701.029710,-1532.190996
569.081284,9474.636058,3997.112087,-1532.190996
569.081604,9992.780217,5033.400406,-1608.800546
569.081925,10658.965565,7105.977043,-2221.676944
569.082245,11029.068536,7994.224174,-2451.505594
569.082566,10732.986159,7994.224174,-842.705048
569.082887,10214.842000,7550.100608,0.000000
569.083207,9178.553681,6217.729913,383.047749
569.083528,8290.306550,5033.400406,766.095498
569.083849,7698.141797,4367.215058,536.266849
569.084169,7920.203579,3404.947333,919.314598
569.084490,7920.203579,3330.926739,1455.581446
569.084810,8216.285956,3849.070898,1072.533697
569.085131,8438.347739,5625.565159,229.828649
569.085452,8734.430116,7994.224174,0.000000
569.085772,8586.388927,9178.553681,383.047749
569.086093,9030.512492,9474.636058,1608.800546
569.086413,7476.080014,9178.553681,1838.629195
569.086734,6661.853478,8512.368333,1685.410096
569.087055,5033.400406,8142.265362,459.657299
569.087375,4145.153275,7550.100608,-612.876398
569.087696,4737.318029,6291.750507,-459.657299
569.088016,5033.400406,5921.647536,-76.609550
569.088337,4811.338623,6291.750507,459.657299
569.088658,4885.359217,8142.265362,1608.800546
569.088978,5625.565159,9918.759623,2604.724693
569.089299,6513.812290,10584.944971,3217.601092
569.089620,7254.018232,10288.862594,3064.381992
569.089940,7254.018232,9622.677246,3064.381992
569.090261,6217.729913,8364.327145,2681.334243
569.090581,5477.523971,7846.182985,2757.943793
569.090902,5255.462188,8142.265362,3140.991542
569.091223,6069.688724,8808.450710,2451.505594
569.091543,6735.874072,9400.615463,3140.991542
569.091864,5847.626942,8956.491898,3830.477490
569.092184,5625.565159,8438.347739,5132.839837
569.092505,5773.606348,8216.285956,5898.935335
569.092826,5921.647536,7772.162391,5669.106685
569.093146,6587.832884,7772.162391,5362.668486
569.093467,6735.874072,8216.285956,5669.106685
569.093787,6883.915261,8586.388927,5898.935335
569.094108,6883.915261,9252.574275,6205.373534
569.094429,6513.812290,9104.533087,7737.564530
569.094749,6291.750507,8438.347739,7814.174080
569.095070,6143.709319,7994.224174,7354.516781
569.095391,5477.523971,7105.977043,7201.297681
569.095711,5403.503377,5107.421000,6435.202183
569.096032,5255.462188,3923.091493,6971.469032
569.096352,5477.523971,4589.276840,7048.078582
569.096673,5699.585753,6513.812290,6358.592633
569.096994,5847.626942,7920.203579,5975.544884
569.097314,6069.688724,8512.368333,5439.278036
569.097635,5995.668130,7846.182985,6205.373534
569.097955,5477.523971,7328.038826,7660.954980
569.098276,4737.318029,6439.791695,7737.564530
569.098597,3775.050304,5699.585753,7584.345430
569.098917,3108.864956,5551.544565,6665.030833
569.099238,2516.700203,5477.523971,6128.763984
569.099558,2146.597232,5107.421000,5669.106685
569.099879,2220.617826,4885.359217,5515.887586
569.100200,2442.679609,5329.482782,5286.058936
569.100520,2812.782580,6661.853478,6281.983084
569.100841,2812.782580,7105.977043,5822.325785
569.101162,3330.926739,7772.162391,5975.544884
569.101482,4145.153275,9400.615463,6511.811733
569.101803,4293.194464,9770.718434,6205.373534
569.102123,3923.091493,9474.636058,4903.011187
569.102444,3552.988522,8142.265362,4903.011187
569.102765,3701.029710,6291.750507,5056.230287
569.103085,2812.782580,4663.297435,5362.668486
569.103406,2516.700203,3552.988522,4596.572988
569.103726,2886.803174,3627.009116,2911.162892
569.104047,3404.947333,5477.523971,2374.896044
569.104368,5033.400406,7328.038826,2374.896044
569.104688,6439.791695,9104.533087,2451.505594
569.105009,7105.977043,11029.068536,2451.505594
569.105329,7920.203579,13249.686362,2604.724693
569.105650,7550.100608,13101.645173,2681.334243
569.105971,6587.832884,10584.944971,3447.429741
569.106291,6661.853478,9104.533087,5209.449386
569.106612,5995.668130,9400.615463,6435.202183
569.106932,4885.359217,9918.759623,5669.106685
569.107253,3849.070898,8808.450710,3983.696590
569.107574,3182.885551,6291.750507,2604.724693
569.107894,3330.926739,3182.885551,1838.629195
569.108215,4219.173869,1850.514855,1685.410096
569.108536,6069.688724,5107.421000,1072.533697
569.108856,7328.038826,10584.944971,306.438199
569.109177,8290.306550,15692.365970,-842.705048
569.109497,10881.027347,17987.004391,-612.876398
569.109818,11029.068536,17690.922014,1455.581446
569.110139,8956.491898,15988.448347,4826.401637
569.110459,6661.853478,10955.047942,6511.811733
569.110780,5699.585753,6587.832884,6588.421283
569.111100,5551.544565,5551.544565,7277.907231
569.111421,1850.514855,5773.606348,7277.907231
569.111742,1554.432478,7031.956449,5209.449386
569.112062,2072.576638,7254.018232,3524.039291
569.112383,2812.782580,6513.812290,2911.162892
569.112703,4293.194464,5477.523971,3294.210641
569.113024,6809.894666,6661.853478,4903.011187
569.113345,6439.791695,10362.883188,4366.744339
569.113665,5551.544565,13249.686362,2911.162892
569.113986,6291.750507,14359.995275,1838.629195
569.114307,9104.533087,14656.077652,2145.067394
569.114627,8808.450710,13175.665768,3677.258390
569.114948,5773.606348,8290.306550,5669.106685
569.115268,5255.462188,5551.544565,7431.126331
569.115589,2072.576638,3775.050304,7584.345430
569.115910,740.205942,4219.173869,5745.716235
569.116230,3552.988522,5181.441594,4060.306139
569.116551,5995.668130,7328.038826,3370.820191
569.116871,4219.173869,6291.750507,6128.763984
569.117192,5699.585753,6365.771101,9806.022374
569.117513,7550.100608,8586.388927,11031.775171
569.117833,4885.359217,11769.274478,9422.974625
569.118154,1406.391290,10955.047942,6665.030833
569.118474,2072.576638,7254.018232,4443.353888
569.118795,4071.132681,5329.482782,5056.230287
569.119116,3775.050304,4515.256246,8733.488677
569.119436,5329.482782,6883.915261,9806.022374
569.119757,1776.494261,8364.327145,6818.249932
569.120078,222.061783,9622.677246,4519.963438
569.120398,1628.453072,7105.977043,5362.668486
569.120719,4441.235652,3552.988522,6818.249932
569.121039,4219.173869,2368.659014,7890.783629
569.121360,5921.647536,5329.482782,8350.440928
569.121681,6809.894666,10510.924376,5975.544884
569.122001,4515.256246,11843.295072,3907.087040
569.122322,4293.194464,8364.327145,3600.648841
569.122642,5921.647536,5033.400406,4903.011187
569.122963,4219.173869,3404.947333,7277.907231
569.123284,2368.659014,3775.050304,9116.536426
569.123604,6365.771101,6809.894666,9729.412825
569.123925,5107.421000,9992.780217,7277.907231
569.124245,4219.173869,11917.315666,4749.792088
569.124566,4811.338623,11473.192101,2528.115143
569.124887,5921.647536,8808.450710,2681.334243
569.125207,4071.132681,4737.318029,5132.839837
569.125528,4811.338623,3256.906145,7354.516781
569.125849,5847.626942,5403.503377,6894.859482
569.126169,4441.235652,7328.038826,6128.763984
569.126490,2886.803174,7550.100608,4673.182538
569.126810,5995.668130,8512.368333,3217.601092
569.127131,5551.544565,10658.965565,4290.134789
569.127452,4071.132681,11843.295072,5975.544884
569.127772,6365.771101,10732.986159,6511.811733
569.128093,7846.182985,9474.636058,5439.278036
569.128413,6143.709319,8512.368333,2451.505594
569.128734,3923.091493,6735.874072,-153.219100
569.129055,4441.235652,5847.626942,459.657299
569.129375,5995.668130,7772.162391,4366.744339
569.129696,6365.771101,11103.089130,6358.592633
569.130016,7031.956449,11325.150913,4749.792088
569.130337,6661.853478,10955.047942,1608.800546
569.130658,5107.421000,11029.068536,1915.238745
569.130978,4441.235652,10510.924376,4519.963438
569.131299,3849.070898,7624.121203,4979.620737
569.131620,4811.338623,6587.832884,4060.306139
569.131940,5921.647536,8734.430116,4290.134789
569.132261,5773.606348,10658.965565,4749.792088
569.132581,3923.091493,10436.903782,2987.772442
569.132902,5033.400406,10066.800811,2068.457845
569.133223,6365.771101,9548.656652,4979.620737
569.133543,6661.853478,8512.368333,7277.907231
569.133864,5995.668130,8068.244768,6588.421283
569.134184,3775.050304,8364.327145,3983.696590
569.134505,2812.782580,8512.368333,2757.943793
569.134826,5181.441594,7772.162391,4136.915689
569.135146,6143.709319,6809.894666,4136.915689
569.135467,5847.626942,7179.997637,3677.258390
569.135787,6587.832884,8734.430116,2374.896044
569.136108,5181.441594,9400.615463,1685.410096
569.136429,4441.235652,9178.553681,4060.306139
569.136749,6661.853478,8364.327145,6052.154434
569.137070,8364.327145,7772.162391,5592.497135
569.137391,6513.812290,7624.121203,5515.887586
569.137711,4145.153275,7772.162391,6052.154434
569.138032,3478.967927,8068.244768,5669.106685
569.138352,3775.050304,7254.018232,5592.497135
569.138673,4219.173869,5921.647536,5592.497135
569.138994,6587.832884,6957.935855,5669.106685
569.139314,6069.688724,9252.574275,6435.202183
569.139635,2590.720797,9992.780217,6971.469032
569.139955,2072.576638,7550.100608,6358.592633
569.140276,3034.844362,5181.441594,5975.544884
569.140597,4293.194464,4737.318029,6358.592633
569.140917,5181.441594,7476.080014,6665.030833
569.141238,4885.359217,10658.965565,5669.106685
569.141558,3182.885551,10881.027347,4826.401637
569.141879,3627.009116,7846.182985,5515.887586
569.142200,6957.935855,6883.915261,8120.612279
569.142520,7179.997637,9622.677246,9806.022374
569.142841,4589.276840,10436.903782,8733.488677
569.143162,3034.844362,9548.656652,6665.030833
569.143482,3923.091493,6513.812290,7124.688131
569.143803,4441.235652,3849.070898,9729.412825
569.144123,4589.276840,2738.761985,10112.460574
569.144444,3701.029710,4737.318029,5669.106685
569.144765,2294.638420,6143.709319,1991.848295
569.145085,3627.009116,5699.585753,2221.676944
569.145406,6809.894666,6513.812290,5286.058936
569.145726,8068.244768,8660.409521,6588.421283
569.146047,6291.750507,11325.150913,5132.839837
569.146368,4367.215058,10140.821405,2221.676944
569.146688,4071.132681,7105.977043,2757.943793
569.147009,6735.874072,6957.935855,5362.668486
569.147329,7772.162391,7476.080014,6741.640382
569.147650,4293.194464,6957.935855,3907.087040
569.147971,3775.050304,8882.471304,1378.971896
569.148291,3849.070898,10066.800811,3447.429741
569.148612,3034.844362,6957.935855,6971.469032
569.148933,4071.132681,2886.803174,7890.783629
569.149253,3256.906145,4071.132681,5515.887586
569.149574,1332.370696,6883.915261,3600.648841
569.149894,2812.782580,9548.656652,2145.067394
569.150215,5551.544565,9252.574275,689.485948
569.150536,6143.709319,9622.677246,2298.286494
569.150856,7624.121203,11843.295072,5362.668486
569.151177,6957.935855,13471.748144,4213.525239
569.151497,4367.215058,11029.068536,3600.648841
569.151818,4293.194464,8216.285956,4136.915689
569.152139,7105.977043,7402.059420,4519.963438
569.152459,5995.668130,8512.368333,4519.963438
569.152780,4515.256246,8882.471304,4903.011187
569.153100,4959.379811,8438.347739,3064.381992
569.153421,7254.018232,7476.080014,919.314598
569.153742,5107.421000,6143.709319,2068.457845
569.154062,4663.297435,5033.400406,3600.648841
569.154383,5551.544565,5255.462188,2834.553343
569.154704,5995.668130,8438.347739,1072.533697
569.155024,6365.771101,11399.171507,229.828649
569.155345,8512.368333,12435.459826,689.485948
569.155665,9770.718434,14137.933492,2298.286494
569.155986,9252.574275,14952.160028,3217.601092
569.156307,6217.729913,11917.315666,2604.724693
569.156627,5699.585753,7476.080014,2221.676944
569.156948,5625.565159,4737.318029,4673.182538
569.157268,5255.462188,5995.668130,6818.249932
569.157589,4293.194464,7624.121203,6741.640382
569.157910,3923.091493,8586.388927,4213.525239
569.158230,3256.906145,7846.182985,4213.525239
569.158551,4071.132681,6291.750507,5286.058936
569.158871,3552.988522,3627.009116,5286.058936
569.159192,3923.091493,5107.421000,4136.915689
569.159513,4663.297435,7624.121203,3447.429741
569.159833,6069.688724,10732.986159,2374.896044
569.160154,6735.874072,11621.233289,1302.362347
569.160475,5699.585753,11547.212695,2374.896044
569.160795,5255.462188,10436.903782,4673.182538
569.161116,4293.194464,7772.162391,4903.011187
569.161436,3330.926739,6217.729913,3370.820191
569.161757,2664.741391,5033.400406,1455.581446
569.162078,4219.173869,4515.256246,1149.143247
569.162398,4071.132681,5107.421000,2221.676944
569.162719,3330.926739,5033.400406,3907.087040
569.163039,4737.318029,7179.997637,3217.601092
569.163360,5625.565159,7476.080014,1685.410096
569.163681,3701.029710,5255.462188,2068.457845
569.164001,5329.482782,6217.729913,3447.429741
569.164322,7402.059420,8956.491898,4749.792088
569.164642,4589.276840,9252.574275,3217.601092
569.164963,3849.070898,9474.636058,1072.533697
569.165283,7550.100608,11177.109724,2145.067394
569.165604,3108.864956,9252.574275,3140.991542
569.165925,962.267725,4441.235652,3217.601092
569.166245,3701.029710,3034.844362,2604.724693
569.166566,3552.988522,4959.379811,2068.457845
569.166886,2146.597232,7772.162391,3677.258390
569.167207,3108.864956,9030.512492,2374.896044
569.167527,5033.400406,9622.677246,459.657299
569.167848,5551.544565,9844.739029,2681.334243
569.168169,4737.318029,8882.471304,3830.477490
569.168489,5403.503377,7624.121203,1838.629195
569.168810,3923.091493,7624.121203,0.000000
569.169130,3849.070898,6365.771101,-842.705048
569.169451,4219.173869,5551.544565,-2604.724693
569.169771,5477.523971,7772.162391,-1608.800546
569.170092,7698.141797,11029.068536,459.657299
569.170413,5773.606348,9474.636058,-1532.190996
569.170733,6957.935855,8364.327145,-3064.381992
569.171054,5921.647536,7550.100608,-2145.067394
569.171374,4885.359217,5625.565159,0.000000
569.171695,7254.018232,5033.400406,842.705048
569.172015,8438.347739,7402.059420,-2834.553343
569.172336,6735.874072,9918.759623,-5592.497135
569.172656,7920.203579,11547.212695,-3064.381992
569.172977,8068.244768,10510.924376,76.609550
569.173298,6513.812290,8216.285956,1532.190996
569.173618,5329.482782,7031.956449,459.657299
569.173939,3775.050304,6069.688724,-2757.943793
569.174259,2368.659014,4811.338623,-2681.334243
569.174580,4811.338623,7772.162391,689.485948
569.174900,7105.977043,9770.718434,-842.705048
569.175221,3627.009116,9992.780217,-4366.744339
569.175542,3923.091493,9918.759623,-3370.820191
569.175862,7105.977043,12583.501014,-306.438199
569.176183,7624.121203,13989.892304,842.705048
569.176503,4589.276840,11177.109724,153.219100
569.176824,5181.441594,10140.821405,-2374.896044
569.177144,3775.050304,10066.800811,-383.047749
569.177465,3256.906145,10362.883188,3370.820191
569.177785,4737.318029,10288.862594,2528.115143
569.178106,4071.132681,8734.430116,-1532.190996
569.178427,1998.556043,8364.327145,-2681.334243
569.178747,3256.906145,5995.668130,-536.266849
569.179068,4737.318029,4219.173869,383.047749
569.179388,6513.812290,6365.771101,0.000000
569.179709,7550.100608,9030.512492,-383.047749
569.180029,7179.997637,10436.903782,-2757.943793
569.180350,7550.100608,11473.192101,-1455.581446
569.180671,9030.512492,11621.233289,1838.629195
569.180991,8882.471304,10510.924376,1838.629195
569.181312,8216.285956,9548.656652,536.266849
569.181632,4737.318029,8808.450710,76.609550
569.181953,3182.885551,6957.935855,-229.828649
569.182273,2812.782580,3923.091493,842.705048
569.182594,2516.700203,1702.473667,919.314598
569.182914,-370.102971,444.123565,-536.266849
569.183235,1480.411884,3404.947333,-995.924147
569.183556,2886.803174,7994.224174,0.000000
569.183876,4071.132681,9622.677246,-612.876398
569.184197,5477.523971,9474.636058,-766.095498
569.184517,6069.688724,10214.842000,-306.438199
569.184838,4219.173869,8882.471304,612.876398
569.185158,3552.988522,7550.100608,536.266849
569.185479,4663.297435,5625.565159,-1149.143247
569.185800,4367.215058,4441.235652,-2145.067394
569.186120,2886.803174,5107.421000,-919.314598
569.186441,4515.256246,5921.647536,-919.314598
569.186761,3775.050304,5625.565159,-1532.190996
569.187082,3701.029710,6143.709319,-1455.581446
569.187402,2072.576638,3997.112087,-2451.505594
569.187723,3330.926739,2516.700203,-2374.896044
569.188044,6661.853478,5847.626942,689.485948
569.188364,7846.182985,11251.130318,1302.362347
569.188685,4885.359217,11103.089130,-3140.991542
569.189005,6439.791695,10658.965565,-4749.792088
569.189326,7105.977043,10214.842000,-1149.143247
569.189646,6143.709319,9030.512492,2757.943793
569.189967,4959.379811,7476.080014,2604.724693
569.190287,5995.668130,9548.656652,-612.876398
569.190608,5403.503377,12065.356855,-995.924147
569.190929,3775.050304,11769.274478,-612.876398
569.191249,3923.091493,8882.471304,-919.314598
569.191570,5625.565159,8808.450710,1915.238745
569.191890,5181.441594,9992.780217,3983.696590
569.192211,4441.235652,8586.388927,3217.601092
569.192531,4293.194464,6661.853478,-612.876398
569.192852,5551.544565,7328.038826,-1991.848295
569.193173,6661.853478,10658.965565,612.876398
569.193493,5699.585753,12953.603985,2681.334243
569.193814,7772.162391,13841.851115,1225.752797
569.194134,4885.359217,10140.821405,-1915.238745
569.194455,6291.750507,8808.450710,-2834.553343
569.194775,7105.977043,8660.409521,995.924147
569.195096,4589.276840,8512.368333,842.705048
569.195416,6809.894666,8956.491898,-1685.410096
569.195737,5921.647536,8956.491898,-2145.067394
569.196058,3404.947333,6809.894666,-919.314598
569.196378,6587.832884,7254.018232,2757.943793
569.196699,7550.100608,8290.306550,1532.190996
569.197019,3256.906145,7772.162391,-3370.820191
569.197340,4145.153275,7846.182985,-4060.306139
569.197660,6069.688724,7698.141797,-1072.533697
569.197981,3552.988522,5477.523971,3447.429741
569.198302,4071.132681,5477.523971,4136.915689
569.198622,5255.462188,8660.409521,-2145.067394
569.198943,1110.308913,8808.450710,-6052.154434
569.199263,2294.638420,5995.668130,-2911.162892
569.199584,8660.409521,5033.400406,2145.067394
569.199904,6809.894666,5329.482782,3064.381992
569.200225,1184.329507,4737.318029,1532.190996
569.200545,1628.453072,6365.771101,-2374.896044
569.200866,4885.359217,7624.121203,-2681.334243
569.201187,6513.812290,8734.430116,229.828649
569.201507,5625.565159,7179.997637,-1302.362347
569.201828,5477.523971,5773.606348,-2528.115143
569.202148,2738.761985,6069.688724,2068.457845
569.202469,4071.132681,6735.874072,3983.696590
569.202789,5403.503377,7105.977043,-995.924147
569.203110,5181.441594,7624.121203,-5439.278036
569.203431,4145.153275,8808.450710,-4060.306139
569.203751,5921.647536,8364.327145,1225.752797
569.204072,6365.771101,7105.977043,3677.258390
569.204392,5847.626942,6883.915261,459.657299
569.204713,4219.173869,7105.977043,-4519.963438
569.205033,3478.967927,10066.800811,-4519.963438
569.205354,3849.070898,11103.089130,-229.828649
569.205675,6809.894666,11843.295072,1532.190996
569.205995,8660.409521,13323.706956,-229.828649
569.206316,4441.235652,11917.315666,-1149.143247
569.206636,1406.391290,9030.512492,-153.219100
569.206957,2590.720797,6735.874072,1762.019645
569.207277,2516.700203,4219.173869,1302.362347
569.207598,2442.679609,2590.720797,76.609550
569.207918,5847.626942,6143.709319,-842.705048
569.208239,7476.080014,12065.356855,0.000000
569.208560,6661.853478,13619.789333,612.876398
569.208880,6291.750507,10140.821405,-3753.867940
569.209201,7105.977043,8290.306550,-5056.230287
569.209521,5847.626942,8734.430116,-383.047749
569.209842,7328.038826,9326.594869,1838.629195
569.210162,10362.883188,10881.027347,-1072.533697
569.210483,6069.688724,11991.336260,-4826.401637
569.210804,4811.338623,11473.192101,-3600.648841
569.211124,5551.544565,9622.677246,1455.581446
569.211445,4515.256246,6809.894666,3294.210641
569.211765,3478.967927,4441.235652,1378.971896
569.212086,3627.009116,3775.050304,-1455.581446
569.212406,814.226536,2368.659014,-1838.629195
569.212727,2072.576638,3997.112087,2451.505594
569.213047,7328.038826,9104.533087,3907.087040
569.213368,8290.306550,12657.521608,-1072.533697
569.213689,5625.565159,13619.789333,-5056.230287
569.214009,5033.400406,12657.521608,-3370.820191
569.214330,6069.688724,10362.883188,1225.752797
569.214650,6217.729913,5625.565159,3294.210641
569.214971,6587.832884,4737.318029,1378.971896
569.215291,5625.565159,8216.285956,-842.705048
569.215612,2590.720797,12287.418637,1302.362347
569.215933,2442.679609,10584.944971,2604.724693
569.216253,3108.864956,4071.132681,1378.971896
569.216574,3997.112087,1480.411884,842.705048
569.216894,3330.926739,2590.720797,2987.772442
569.217215,3701.029710,4663.297435,2451.505594
569.217535,2812.782580,5403.503377,842.705048
569.217856,4293.194464,7105.977043,-766.095498
569.218176,5403.503377,8586.388927,-1072.533697
569.218497,6587.832884,10955.047942,689.485948
569.218818,6809.894666,13027.624579,306.438199
569.219138,7698.141797,12287.418637,-2528.115143
569.219459,5625.565159,7402.059420,-3907.087040
569.219779,5773.606348,5699.585753,-689.485948
569.220100,4367.215058,6809.894666,4060.306139
569.220420,3552.988522,7920.203579,2451.505594
569.220741,5403.503377,8512.368333,-2298.286494
569.221062,5033.400406,9104.533087,-3907.087040
569.221382,2960.823768,5625.565159,2068.457845
569.221703,4885.359217,2072.576638,8120.612279
569.222023,3997.112087,740.205942,6588.421283
569.222344,1406.391290,2368.659014,76.609550
569.222664,1998.556043,5699.585753,-3753.867940
569.222985,5995.668130,10140.821405,-4749.792088
569.223306,7105.977043,12435.459826,-3294.210641
569.223626,8216.285956,13175.665768,-1072.533697
569.223947,8956.491898,12805.562797,-1455.581446
569.224267,6217.729913,10881.027347,-2528.115143
569.224588,2368.659014,8882.471304,-1072.533697
569.224908,4071.132681,8290.306550,-612.876398
569.225229,4515.256246,6809.894666,-2298.286494
569.225549,3552.988522,5625.565159,-1378.971896
569.225870,4515.256246,7624.121203,1149.143247
569.226191,6513.812290,9696.697840,2604.724693
569.226511,3701.029710,9474.636058,995.924147
569.226832,1924.535449,5255.462188,-2145.067394
569.227152,2664.741391,3627.009116,-1762.019645
569.227473,4885.359217,8216.285956,1608.800546
569.227793,6587.832884,12213.398043,2757.943793
569.228114,8734.430116,14359.995275,-995.924147
569.228435,9400.615463,14359.995275,-3907.087040
569.228755,6217.729913,12731.542202,-2298.286494
569.229076,4737.318029,10288.862594,536.266849
569.229396,4737.318029,6439.791695,919.314598
569.229717,4589.276840,3997.112087,-229.828649
569.230037,5403.503377,3478.967927,-1685.410096
569.230358,6291.750507,4885.359217,-995.924147
569.230678,6735.874072,7402.059420,-383.047749
569.230999,6217.729913,9474.636058,153.219100
569.231320,7402.059420,11695.253884,919.314598
569.231640,7698.141797,14211.954086,1225.752797
569.231961,6587.832884,12953.603985,1608.800546
569.232281,5995.668130,8882.471304,1915.238745
569.232602,4589.276840,5329.482782,1378.971896
569.232922,2886.803174,4737.318029,0.000000
569.233243,1184.329507,6883.915261,-229.828649
569.233564,2368.659014,9696.697840,-229.828649
569.233884,4293.194464,9992.780217,153.219100
569.234205,5773.606348,10955.047942,0.000000
569.234525,1776.494261,7550.100608,0.000000
569.234846,0.000000,2960.823768,0.000000
569.235166,5847.626942,3552.988522,2451.505594
569.235487,7698.141797,6661.853478,3217.601092
569.235807,5921.647536,9622.677246,-459.657299
569.236128,6661.853478,11251.130318,-3524.039291
569.236449,6439.791695,9844.739029,-1608.800546
569.236769,4663.297435,4663.297435,2987.772442
569.237090,7624.121203,3034.844362,4826.401637
569.237410,6217.729913,4885.359217,1149.143247
569.237731,1776.494261,7698.141797,-1991.848295
569.238051,3034.844362,9474.636058,-612.876398
569.238372,5181.441594,9400.615463,766.095498
569.238693,4367.215058,6365.771101,1915.238745
569.239013,5033.400406,4441.235652,1455.581446
569.239334,3849.070898,5551.544565,919.314598
569.239654,2072.576638,5847.626942,1072.533697
569.239975,1406.391290,3775.050304,1225.752797
569.240295,4663.297435,2442.679609,-1149.143247
569.240616,5847.626942,6365.771101,-3217.601092
569.240937,5699.585753,11991.336260,-1225.752797
569.241257,5033.400406,13101.645173,-1378.971896
569.241578,7105.977043,10658.965565,-2911.162892
569.241898,8586.388927,10732.986159,-766.095498
569.242219,6365.771101,7994.224174,689.485948
569.242539,2516.700203,4663.297435,229.828649
569.242860,5477.523971,7846.182985,612.876398
569.243180,4737.318029,10510.924376,1762.019645
569.243501,2812.782580,7772.162391,1838.629195
569.243822,4811.338623,7328.038826,612.876398
569.244142,3997.112087,7772.162391,76.609550
569.244463,2146.597232,8956.491898,0.000000
569.244783,5329.482782,7920.203579,-842.705048
569.245104,3108.864956,4811.338623,-2681.334243
569.245424,2220.617826,5033.400406,-612.876398
569.245745,6365.771101,10510.924376,2451.505594
569.246066,8142.265362,15100.201217,-1762.019645
569.246386,6587.832884,16136.489536,-5745.716235
569.246707,7328.038826,15322.262999,-4290.134789
569.247027,8438.347739,11991.336260,-766.095498
569.247348,7328.038826,8290.306550,3447.429741
569.247668,6365.771101,7772.162391,4826.401637
569.247989,4811.338623,7772.162391,536.266849
569.248309,3256.906145,8734.430116,-1378.971896
569.248630,4441.235652,9030.512492,842.705048
569.248951,4737.318029,6587.832884,2451.505594
569.249271,5255.462188,3701.029710,3064.381992
569.249592,7179.997637,6143.709319,2604.724693
569.249912,3330.926739,7994.224174,0.000000
569.250233,1850.514855,6883.915261,-3140.991542
569.250553,5329.482782,6217.729913,-3064.381992
569.250874,7624.121203,5921.647536,-2757.943793
569.251195,6661.853478,9030.512492,-1608.800546
569.251515,8882.471304,14211.954086,-1149.143247
569.251836,6143.709319,13693.809927,-4596.572988
569.252156,6365.771101,11177.109724,-4673.182538
569.252477,6069.688724,7994.224174,153.219100
569.252797,5255.462188,5329.482782,4213.525239
569.253118,3552.988522,4145.153275,4903.011187
569.253438,3256.906145,5403.503377,3447.429741
569.253759,1110.308913,5181.441594,612.876398
569.254080,1480.411884,3701.029710,-153.219100
569.254400,3404.947333,2072.576638,1762.019645
569.254721,2664.741391,0.000000,1302.362347
569.255041,4663.297435,4515.256246,229.828649
569.255362,6069.688724,10288.862594,-2528.115143
569.255682,3404.947333,11325.150913,-5056.230287
569.256003,5995.668130,11325.150913,-2528.115143
569.256324,9622.677246,13693.809927,-383.047749
569.256644,7031.956449,13027.624579,-1455.581446
569.256965,5255.462188,11325.150913,-1532.190996
569.257285,6513.812290,10066.800811,0.000000
569.257606,5181.441594,7846.182985,2604.724693
569.257926,2442.679609,5329.482782,5822.325785
569.258247,2886.803174,4811.338623,3830.477490
569.258568,1480.411884,4811.338623,919.314598
569.258888,0.000000,6069.688724,1608.800546
569.259209,3256.906145,6439.791695,2374.896044
569.259529,4589.276840,4663.297435,1072.533697
569.259850,3849.070898,5181.441594,1225.752797
569.260170,5699.585753,9104.533087,842.705048
569.260491,6143.709319,12287.418637,-2451.505594
569.260811,6291.750507,13249.686362,-2987.772442
569.261132,9104.533087,13249.686362,-1608.800546
569.261453,9474.636058,10362.883188,-1302.362347
569.261773,7328.038826,8882.471304,76.609550
569.262094,5477.523971,8586.388927,612.876398
569.262414,5107.421000,8808.450710,-2221.676944
569.262735,7624.121203,9992.780217,-1378.971896
569.263055,5477.523971,9400.615463,1532.190996
569.263376,3775.050304,3775.050304,1685.410096
569.263697,3404.947333,0.000000,2451.505594
569.264017,4145.153275,370.102971,4060.306139
569.264338,1480.411884,2664.741391,1762.019645
569.264658,2664.741391,5921.647536,-2068.457845
569.264979,5181.441594,8956.491898,-3753.867940
569.265299,6957.935855,10510.924376,-3907.087040
569.265620,8882.471304,11769.274478,-2451.505594
569.265940,9030.512492,13249.686362,-2987.772442
569.266261,3034.844362,11473.192101,-4290.134789
569.266582,4219.173869,9992.780217,-2681.334243
569.266902,8290.306550,9770.718434,-1378.971896
569.267223,6365.771101,8512.368333,-995.924147
569.267543,5255.462188,8364.327145,459.657299
569.267864,2590.720797,8586.388927,-306.438199
569.268184,1184.329507,8068.244768,1072.533697
569.268505,3552.988522,5477.523971,1915.238745
569.268825,4663.297435,2368.659014,153.219100
569.269146,3330.926739,1406.391290,-383.047749
569.269466,2886.803174,5625.565159,153.219100
569.269786,2812.782580,8290.306550,-1685.410096
569.270107,4515.256246,8660.409521,-3830.477490
569.270427,9622.677246,12805.562797,-3217.601092
569.270748,11473.192101,16580.613101,-2145.067394
569.271068,6291.750507,13989.892304,-3140.991542
569.271389,4589.276840,9400.615463,-3140.991542
569.271709,7624.121203,9696.697840,-1149.143247
569.272030,5551.544565,9178.553681,1072.533697
569.272350,4885.359217,8660.409521,2068.457845
569.272671,5107.421000,7772.162391,-1685.410096
569.272991,3034.844362,6957.935855,-1915.238745
569.273312,1184.329507,3108.864956,1302.362347
569.273632,814.226536,296.082377,1302.362347
569.273953,3627.009116,3775.050304,1532.190996
569.274273,4367.215058,8808.450710,2528.115143
569.274594,5255.462188,10807.006753,-1608.800546
569.274914,6365.771101,13027.624579,-5669.106685
569.275235,5773.606348,14508.036463,-3064.381992
569.275555,6661.853478,13767.830521,1762.019645
569.275876,10362.883188,11473.192101,3064.381992
569.276196,7254.018232,10066.800811,1455.581446
569.276517,2590.720797,8216.285956,-153.219100
569.276837,2738.761985,6365.771101,-383.047749
569.277158,2590.720797,4737.318029,2298.286494
569.277478,2442.679609,4589.276840,4290.134789
569.277799,4441.235652,4367.215058,1762.019645
569.278119,5181.441594,3849.070898,-1608.800546
569.278440,3997.112087,4219.173869,1455.581446
569.278760,4663.297435,6735.874072,4136.915689
569.279081,6735.874072,8216.285956,2374.896044
569.279401,5255.462188,7476.080014,-1838.629195
569.279722,6365.771101,8660.409521,-2451.505594
569.280042,8956.491898,11029.068536,-1455.581446
569.280363,6587.832884,9548.656652,459.657299
569.280683,5921.647536,8586.388927,1225.752797
569.281004,6587.832884,11325.150913,-1072.533697
569.281324,4885.359217,11695.253884,-1378.971896
569.281644,3108.864956,8068.244768,306.438199
569.281965,4589.276840,6587.832884,1685.410096
569.282285,3701.029710,3552.988522,2528.115143
569.282606,592.164754,1332.370696,3677.258390
569.282926,2886.803174,2368.659014,2145.067394
569.283247,2516.700203,4737.318029,0.000000
569.283567,2072.576638,5403.503377,-612.876398
569.283888,5033.400406,5921.647536,-1378.971896
569.284208,6809.894666,9622.677246,-1838.629195
569.284529,6217.729913,12583.501014,153.219100
569.284849,7624.121203,12583.501014,1378.971896
569.285170,8734.430116,10510.924376,-2604.724693
569.285490,5255.462188,9844.739029,-2911.162892
569.285811,2960.823768,7179.997637,-459.657299
569.286131,4071.132681,4737.318029,0.000000
569.286452,4811.338623,5773.606348,-766.095498
569.286772,3552.988522,8364.327145,-1991.848295
569.287093,5255.462188,8956.491898,-2298.286494
569.287413,4589.276840,7179.997637,-766.095498
569.287734,1702.473667,5551.544565,1455.581446
569.288054,3034.844362,4737.318029,995.924147
569.288375,4071.132681,4811.338623,-2298.286494
569.288695,3330.926739,7698.141797,-2451.505594
569.289016,5773.606348,11103.089130,766.095498
569.289336,9548.656652,13841.851115,0.000000
569.289657,7846.182985,14211.954086,-3677.258390
569.289977,3404.947333,11177.109724,-4903.011187
569.290298,5773.606348,10066.800811,-2221.676944
569.290618,7105.977043,10214.842000,1762.019645
569.290939,4515.256246,8364.327145,229.828649
569.291259,5329.482782,8142.265362,-1608.800546
569.291580,7179.997637,9770.718434,-2221.676944
569.291900,2368.659014,9474.636058,0.000000
569.292221,2368.659014,8808.450710,2451.505594
569.292541,6365.771101,7624.121203,1302.362347
569.292862,5921.647536,4959.379811,0.000000
569.293182,3627.009116,3775.050304,383.047749
569.293502,4293.194464,5773.606348,-536.266849
569.293823,6069.688724,9844.739029,-1915.238745
569.294143,6661.853478,10881.027347,-2374.896044
569.294464,7846.182985,11177.109724,-3064.381992
569.294784,10584.944971,13101.645173,-2221.676944
569.295105,7920.203579,13915.871710,-153.219100
569.295425,5847.626942,11103.089130,-306.438199
569.295746,6365.771101,8956.491898,-1608.800546
569.296066,5773.606348,8142.265362,-612.876398
569.296387,3108.864956,5329.482782,0.000000
569.296707,2960.823768,2812.782580,-383.047749
569.297028,1850.514855,1776.494261,-689.485948
569.297348,2664.741391,4441.235652,-306.438199
569.297669,3404.947333,6217.729913,612.876398
569.297989,3923.091493,6217.729913,-229.828649
569.298310,5329.482782,7698.141797,766.095498
569.298630,7031.956449,9548.656652,1455.581446
569.298951,5033.400406,10362.883188,0.000000
569.299271,3404.947333,8734.430116,-612.876398
569.299592,6217.729913,8808.450710,689.485948
569.299912,7550.100608,8364.327145,459.657299
569.300233,5477.523971,7179.997637,-995.924147
569.300553,2664.741391,6587.832884,-2145.067394
569.300874,1850.514855,5847.626942,-1149.143247
569.301194,2220.617826,4589.276840,1378.971896
569.301515,3627.009116,4367.215058,1532.190996
569.301835,5773.606348,5625.565159,229.828649
569.302156,4367.215058,8216.285956,-459.657299
569.302476,4145.153275,10288.862594,0.000000
569.302797,5033.400406,11029.068536,536.266849
569.303117,4959.379811,9474.636058,383.047749
569.303438,5921.647536,7624.121203,1608.800546
569.303758,5551.544565,6809.894666,2221.676944
569.304079,4441.235652,8512.368333,1532.190996
569.304399,5255.462188,11695.253884,-306.438199
569.304720,4367.215058,10584.944971,-1762.019645
569.305040,2960.823768,7031.956449,-1838.629195
569.305360,5847.626942,5921.647536,1455.581446
569.305681,4145.153275,6291.750507,3140.991542
569.306001,4219.173869,7031.956449,1302.362347
569.306322,5477.523971,8808.450710,-1072.533697
569.306642,4441.235652,9474.636058,-1455.581446
569.306963,4959.379811,9030.512492,383.047749
569.307283,8142.265362,7994.224174,2834.553343
569.307604,7550.100608,8364.327145,2834.553343
569.307924,6809.894666,11029.068536,2604.724693
569.308245,5255.462188,10807.006753,919.314598
569.308565,4145.153275,7846.182985,-2451.505594
569.308886,5995.668130,5625.565159,-1302.362347
569.309206,6809.894666,6069.688724,1608.800546
569.309527,5625.565159,6809.894666,1915.238745
569.309847,3478.967927,6291.750507,536.266849
569.310168,4811.338623,7624.121203,-1762.019645
569.310488,5329.482782,7105.977043,-2604.724693
569.310809,6513.812290,7105.977043,-1149.143247
569.311129,7698.141797,10214.842000,-153.219100
569.311450,6661.853478,12361.439231,-306.438199
569.311770,5403.503377,11029.068536,-306.438199
569.312091,4441.235652,8808.450710,0.000000
569.312411,4367.215058,7994.224174,1762.019645
569.312732,3034.844362,8882.471304,2451.505594
569.313052,3627.009116,8512.368333,1991.848295
569.313373,3182.885551,7772.162391,1302.362347
569.313693,3034.844362,7550.100608,1838.629195
569.314014,1924.535449,4737.318029,2374.896044
569.314334,2294.638420,1406.391290,2221.676944
569.314655,2442.679609,3108.864956,229.828649
569.314975,2590.720797,6587.832884,-2681.334243
569.315296,4367.215058,7698.141797,-5592.497135
569.315616,7772.162391,9104.533087,-5286.058936
569.315937,9104.533087,11695.253884,-2911.162892
569.316257,7476.080014,13619.789333,-612.876398
569.316578,7031.956449,11917.315666,-1532.190996
569.316898,8882.471304,9548.656652,-2221.676944
569.317219,7328.038826,7994.224174,-306.438199
569.317539,6735.874072,7550.100608,3370.820191
569.317859,5255.462188,5699.585753,2987.772442
569.318180,3849.070898,4145.153275,1302.362347
569.318500,2960.823768,3997.112087,919.314598
569.318821,1998.556043,2146.597232,-766.095498
569.319141,4145.153275,1702.473667,-3600.648841
569.319462,4737.318029,4219.173869,-2604.724693
569.319782,3701.029710,7624.121203,-383.047749
569.320103,7698.141797,12361.439231,-536.266849
569.320423,7402.059420,15766.386565,-2451.505594
569.320744,4959.379811,15470.304188,-2834.553343
569.321064,6957.935855,14508.036463,-1225.752797
569.321385,7624.121203,13545.768739,-306.438199
569.321705,3775.050304,9400.615463,-612.876398
569.322026,3997.112087,7476.080014,766.095498
569.322346,4145.153275,6883.915261,1072.533697
569.322667,1332.370696,5255.462188,1685.410096
569.322987,1332.370696,5329.482782,3217.601092
569.323308,5181.441594,7698.141797,2221.676944
569.323628,3627.009116,7698.141797,536.266849
569.323949,3404.947333,4885.359217,1838.629195
569.324269,7179.997637,4959.379811,1072.533697
569.324590,7476.080014,7624.121203,919.314598
569.324910,6957.935855,10140.821405,0.000000
569.325231,7105.977043,12435.459826,-4673.182538
569.325551,8290.306550,12731.542202,-8350.440928
569.325872,6217.729913,10955.047942,-4596.572988
569.326192,8364.327145,8364.327145,919.314598
569.326513,9770.718434,7031.956449,3294.210641
569.326833,4811.338623,8512.368333,3294.210641
569.327154,444.123565,8734.430116,-306.438199
569.327474,2442.679609,7698.141797,-3064.381992
569.327795,3775.050304,6809.894666,536.266849
569.328115,2442.679609,3182.885551,5209.449386
569.328436,3478.967927,1110.308913,3217.601092
569.328756,4959.379811,3997.112087,-383.047749
569.329077,1628.453072,7105.977043,-689.485948
569.329397,1480.411884,7328.038826,-919.314598
569.329717,5773.606348,7550.100608,-1302.362347
569.330038,5847.626942,10140.821405,-919.314598
569.330358,5551.544565,12509.480420,-689.485948
569.330679,7698.141797,13027.624579,-1685.410096
569.330999,7698.141797,12287.418637,-3370.820191
569.331320,5181.441594,11695.253884,-1915.238745
569.331640,4441.235652,10881.027347,229.828649
569.331961,2664.741391,5033.400406,153.219100
569.332281,2590.720797,1628.453072,2145.067394
569.332602,4145.153275,3182.885551,4136.915689
569.332922,4145.153275,5033.400406,3064.381992
569.333243,1924.535449,4145.153275,383.047749
569.333563,3627.009116,4959.379811,153.219100
569.333884,7179.997637,7994.224174,1608.800546
569.334204,7105.977043,9178.553681,2145.067394
569.334525,6735.874072,9326.594869,-1608.800546
569.334845,8660.409521,11843.295072,-3753.867940
569.335166,7476.080014,13027.624579,-3217.601092
569.335486,8216.285956,11473.192101,-766.095498
569.335807,9252.574275,9992.780217,919.314598
569.336127,6365.771101,8438.347739,1149.143247
569.336448,4145.153275,8882.471304,842.705048
569.336768,2960.823768,8660.409521,919.314598
569.337089,2368.659014,5699.585753,1225.752797
569.337409,3404.947333,2886.803174,2298.286494
569.337730,4811.338623,2072.576638,2221.676944
569.338050,2368.659014,3330.926739,1072.533697
569.338371,1406.391290,5329.482782,689.485948
569.338691,5551.544565,9400.615463,1149.143247
569.339012,7105.977043,11103.089130,-1149.143247
569.339332,5773.606348,10732.986159,-2987.772442
569.339653,6957.935855,10955.047942,-2757.943793
569.339973,7772.162391,10066.800811,-1149.143247
569.340294,5995.668130,8586.388927,0.000000
569.340614,5329.482782,9696.697840,-1838.629195
569.340935,5773.606348,11251.130318,-3600.648841
569.341255,4219.173869,10214.842000,-2145.067394
569.341575,3256.906145,7920.203579,76.609550
569.341896,3404.947333,4959.379811,1378.971896
569.342216,3256.906145,2960.823768,1608.800546
569.342537,2516.700203,2812.782580,1915.238745
569.342857,2220.617826,2812.782580,76.609550
569.343178,2590.720797,4441.235652,-1991.848295
569.343498,4885.359217,7920.203579,-2221.676944
569.343819,6513.812290,10140.821405,-2068.457845
569.344139,8216.285956,12435.459826,-1608.800546
569.344460,10066.800811,14434.015869,-842.705048
569.344780,6587.832884,12879.583391,-2911.162892
569.345101,4737.318029,8660.409521,-3140.991542
569.345421,4959.379811,8068.244768,-689.485948
569.345742,5921.647536,10436.903782,2221.676944
569.346062,5699.585753,11695.253884,1302.362347
569.346383,4589.276840,8882.471304,-1455.581446
569.346703,2368.659014,3997.112087,-1838.629195
569.347024,2368.659014,1924.535449,2528.115143
569.347344,1554.432478,3997.112087,4903.011187
569.347665,2368.659014,4959.379811,1072.533697
569.347985,4145.153275,7105.977043,-3140.991542
569.348306,6291.750507,10214.842000,-4443.353888
569.348626,6735.874072,13397.727550,-2681.334243
569.348947,7179.997637,14952.160028,153.219100
569.349267,8512.368333,15396.283594,0.000000
569.349588,7328.038826,14582.057057,-2757.943793
569.349908,5107.421000,11547.212695,-3064.381992
569.350229,4441.235652,7402.059420,1225.752797
569.350549,4737.318029,4885.359217,4596.572988
569.350870,2812.782580,5107.421000,4366.744339
569.351190,3034.844362,6661.853478,536.266849
569.351511,2368.659014,6587.832884,-3830.477490
569.351831,3997.112087,5329.482782,-2068.457845
569.352152,2812.782580,3552.988522,2298.286494
569.352472,4737.318029,2146.597232,4519.963438
569.352793,7179.997637,5921.647536,2528.115143
569.353113,6365.771101,10362.883188,-766.095498
569.353433,5255.462188,11621.233289,-3830.477490
569.353754,7772.162391,11399.171507,-5822.325785
569.354074,9400.615463,11547.212695,-3907.087040
569.354395,7698.141797,9400.615463,1072.533697
569.354715,7698.141797,8512.368333,1532.190996
569.355036,6735.874072,9104.533087,-1915.238745
569.355356,2442.679609,9474.636058,-1532.190996
569.355677,2516.700203,7254.018232,2681.334243
569.355997,5995.668130,4145.153275,4060.306139
569.356318,2368.659014,1924.535449,2987.772442
569.356638,1776.494261,2072.576638,2681.334243
569.356959,2368.659014,4219.173869,919.314598
569.357279,666.185348,3701.029710,-536.266849
569.357600,3478.967927,6143.709319,459.657299
569.357920,7994.224174,11547.212695,-306.438199
569.358241,6587.832884,13175.665768,-3600.648841
569.358561,5329.482782,12805.562797,-3064.381992
569.358882,7624.121203,13027.624579,-459.657299
569.359202,7698.141797,13841.851115,1762.019645
569.359523,4145.153275,11769.274478,2757.943793
569.359843,3627.009116,8364.327145,229.828649
569.360164,5995.668130,8438.347739,-766.095498
569.360484,2220.617826,5921.647536,2145.067394
569.360805,0.000000,2072.576638,3677.258390
569.361125,2368.659014,0.000000,2451.505594
569.361446,3404.947333,3256.906145,1608.800546
569.361766,3849.070898,6439.791695,229.828649
569.362087,3627.009116,7179.997637,-2681.334243
569.362407,6439.791695,7328.038826,-2911.162892
569.362728,9030.512492,11103.089130,-229.828649
569.363048,8734.430116,14063.912898,-153.219100
569.363369,8956.491898,15026.180623,-2145.067394
569.363689,8512.368333,13693.809927,-3753.867940
569.364010,7698.141797,10066.800811,-2145.067394
569.364330,7031.956449,6957.935855,383.047749
569.364651,3849.070898,4145.153275,459.657299
569.364971,2146.597232,4589.276840,-766.095498
569.365292,4441.235652,7772.162391,229.828649
569.365612,2516.700203,5847.626942,0.000000
569.365932,2738.761985,2738.761985,-1149.143247
569.366253,4293.194464,3256.906145,1378.971896
569.366573,2812.782580,4441.235652,2451.505594
569.366894,2886.803174,6291.750507,-1072.533697
569.367214,6587.832884,10140.821405,-3447.429741
569.367535,7254.018232,12657.521608,-4060.306139
569.367855,7698.141797,12435.459826,-2834.553343
569.368176,9474.636058,12731.542202,-919.314598
569.368496,6735.874072,12065.356855,-919.314598
569.368817,4959.379811,12139.377449,-1685.410096
569.369137,5773.606348,10955.047942,-1685.410096
569.369458,4145.153275,8142.265362,-1072.533697
569.369778,2368.659014,3923.091493,1378.971896
569.370099,3108.864956,3552.988522,1685.410096
569.370419,2738.761985,3627.009116,-612.876398
569.370740,2072.576638,5477.523971,0.000000
569.371060,3552.988522,8586.388927,0.000000
569.371381,3923.091493,7328.038826,-1378.971896
569.371701,4589.276840,6513.812290,153.219100
569.372022,6735.874072,10436.903782,1225.752797
569.372342,6291.750507,12065.356855,-1455.581446
569.372663,5181.441594,12213.398043,-3524.039291
569.372983,8068.244768,12731.542202,-1991.848295
569.373303,8216.285956,12287.418637,76.609550
569.373624,5477.523971,10066.800811,2221.676944
569.373944,5625.565159,9474.636058,1532.190996
569.374265,3552.988522,8956.491898,-1378.971896
569.374585,444.123565,4959.379811,-1225.752797
569.374906,3701.029710,2516.700203,1149.143247
569.375226,4959.379811,2960.823768,1378.971896
569.375547,2294.638420,5921.647536,1685.410096
569.375867,2516.700203,8660.409521,383.047749
569.376188,3552.988522,8142.265362,-2528.115143
569.376508,5403.503377,7698.141797,-1915.238745
569.376829,7105.977043,9992.780217,2374.896044
569.377149,7328.038826,10955.047942,919.314598
569.377470,7105.977043,11917.315666,-1838.629195
569.377790,6217.729913,11843.295072,-1225.752797
569.378111,6069.688724,8882.471304,-766.095498
569.378431,8142.265362,7328.038826,689.485948
569.378752,6513.812290,8438.347739,1072.533697
569.379072,2368.659014,6587.832884,-306.438199
569.379393,3404.947333,4515.256246,0.000000
569.379713,5329.482782,2886.803174,1532.190996
569.380033,3256.906145,3108.864956,2681.334243
569.380354,1776.494261,4589.276840,3064.381992
569.380674,3701.029710,7328.038826,536.266849
569.380995,3775.050304,8438.347739,-612.876398
569.381315,6069.688724,8586.388927,1302.362347
569.381636,7402.059420,8882.471304,-306.438199
569.381956,5921.647536,7920.203579,-3064.381992
569.382277,5329.482782,9696.697840,-1302.362347
569.382597,6735.874072,10658.965565,-1072.533697
569.382918,5033.400406,7179.997637,-1915.238745
569.383238,5403.503377,5329.482782,-1149.143247
569.383559,5625.565159,8438.347739,536.266849
569.383879,4737.318029,11843.295072,2451.505594
569.384200,3182.885551,10066.800811,1915.238745
569.384520,3552.988522,4811.338623,-1455.581446
569.384841,4811.338623,1776.494261,-229.828649
569.385161,1924.535449,2146.597232,2834.553343
569.385482,592.164754,3701.029710,2451.505594
569.385802,1850.514855,6365.771101,-2374.896044
569.386123,5329.482782,11177.109724,-4903.011187
569.386443,6217.729913,11991.336260,-3140.991542
569.386764,7031.956449,11251.130318,-1685.410096
569.387084,8364.327145,12287.418637,-766.095498
569.387404,6143.709319,14878.139434,536.266849
569.387725,3849.070898,12287.418637,-612.876398
569.388045,7550.100608,9622.677246,-1302.362347
569.388366,6439.791695,9178.553681,1149.143247
569.388686,3849.070898,7328.038826,3294.210641
569.389007,3923.091493,6513.812290,2221.676944
569.389327,3404.947333,5995.668130,-1072.533697
569.389648,1998.556043,5329.482782,-995.924147
569.389968,5551.544565,5329.482782,536.266849
569.390289,7179.997637,5847.626942,766.095498
569.390609,4441.235652,7105.977043,0.000000
569.390930,4885.359217,10140.821405,-612.876398
569.391250,8808.450710,13027.624579,-1378.971896
569.391571,8512.368333,14878.139434,-306.438199
569.391891,9696.697840,14656.077652,459.657299
569.392212,8882.471304,12583.501014,-306.438199
569.392532,5699.585753,8068.244768,612.876398
569.392853,2590.720797,5477.523971,3140.991542
569.393173,3701.029710,5995.668130,2221.676944
569.393494,2812.782580,5403.503377,-306.438199
569.393814,962.267725,5329.482782,-1455.581446
569.394135,2886.803174,5477.523971,0.000000
569.394455,4071.132681,5403.503377,2451.505594
569.394775,2516.700203,4737.318029,2911.162892
569.395096,1628.453072,4811.338623,0.000000
569.395416,3775.050304,6735.874072,-1838.629195
569.395737,5255.462188,8882.471304,-1225.752797
569.396057,6809.894666,10066.800811,-1915.238745
569.396378,6291.750507,10066.800811,-3677.258390
569.396698,6513.812290,11473.192101,-2911.162892
569.397019,6365.771101,10510.924376,0.000000
569.397339,6809.894666,8956.491898,229.828649
569.397660,7031.956449,8290.306550,306.438199
569.397980,4293.194464,5255.462188,229.828649
569.398301,1702.473667,962.267725,-536.266849
569.398621,2886.803174,148.041188,1302.362347
569.398942,3701.029710,2590.720797,2834.553343
569.399262,4737.318029,4293.194464,1455.581446
569.399583,7254.018232,6439.791695,-1532.190996
569.399903,4219.173869,8290.306550,-4290.134789
569.400224,2368.659014,8660.409521,-2298.286494
569.400544,7772.162391,9770.718434,536.266849
569.400865,9918.759623,10807.006753,76.609550
569.401185,7550.100608,12657.521608,-1685.410096
569.401506,5329.482782,12731.542202,-3294.210641
569.401826,5847.626942,11621.233289,-2528.115143
569.402146,4219.173869,8660.409521,2604.724693
569.402467,5847.626942,8734.430116,4366.744339
569.402787,6291.750507,9474.636058,1378.971896
569.403108,2886.803174,9474.636058,-1149.143247
569.403428,518.144159,5699.585753,153.219100
569.403749,2294.638420,1702.473667,1915.238745
569.404069,2368.659014,814.226536,3524.039291
569.404390,2368.659014,4959.379811,2374.896044
569.404710,2590.720797,10584.944971,-1685.410096
569.405031,6957.935855,15396.283594,-3064.381992
569.405351,7031.956449,14878.139434,-3064.381992
569.405672,5181.441594,11547.212695,-2834.553343
569.405992,7772.162391,10140.821405,-1762.019645
569.406313,7476.080014,10658.965565,-1302.362347
569.406633,6143.709319,11399.171507,-1302.362347
569.406954,5847.626942,10362.883188,-1532.190996
569.407274,6883.915261,9400.615463,-306.438199
569.407595,4663.297435,7476.080014,2451.505594
569.407915,3775.050304,6809.894666,3677.258390
569.408236,2442.679609,5107.421000,2374.896044
569.408556,3034.844362,3034.844362,-459.657299
569.408877,4219.173869,1110.308913,-1149.143247
569.409197,2886.803174,1332.370696,-919.314598
569.409517,3256.906145,5551.544565,306.438199
569.409838,6513.812290,10955.047942,-689.485948
569.410158,8068.244768,14137.933492,-4136.915689
569.410479,8216.285956,15470.304188,-6128.763984
569.410799,8364.327145,14211.954086,-3907.087040
569.411120,5921.647536,9992.780217,536.266849
569.411440,6809.894666,7698.141797,2987.772442
569.411761,5181.441594,7994.224174,2145.067394
569.412081,2590.720797,7846.182985,-995.924147
569.412402,3552.988522,6957.935855,-689.485948
569.412722,3627.009116,5773.606348,2757.943793
569.413043,2294.638420,2960.823768,4136.915689
569.413363,2072.576638,-592.164754,2681.334243
569.413684,3849.070898,1184.329507,153.219100
569.414004,3552.988522,5329.482782,-612.876398
569.414325,5625.565159,8882.471304,-306.438199
569.414645,7328.038826,11325.150913,-2298.286494
569.414966,8438.347739,14878.139434,-3983.696590
569.415286,8512.368333,17468.860231,-1532.190996
569.415607,10140.821405,15100.201217,306.438199
569.415927,7994.224174,9326.594869,1532.190996
569.416247,4885.359217,5995.668130,1532.190996
569.416568,3256.906145,6661.853478,2221.676944
569.416888,1184.329507,6143.709319,1608.800546
569.417209,444.123565,4737.318029,2221.676944
569.417529,3775.050304,5033.400406,3294.210641
569.417850,4441.235652,4219.173869,3064.381992
